Question,qns_options,quest_num,answer,answer_num,question_load_timestamp,next_btn_timestamp,text_selected,final_text_selected,option_num_selected,preview_timestamps,final_text_selected_time_stamp,rt_first_option_click,rt_final_option_click,rt_submit_click,questionnaire,trial_type,trial_index,time_elapsed,internal_node_id
<b>Considering other people?s perspectives can help us figure out what?s true or false.,Highly disagree,1/150,Highly agree,4,1698180263072,1698180273485,\Highly agree\,\Highly agree\,\4\,1698180271301,1698180272692,8229,9620,10413,buq,qns-item-noham,1,26859,0.0-1.0-0.0
<b>Knowing what?s true and knowing what to do about it are usually basically the same.,Highly disagree,2/150,Highly agree,4,1698180273491,1698180279630,\Highly agree\,\Highly agree\,\4\,1698180278946,1698180278946,5455,5455,6139,buq,qns-item-noham,2,33004,0.0-1.0-0.1
<b>Most people just believe whatever is convenient for them.,Highly disagree,3/150,Highly agree,4,1698180279634,1698180282795,\Highly agree\,\Highly agree\,\4\,1698180282146,1698180282146,2512,2512,3161,buq,qns-item-noham,3,36169,0.0-1.0-0.2
<b>Even people who are wrong about most things can be right sometimes.,Highly disagree,4/150,Somewhat disagree,2,1698180282798,1698180289342,\Highly agree\,\Somewhat disagree\,\4\,1698180286740,1698180288484,3942,5686,6544,buq,qns-item-noham,4,42717,0.0-1.0-0.3
"<b>If the political party I support does something that upsets me, then the party may have changed, and I need to re-evaluate my support.",Highly disagree,5/150,Highly disagree,1,1698180289345,1698180296925,\Highly disagree\,\Highly disagree\,\1\,1698180296334,1698180296376,6989,7031,7580,buq,qns-item-noham,5,50299,0.0-1.0-0.4
"<b>When people disagree, one side is usually completely right.",Highly disagree,6/150,Highly agree,4,1698180296928,1698180301370,\Highly agree\,\Highly agree\,\4\,1698180300682,1698180300751,3754,3823,4442,buq,qns-item-noham,6,54744,0.0-1.0-0.5
<b>People have lots of false beliefs.,Highly disagree,7/150,Highly agree,4,1698180301373,1698180469505,\Highly disagree\,\Highly agree\,\1\,1698180467367,1698180468849,165994,167476,168132,buq,qns-item-noham,7,222879,0.0-1.0-0.6
<b>Having some big beliefs helps me sort out minor ones.,Highly disagree,8/150,Highly agree,4,1698180469508,1698180473243,\Highly agree\,\Highly agree\,\4\,1698180472657,1698180472657,3149,3149,3735,buq,qns-item-noham,8,226617,0.0-1.0-0.7
<b>Political questions are usually pretty complicated.,Highly disagree,9/150,Somewhat agree,3,1698180473245,1698180477363,\Highly agree\,\Somewhat agree\,\4\,1698180475795,1698180476882,2550,3637,4118,buq,qns-item-noham,9,230737,0.0-1.0-0.8
<b>Figuring out what?s important in life requires learning a lot of facts.,Highly disagree,10/150,Somewhat agree,3,1698180477364,1698180479052,\Somewhat agree\,\Somewhat agree\,\3\,1698180478195,1698180478232,831,868,1688,buq,qns-item-noham,10,232426,0.0-1.0-0.9
<b>It is difficult for me to remember the last time I was surprised by politics.,Highly disagree,11/150,Highly disagree,1,1698180479055,1698180484085,\Somewhat disagree\,\Highly disagree\,\2\,1698180479708,1698180482829,653,3774,5030,buq,qns-item-noham,11,237459,0.0-1.0-0.10
<b>People?s false beliefs are understandable.,Highly disagree,12/150,Highly agree,4,1698180484086,1698180489775,\Highly disagree\,\Highly agree\,\1\,1698180487948,1698180489127,3862,5041,5689,buq,qns-item-noham,12,243149,0.0-1.0-0.11
<b>I spend a lot of time trying to be informed about politics.,Highly disagree,13/150,Highly agree,4,1698180489777,1698180491847,\Highly agree\,\Highly agree\,\4\,1698180490702,1698180490702,925,925,2070,buq,qns-item-noham,13,245221,0.0-1.0-0.12
<b>I think a lot about whether my beliefs are right.,Highly disagree,14/150,Highly agree,4,1698180491849,1698180589225,\Highly agree\,\Highly agree\,\4\,1698180588503,1698180588503,96654,96654,97376,buq,qns-item-noham,14,342600,0.0-1.0-0.13
<b>Statistics can be pretty misleading sometimes.,Highly disagree,15/150,Highly agree,4,1698180589229,1698180592015,\Highly agree\,\Highly agree\,\4\,1698180590288,1698180590288,1059,1059,2786,buq,qns-item-noham,15,345389,0.0-1.0-0.14
<b>Figuring out what?s true and what?s false takes a lot of time and effort.,Highly disagree,16/150,Highly agree,4,1698180592017,1698180594672,\Highly agree\,\Highly agree\,\4\,1698180594055,1698180594055,2038,2038,2655,buq,qns-item-noham,16,348046,0.0-1.0-0.15
"<b>If a friend does something bad to me, it was likely an error on their part.",Highly disagree,17/150,Highly disagree,1,1698180594675,1698180611883,\Highly disagree\,\Highly disagree\,\1\,1698180608065,1698180608065,13390,13390,17208,buq,qns-item-noham,17,365257,0.0-1.0-0.16
<b>I have lots of beliefs that I?m only sort of sure about.,Highly disagree,18/150,Highly agree,4,1698180611885,1698180614125,\Highly agree\,\Highly agree\,\4\,1698180613523,1698180613523,1638,1638,2240,buq,qns-item-noham,18,367499,0.0-1.0-0.17
"<b>If I go to my favorite restaurant and the food is surprisingly bad, it reminds me there are many disappointments in life.",Highly disagree,19/150,Highly disagree,1,1698180614127,1698180620923,\Highly agree\,\Highly disagree\,\4\,1698180614805,1698180620355,678,6228,6796,buq,qns-item-noham,19,374297,0.0-1.0-0.18
<b>Sometimes my beliefs are inconvenient for me.,Highly disagree,20/150,Highly disagree,1,1698180620925,1698180625751,\Highly disagree\,\Highly disagree\,\1\,1698180624981,1698180624981,4056,4056,4826,buq,qns-item-noham,20,379125,0.0-1.0-0.19
<b>Paying attention to multiple news sources is important.,Highly disagree,21/150,Highly agree,4,1698180625753,1698180630109,\Highly agree\,\Highly agree\,\4\,1698180629421,1698180629421,3668,3668,4356,buq,qns-item-noham,21,383483,0.0-1.0-0.20
"<b>If you are paying attention, please select ?Somewhat agree?",Highly disagree,22/150,Somewhat agree,3,1698180630114,1698180633061,\Somewhat agree\,\Somewhat agree\,\3\,1698180632397,1698180632430,2283,2316,2947,buq,qns-item-noham,22,386435,0.0-1.0-0.21
"<b>When I talk to others, I often worry I?ll convince them of something I didn?t mean to.",Highly disagree,23/150,Highly agree,4,1698180633063,1698180634767,\Highly agree\,\Highly agree\,\4\,1698180633829,1698180633829,766,766,1704,buq,qns-item-noham,23,388141,0.0-1.0-0.22
<b>I would need to learn something utterly shocking about my party in order to change my political views.,Highly disagree,24/150,Somewhat disagree,2,1698180634770,1698180638383,\Somewhat disagree\,\Somewhat disagree\,\2\,1698180636775,1698180636775,2005,2005,3613,buq,qns-item-noham,24,391757,0.0-1.0-0.23
"<b>When I have new experiences, I tend to think of them as unique.",Highly disagree,25/150,Somewhat agree,3,1698180638385,1698180640801,\Somewhat agree\,\Somewhat agree\,\3\,1698180639905,1698180639955,1520,1570,2416,buq,qns-item-noham,25,394175,0.0-1.0-0.24
<b>Reading lots of things is important for understanding the world.,Highly disagree,26/150,Somewhat agree,3,1698180640803,1698180642514,\Somewhat agree\,\Somewhat agree\,\3\,1698180641841,1698180641841,1038,1038,1711,buq,qns-item-noham,26,395888,0.0-1.0-0.25
<b>The world is complicated.,Highly disagree,27/150,Highly agree,4,1698180642517,1698180644748,\Highly agree\,\Highly agree\,\4\,1698180644203,1698180644235,1686,1718,2231,buq,qns-item-noham,27,398122,0.0-1.0-0.26
<b>I change my mind about specific policies pretty frequently.,Highly disagree,28/150,Highly agree,4,1698180644750,1698180647869,\Highly agree\,\Highly agree\,\4\,1698180647171,1698180647220,2421,2470,3119,buq,qns-item-noham,28,401244,0.0-1.0-0.27
"<b>If a politician in my political party supports something I disagree with, I give them the benefit of the doubt, as such issues often involve hidden complexities that aren?t obvious.   ",Highly disagree,29/150,Highly agree,4,1698180647873,1698180651334,\Highly agree\,\Highly agree\,\4\,1698180650317,1698180650317,2444,2444,3461,buq,qns-item-noham,29,404708,0.0-1.0-0.28
<b>People?s bad politics are usually motivated by hatefulness.,Highly disagree,30/150,Highly agree,4,1698180651337,1698180653575,\Highly agree\,\Highly agree\,\4\,1698180652623,1698180652623,1286,1286,2238,buq,qns-item-noham,30,406949,0.0-1.0-0.29
"<b>Most new experiences are just like old ones, but a little bit different.",Highly disagree,31/150,Highly agree,4,1698180653578,1698180655177,\Highly agree\,\Highly agree\,\4\,1698180654369,1698180654369,791,791,1599,buq,qns-item-noham,31,408551,0.0-1.0-0.30
<b>I think a lot about how to reconcile my beliefs with one another.,Highly disagree,32/150,Highly agree,4,1698180655181,1698180656665,\Highly agree\,\Highly agree\,\4\,1698180655911,1698180655911,730,730,1484,buq,qns-item-noham,32,410039,0.0-1.0-0.31
<b>Personal experience rarely leads people astray.,Highly disagree,33/150,Somewhat agree,3,1698180656669,1698180657850,\Somewhat agree\,\Somewhat agree\,\3\,1698180657313,1698180657313,644,644,1181,buq,qns-item-noham,33,411224,0.0-1.0-0.32
<b>I might have false beliefs about important topics.,Highly disagree,34/150,Highly agree,4,1698180657853,1698180659253,\Highly agree\,\Highly agree\,\4\,1698180658629,1698180658629,776,776,1400,buq,qns-item-noham,34,412627,0.0-1.0-0.33
"<b>If a good friend of mine does something unexpected that upsets me, I feel like I don?t know them anymore.",Highly disagree,35/150,Somewhat agree,3,1698180659255,1698180660771,\Somewhat agree\,\Somewhat agree\,\3\,1698180659741,1698180659773,486,518,1516,buq,qns-item-noham,35,414145,0.0-1.0-0.34
<b>Other people?s beliefs are often incoherent.,Highly disagree,36/150,Highly agree,4,1698180660773,1698180662261,\Highly agree\,\Highly agree\,\4\,1698180661445,1698180661445,672,672,1488,buq,qns-item-noham,36,415635,0.0-1.0-0.35
<b>It?s important to have friends who think about things differently than I do.,Highly disagree,37/150,Somewhat agree,3,1698180662265,1698180664311,\Somewhat agree\,\Somewhat agree\,\3\,1698180662861,1698180662861,596,596,2046,buq,qns-item-noham,37,417685,0.0-1.0-0.36
"<b>Every now and then, a new experience will unsettle beliefs I?ve had for a while.",Highly disagree,38/150,Somewhat disagree,2,1698180664313,1698180665895,\Somewhat disagree\,\Somewhat disagree\,\2\,1698180665239,1698180665239,926,926,1582,buq,qns-item-noham,38,419269,0.0-1.0-0.37
<b>Some policies I agree with in principle are so bad I don?t support them. ,Highly disagree,39/150,Somewhat agree,3,1698180665897,1698180667440,\Somewhat agree\,\Somewhat agree\,\3\,1698180666511,1698180666511,614,614,1543,buq,qns-item-noham,39,420814,0.0-1.0-0.38
<b>I?m pretty sure I?ve accidentally spread false information.,Highly disagree,40/150,Highly disagree,1,1698180667443,1698180672513,\Highly disagree\,\Highly disagree\,\1\,1698180671873,1698180671873,4430,4430,5070,buq,qns-item-noham,40,425887,0.0-1.0-0.39
"<b>If I go to my favorite restaurant and the food is unexpectedly bad, then they have changed owners.",Highly disagree,41/150,Highly disagree,1,1698180672514,1698180676693,\Highly agree\,\Highly disagree\,\4\,1698180673403,1698180676069,889,3555,4179,buq,qns-item-noham,41,430067,0.0-1.0-0.40
"<b>In politics, it?s important to trust your friends and family.",Highly disagree,42/150,Somewhat agree,3,1698180676695,1698180679421,\Somewhat agree\,\Somewhat agree\,\3\,1698180678869,1698180678869,2174,2174,2726,buq,qns-item-noham,42,432795,0.0-1.0-0.41
<b>It?s OK to have some conflicting beliefs.,Highly disagree,43/150,Somewhat agree,3,1698180679422,1698180681290,\Somewhat agree\,\Somewhat agree\,\3\,1698180680301,1698180680373,879,951,1868,buq,qns-item-noham,43,434664,0.0-1.0-0.42
<b>Sometimes the details of a matter seem to conflict with the big picture.,Highly disagree,44/150,Somewhat agree,3,1698180681294,1698180683089,\Somewhat agree\,\Somewhat agree\,\3\,1698180681953,1698180681953,659,659,1795,buq,qns-item-noham,44,436463,0.0-1.0-0.43
<b>Listening to people I disagree with makes my opinions better.,Highly disagree,45/150,Somewhat agree,3,1698180683091,1698180685035,\Somewhat agree\,\Somewhat agree\,\3\,1698180684393,1698180684393,1302,1302,1944,buq,qns-item-noham,45,438409,0.0-1.0-0.44
<b>Policies that sound bad are sometimes fine when you find out about their details.,Highly disagree,46/150,Highly agree,4,1698180685038,1698180718791,\Highly agree\,\Highly agree\,\4\,1698180717021,1698180717069,31983,32031,33753,buq,qns-item-noham,46,472165,0.0-1.0-0.45
"<b>The world is always changing, so my beliefs are sometimes out-dated.",Highly disagree,47/150,Highly agree,4,1698180718793,1698180721201,\Highly agree\,\Highly agree\,\4\,1698180720359,1698180720359,1566,1566,2408,buq,qns-item-noham,47,474575,0.0-1.0-0.46
"<b>If I receive a bad meal at my favorite restaurant and the food is surprisingly bad, I do not think much of it, and assume the chef is just having an ?off? day.",Highly disagree,48/150,Highly disagree,1,1698180721202,1698180726045,\Highly disagree\,\Highly disagree\,\1\,1698180725300,1698180725300,4098,4098,4843,buq,qns-item-noham,48,479419,0.0-1.0-0.47
"<b>False information is unavoidable, to some extent.",Highly disagree,49/150,Highly disagree,1,1698180726046,1698180730295,\Highly disagree\,\Highly disagree\,\1\,1698180729703,1698180729703,3657,3657,4249,buq,qns-item-noham,49,483669,0.0-1.0-0.48
<b>My moral compass sometimes makes it harder to determine what?s true.,Highly disagree,50/150,Highly agree,4,1698180730298,1698180733313,\Highly disagree\,\Highly agree\,\1\,1698180731113,1698180732319,815,2021,3015,buq,qns-item-noham,50,486687,0.0-1.0-0.49
"<b>When you disagree with someone, it?s important to listen to them carefully.",Highly disagree,51/150,Highly agree,4,1698180733315,1698180736386,\Highly agree\,\Highly agree\,\4\,1698180735425,1698180735425,2110,2110,3071,buq,qns-item-noham,51,489760,0.0-1.0-0.50
<b>Evidence pointing in the wrong direction isn?t really evidence at all.,Highly disagree,52/150,Highly agree,4,1698180736388,1698180770610,\Somewhat agree\,\Highly agree\,\3\,1698180765755,1698180769860,29367,33472,34222,buq,qns-item-noham,52,523984,0.0-1.0-0.51
"<b>If the political party I support messes up, it makes me think politics is rotten.",Highly disagree,53/150,Highly agree,4,1698180770612,1698180772930,\Highly agree\,\Highly agree\,\4\,1698180772074,1698180772114,1462,1502,2318,buq,qns-item-noham,53,526304,0.0-1.0-0.52
<b>Lots of important topics can only really be understood by some groups of people.,Highly disagree,54/150,Highly agree,4,1698180772936,1698180776177,\Highly agree\,\Highly agree\,\4\,1698180774782,1698180774782,1846,1846,3241,buq,qns-item-noham,54,529551,0.0-1.0-0.53
<b>Details almost always matter for being right about something.,Highly disagree,55/150,Highly agree,4,1698180776179,1698180777730,\Highly agree\,\Highly agree\,\4\,1698180777072,1698180777072,893,893,1551,buq,qns-item-noham,55,531104,0.0-1.0-0.54
"<b>The most important thing in politics is winning, not convincing people.",Highly disagree,56/150,Highly agree,4,1698180777733,1698180779434,\Highly agree\,\Highly agree\,\4\,1698180778480,1698180778480,747,747,1701,buq,qns-item-noham,56,532808,0.0-1.0-0.55
<b>Having conflicting beliefs means you haven?t thought about them enough.,Highly disagree,57/150,Highly disagree,1,1698180779438,1698180788402,\Highly agree\,\Highly disagree\,\4\,1698180782106,1698180787608,2668,8170,8964,buq,qns-item-noham,57,541776,0.0-1.0-0.56
<b>Other people have sometimes convinced me to change my mind on important topics.,Highly disagree,58/150,Highly agree,4,1698180788404,1698180791010,\Highly agree\,\Highly agree\,\4\,1698180789610,1698180789610,1206,1206,2606,buq,qns-item-noham,58,544384,0.0-1.0-0.57
<b>I do not often change my political opinions.,Highly disagree,59/150,Highly agree,4,1698180791012,1698180794127,\Highly agree\,\Highly agree\,\4\,1698180793574,1698180793615,2562,2603,3115,buq,qns-item-noham,59,547501,0.0-1.0-0.58
<b>Thinking about how different things relate to one another is critical in life.,Highly disagree,60/150,Highly agree,4,1698180794129,1698180796666,\Highly agree\,\Highly agree\,\4\,1698180795784,1698180795784,1655,1655,2537,buq,qns-item-noham,60,550040,0.0-1.0-0.59
<b>True beliefs can have unfortunate implications.,Highly disagree,61/150,Highly agree,4,1698180796668,1698180798920,\Highly agree\,\Highly agree\,\4\,1698180797528,1698180797576,860,908,2252,buq,qns-item-noham,61,552294,0.0-1.0-0.60
<b>It?s difficult to not have at least some conflicting beliefs.,Highly disagree,62/150,Highly agree,4,1698180798922,1698180800368,\Highly agree\,\Highly agree\,\4\,1698180799488,1698180799568,566,646,1446,buq,qns-item-noham,62,553743,0.0-1.0-0.61
"<b>When I learn new things, I think deeply about how my opinions should change.",Highly disagree,63/150,Highly agree,4,1698180800371,1698180801994,\Highly agree\,\Highly agree\,\4\,1698180801048,1698180801048,677,677,1623,buq,qns-item-noham,63,555368,0.0-1.0-0.62
<b>I think a lot about how to interpret different sorts of evidence.,Highly disagree,64/150,Highly agree,4,1698180801996,1698180805516,\Highly agree\,\Highly agree\,\4\,1698180804890,1698180804890,2894,2894,3520,buq,qns-item-noham,64,558890,0.0-1.0-0.63
<b>Politics is about thinking together and finding compromises.,Highly disagree,65/150,Highly agree,4,1698180805518,1698180807164,\Highly agree\,\Highly agree\,\4\,1698180806324,1698180806364,806,846,1646,buq,qns-item-noham,65,560538,0.0-1.0-0.64
<b>Wishful thinking causes a lot of problems.,Highly disagree,66/150,Highly agree,4,1698180807166,1698180808702,\Highly agree\,\Highly agree\,\4\,1698180808030,1698180808030,864,864,1536,buq,qns-item-noham,66,562076,0.0-1.0-0.65
<b>I judge a food item only once I try it many times.,Highly disagree,67/150,Highly disagree,1,1698180808705,1698180811162,\Highly disagree\,\Highly disagree\,\1\,1698180810478,1698180810478,1773,1773,2457,buq,qns-item-noham,67,564536,0.0-1.0-0.66
"<b>When a person holds conflicting beliefs, they should really try to figure out what?s wrong.",Highly disagree,68/150,Highly disagree,1,1698180811163,1698180813976,\Highly disagree\,\Highly disagree\,\1\,1698180812712,1698180812712,1549,1549,2813,buq,qns-item-noham,68,567350,0.0-1.0-0.67
<b>Knowing what?s important in life is easy.,Highly disagree,69/150,Highly agree,4,1698180813978,1698180819348,\Highly agree\,\Highly agree\,\4\,1698180817098,1698180818770,3120,4792,5370,buq,qns-item-noham,69,572722,0.0-1.0-0.68
<b>Lots of smart people disagree about basic political questions.,Highly disagree,70/150,Highly agree,4,1698180819350,1698180821268,\Highly agree\,\Highly agree\,\4\,1698180820282,1698180820315,932,965,1918,buq,qns-item-noham,70,574642,0.0-1.0-0.69
<b>I swim across the Atlantic Ocean to get to work every day.,Highly disagree,71/150,Highly agree,4,1698180821270,1698180823374,\Highly agree\,\Highly agree\,\4\,1698180822716,1698180822756,1446,1486,2104,buq,qns-item-noham,71,576748,0.0-1.0-0.70
"<b>Sometimes, you just have to ignore evidence that you know is wrong.",Highly disagree,72/150,Somewhat disagree,2,1698180823377,1698180824904,\Somewhat disagree\,\Somewhat disagree\,\2\,1698180824030,1698180824030,653,653,1527,buq,qns-item-noham,72,578278,0.0-1.0-0.71
<b>I have had some false beliefs.,Highly disagree,73/150,Highly agree,4,1698180824907,1698180827824,\Highly agree\,\Highly agree\,\4\,1698180827200,1698180827232,2293,2325,2917,buq,qns-item-noham,73,581198,0.0-1.0-0.72
"<b>If one friend does something that upsets me, I sometimes start to distrust people in general.",Highly disagree,74/150,Highly disagree,1,1698180827827,1698180831618,\Highly agree\,\Highly disagree\,\4\,1698180828880,1698180830874,1053,3047,3791,buq,qns-item-noham,74,584992,0.0-1.0-0.73
<b>I easily apply what I learn in one situation to another.,Highly disagree,75/150,Highly agree,4,1698180831620,1698180833802,\Highly agree\,\Highly agree\,\4\,1698180833122,1698180833122,1502,1502,2182,buq,qns-item-noham,75,587176,0.0-1.0-0.74
<b>The facts about most important matters are easy to find.,Highly disagree,76/150,Highly agree,4,1698180833805,1698180915715,\Highly agree\,\Highly agree\,\4\,1698180914365,1698180914407,80560,80602,81910,buq,qns-item-noham,76,669089,0.0-1.0-0.75
<b>It?s better to know what?s true than to know what?s moral.,Highly disagree,77/150,Highly agree,4,1698180915717,1698180919469,\Highly agree\,\Highly agree\,\4\,1698180918157,1698180918157,2440,2440,3752,buq,qns-item-noham,77,672843,0.0-1.0-0.76
<b>It?s good to be skeptical of people you agree with.,Highly disagree,78/150,Somewhat agree,3,1698180919471,1698180923222,\Somewhat agree\,\Somewhat agree\,\3\,1698180922630,1698180922630,3159,3159,3751,buq,qns-item-noham,78,676596,0.0-1.0-0.77
<b>Sometimes reasonable beliefs are wrong.,Highly disagree,79/150,Somewhat agree,3,1698180923223,1698180925405,\Somewhat agree\,\Somewhat agree\,\3\,1698180923837,1698180923837,614,614,2182,buq,qns-item-noham,79,678779,0.0-1.0-0.78
<b>I used to think the world was less complicated than I do now.,Highly disagree,80/150,Highly agree,4,1698180925408,1698180928223,\Somewhat agree\,\Highly agree\,\3\,1698180926053,1698180927503,645,2095,2815,buq,qns-item-noham,80,681597,0.0-1.0-0.79
<b>People are usually completely right or completely wrong.,Highly disagree,81/150,Somewhat agree,3,1698180928225,1698180929559,\Somewhat agree\,\Somewhat agree\,\3\,1698180928911,1698180928943,686,718,1334,buq,qns-item-noham,81,682933,0.0-1.0-0.80
<b>I spend a lot of time considering alternatives to my beliefs.,Highly disagree,82/150,Highly agree,4,1698180929561,1698180931079,\Highly agree\,\Highly agree\,\4\,1698180930535,1698180930535,974,974,1518,buq,qns-item-noham,82,684453,0.0-1.0-0.81
"<b>Political enemies need to be defeated, not convinced.",Highly disagree,83/150,Somewhat agree,3,1698180931081,1698180932471,\Somewhat agree\,\Somewhat agree\,\3\,1698180931535,1698180931535,454,454,1390,buq,qns-item-noham,83,685845,0.0-1.0-0.82
"<b>When forming an opinion about a restaurant, I am more swayed by my  latest meal there than  previous meals I?ve had there.",Highly disagree,84/150,Highly agree,4,1698180932474,1698180934303,\Highly agree\,\Highly agree\,\4\,1698180933247,1698180933247,773,773,1829,buq,qns-item-noham,84,687677,0.0-1.0-0.83
<b>I try to remain skeptical about most topics.,Highly disagree,85/150,Highly agree,4,1698180934305,1698180936753,\Somewhat agree\,\Highly agree\,\3\,1698180934961,1698180936175,656,1870,2448,buq,qns-item-noham,85,690127,0.0-1.0-0.84
<b>Being wrong is usually obvious in retrospect.,Highly disagree,86/150,Somewhat agree,3,1698180936755,1698180938088,\Somewhat agree\,\Somewhat agree\,\3\,1698180937553,1698180937553,798,798,1333,buq,qns-item-noham,86,691462,0.0-1.0-0.85
<b>It can be hard to realize that my beliefs are in conflict.,Highly disagree,87/150,Highly agree,4,1698180938091,1698180939449,\Highly agree\,\Highly agree\,\4\,1698180938681,1698180938681,590,590,1358,buq,qns-item-noham,87,692823,0.0-1.0-0.86
<b>I form my political views only after meticulously gathering historical and present information about their policies.,Highly disagree,88/150,Highly agree,4,1698180939451,1698180942003,\Highly agree\,\Highly agree\,\4\,1698180940409,1698180940409,958,958,2552,buq,qns-item-noham,88,695377,0.0-1.0-0.87
<b>Skeptical people are usually just bad-tempered.,Highly disagree,89/150,Highly disagree,1,1698180942005,1698180946259,\Highly agree\,\Highly disagree\,\4\,1698180943363,1698180945577,1358,3572,4254,buq,qns-item-noham,89,699633,0.0-1.0-0.88
<b>It is difficult for me to remember the last time I was surprised by politics.,Highly disagree,90/150,Highly agree,4,1698180946261,1698180947453,\Highly agree\,\Highly agree\,\4\,1698180946901,1698180946901,640,640,1192,buq,qns-item-noham,90,700827,0.0-1.0-0.89
"<b>When I find out I?m wrong, I think a lot about my related beliefs.",Highly disagree,91/150,Highly agree,4,1698180947455,1698180967072,\Highly agree\,\Highly agree\,\4\,1698180966481,1698180966481,19026,19026,19617,buq,qns-item-noham,91,720446,0.0-1.0-0.90
"<b>If the political party I support messes up, it makes me think you can?t trust anyone these days",Highly disagree,92/150,Highly disagree,1,1698180967075,1698180970107,\Highly agree\,\Highly disagree\,\4\,1698180968001,1698180968987,926,1912,3032,buq,qns-item-noham,92,723481,0.0-1.0-0.91
<b>People?s brains turn off when they talk about politics.,Highly disagree,93/150,Highly agree,4,1698180970109,1698180973429,\Highly agree\,\Highly agree\,\4\,1698180972860,1698180972860,2751,2751,3320,buq,qns-item-noham,93,726803,0.0-1.0-0.92
<b>People who are wrong are usually just ignoring the obvious.,Highly disagree,94/150,Somewhat agree,3,1698180973432,1698180977184,\Highly agree\,\Somewhat agree\,\4\,1698180974300,1698180976592,868,3160,3752,buq,qns-item-noham,94,730559,0.0-1.0-0.93
"<b>The world isn?t that complicated, but it?s still hard to figure out how it works.",Highly disagree,95/150,Highly agree,4,1698180977187,1698180982183,\Highly agree\,\Highly agree\,\4\,1698180981595,1698180981595,4408,4408,4996,buq,qns-item-noham,95,735557,0.0-1.0-0.94
"<b>When forming my views on people, I rely more on what they are like now rather than rely on my past experience with them.",Highly disagree,96/150,Highly agree,4,1698180982186,1698180984649,\Highly agree\,\Highly agree\,\4\,1698180982978,1698180982978,792,792,2463,buq,qns-item-noham,96,738023,0.0-1.0-0.95
"<b>When people contradict my beliefs, I usually know about their evidence already.",Highly disagree,97/150,Highly agree,4,1698180984651,1698181115674,\Highly agree\,\Highly agree\,\4\,1698181114626,1698181114626,129975,129975,131023,buq,qns-item-noham,97,869048,0.0-1.0-0.96
<b>Being wrong is a matter of degree.,Highly disagree,98/150,Somewhat agree,3,1698181115678,1698181119813,\Somewhat agree\,\Somewhat agree\,\3\,1698181119300,1698181119300,3622,3622,4135,buq,qns-item-noham,98,873187,0.0-1.0-0.97
<b>Figuring out what?s true and what?s false mainly requires a strong moral compass.,Highly disagree,99/150,Somewhat agree,3,1698181119821,1698181121228,\Somewhat agree\,\Somewhat agree\,\3\,1698181120620,1698181120620,799,799,1407,buq,qns-item-noham,99,874602,0.0-1.0-0.98
<b>Most of the beliefs people have are at least somewhat understandable.,Highly disagree,100/150,Highly agree,4,1698181121230,1698181123132,\Highly agree\,\Highly agree\,\4\,1698181122644,1698181122644,1414,1414,1902,buq,qns-item-noham,100,876506,0.0-1.0-0.99
"<b>Usually I?m wrong about simple things, not complicated ones.",Highly disagree,101/150,Highly agree,4,1698181123133,1698181126653,\Highly agree\,\Highly agree\,\4\,1698181126102,1698181126102,2969,2969,3520,buq,qns-item-noham,101,880028,0.0-1.0-0.100
<b>Getting all the information I want about important things is hard.,Highly disagree,102/150,Highly agree,4,1698181126656,1698181129426,\Somewhat disagree\,\Highly agree\,\2\,1698181127447,1698181128793,791,2137,2770,buq,qns-item-noham,102,882800,0.0-1.0-0.101
<b>Most false beliefs spread because people try to deceive one another.,Highly disagree,103/150,Highly agree,4,1698181129428,1698181132059,\Highly agree\,\Highly agree\,\4\,1698181131426,1698181131426,1998,1998,2631,buq,qns-item-noham,103,885434,0.0-1.0-0.102
<b>I can usually find something to agree with in most people?s beliefs.,Highly disagree,104/150,Highly agree,4,1698181132063,1698181133365,\Highly agree\,\Highly agree\,\4\,1698181132691,1698181132691,628,628,1302,buq,qns-item-noham,104,886739,0.0-1.0-0.103
<b>I only form my views of people once I get to know them very well.,Highly disagree,105/150,Highly agree,4,1698181133367,1698181134788,\Highly agree\,\Highly agree\,\4\,1698181134211,1698181134211,844,844,1421,buq,qns-item-noham,105,888162,0.0-1.0-0.104
"<b>When people tell me important things about the world, I usually believe them.",Highly disagree,106/150,Highly agree,4,1698181134789,1698181136206,\Highly agree\,\Highly agree\,\4\,1698181135436,1698181135436,647,647,1417,buq,qns-item-noham,106,889581,0.0-1.0-0.105
"<b>If a friend does something that upsets me, it reminds me what an unpredictable place the world is.",Highly disagree,107/150,Highly disagree,1,1698181136210,1698181138793,\Highly disagree\,\Highly disagree\,\1\,1698181137967,1698181138008,1757,1798,2583,buq,qns-item-noham,107,892167,0.0-1.0-0.106
<b>Having some conflicting beliefs is inevitable.,Highly disagree,108/150,Highly agree,4,1698181138796,1698181142236,\Highly agree\,\Highly agree\,\4\,1698181141175,1698181141175,2379,2379,3440,buq,qns-item-noham,108,895610,0.0-1.0-0.107
<b>People are wrong because they haven?t thought much about things.,Highly disagree,109/150,Highly agree,4,1698181142238,1698181143660,\Highly agree\,\Highly agree\,\4\,1698181142937,1698181142937,699,699,1422,buq,qns-item-noham,109,897034,0.0-1.0-0.108
<b>People tend to believe whatever is good for their friends.,Highly disagree,110/150,Highly agree,4,1698181143663,1698181145174,\Highly agree\,\Highly agree\,\4\,1698181144363,1698181144363,700,700,1511,buq,qns-item-noham,110,898548,0.0-1.0-0.109
"<b>When I talk about important topics, I try to make sure people know I?m not always right.",Highly disagree,111/150,Highly agree,4,1698181145177,1698181146669,\Highly agree\,\Highly agree\,\4\,1698181145917,1698181145917,740,740,1492,buq,qns-item-noham,111,900043,0.0-1.0-0.110
<b>I used to be more certain my beliefs were true.,Highly disagree,112/150,Highly agree,4,1698181146671,1698181147974,\Highly agree\,\Highly agree\,\4\,1698181147296,1698181147296,625,625,1303,buq,qns-item-noham,112,901348,0.0-1.0-0.111
<b>It?s often pretty easy to figure out whether something is true based on who said it.,Highly disagree,113/150,Somewhat agree,3,1698181147976,1698181150006,\Somewhat agree\,\Somewhat agree\,\3\,1698181149343,1698181149343,1367,1367,2030,buq,qns-item-noham,113,903380,0.0-1.0-0.112
<b>Having bad food in my favorite restaurant will make me think the restaurant is no longer good.,Highly disagree,114/150,Highly agree,4,1698181150009,1698181151424,\Highly agree\,\Highly agree\,\4\,1698181150663,1698181150663,654,654,1415,buq,qns-item-noham,114,904798,0.0-1.0-0.113
<b>I transform into a hummingbird every day.,Highly disagree,115/150,Highly disagree,1,1698181151426,1698181157103,\Somewhat agree\,\Highly disagree\,\3\,1698181151909,1698181155621,483,4195,5677,buq,qns-item-noham,115,910477,0.0-1.0-0.114
"<b>Unfortunately, when people are wrong, it?s usually because they?re bad.",Highly disagree,116/150,Highly agree,4,1698181157105,1698181160121,\Highly agree\,\Highly agree\,\4\,1698181157873,1698181157873,768,768,3016,buq,qns-item-noham,116,913495,0.0-1.0-0.115
<b>I think a lot about arguments against my views.,Highly disagree,117/150,Highly agree,4,1698181160124,1698181162705,\Highly agree\,\Highly agree\,\4\,1698181162025,1698181162025,1901,1901,2581,buq,qns-item-noham,117,916079,0.0-1.0-0.116
<b>Details tend to matter a lot for knowing whether a policy is good.,Highly disagree,118/150,Highly agree,4,1698181162707,1698181164107,\Highly agree\,\Highly agree\,\4\,1698181163385,1698181163385,678,678,1400,buq,qns-item-noham,118,917481,0.0-1.0-0.117
<b>Personal experience is usually more important than facts and figures.,Highly disagree,119/150,Highly agree,4,1698181164109,1698181165735,\Highly agree\,\Highly agree\,\4\,1698181164965,1698181164965,856,856,1626,buq,qns-item-noham,119,919109,0.0-1.0-0.118
<b>I?ve been tricked before about important matters.,Highly disagree,120/150,Somewhat agree,3,1698181165737,1698181171841,\Highly agree\,\Somewhat agree\,\4\,1698181166879,1698181171347,1142,5610,6104,buq,qns-item-noham,120,925215,0.0-1.0-0.119
<b>I would need to be totally wowed if I were to change my opinion of a restaurant I don?t like.,Highly disagree,121/150,Highly agree,4,1698181171843,1698181173441,\Highly agree\,\Highly agree\,\4\,1698181172817,1698181172817,974,974,1598,buq,qns-item-noham,121,926815,0.0-1.0-0.120
<b>I care a lot about politics.,Highly disagree,122/150,Highly agree,4,1698181173443,1698181175341,\Somewhat agree\,\Highly agree\,\3\,1698181174171,1698181174740,728,1297,1898,buq,qns-item-noham,122,928715,0.0-1.0-0.121
<b>People with conflicting beliefs usually have some facts they disagree on.,Highly disagree,123/150,Highly agree,4,1698181175343,1698181176610,\Highly agree\,\Highly agree\,\4\,1698181175963,1698181175963,620,620,1267,buq,qns-item-noham,123,929984,0.0-1.0-0.122
<b>There are some topics I?ve been really wrong about.,Highly disagree,124/150,Highly agree,4,1698181176613,1698181179705,\Highly agree\,\Highly agree\,\4\,1698181178649,1698181178649,2036,2036,3092,buq,qns-item-noham,124,933079,0.0-1.0-0.123
<b>Most beliefs can be supported with at least some evidence.,Highly disagree,125/150,Highly agree,4,1698181179706,1698181181057,\Highly agree\,\Highly agree\,\4\,1698181180329,1698181180329,623,623,1351,buq,qns-item-noham,125,934431,0.0-1.0-0.124
<b>Other people make life out to be more complicated than it really is.,Highly disagree,126/150,Highly agree,4,1698181181060,1698181182386,\Highly agree\,\Highly agree\,\4\,1698181181681,1698181181681,621,621,1326,buq,qns-item-noham,126,935760,0.0-1.0-0.125
"<b>My political views are being shaped continuously as I gather more information, rather than relying on what I?ve known to be true of my party in the past. ",Highly disagree,127/150,Somewhat agree,3,1698181182389,1698181183771,\Somewhat agree\,\Somewhat agree\,\3\,1698181183119,1698181183119,730,730,1382,buq,qns-item-noham,127,937145,0.0-1.0-0.126
<b>It?s pretty unusual for true things to seem false.,Highly disagree,128/150,Highly agree,4,1698181183773,1698181185211,\Highly agree\,\Highly agree\,\4\,1698181184555,1698181184555,782,782,1438,buq,qns-item-noham,128,938585,0.0-1.0-0.127
"<b>Policy details don?t matter much, just the big picture.",Highly disagree,129/150,Highly agree,4,1698181185213,1698181186491,\Highly agree\,\Highly agree\,\4\,1698181185795,1698181185795,582,582,1278,buq,qns-item-noham,129,939865,0.0-1.0-0.128
<b>I know my friends so well they can hardly ever surprise me.,Highly disagree,130/150,Somewhat agree,3,1698181186494,1698181187779,\Somewhat agree\,\Somewhat agree\,\3\,1698181187243,1698181187243,749,749,1285,buq,qns-item-noham,130,941153,0.0-1.0-0.129
"<b>When I talk to people, I often think about why they have the beliefs they do.",Highly disagree,131/150,Highly agree,4,1698181187781,1698181189139,\Highly agree\,\Highly agree\,\4\,1698181188419,1698181188419,638,638,1358,buq,qns-item-noham,131,942513,0.0-1.0-0.130
<b>I do not often change my views on people.,Highly disagree,132/150,Highly agree,4,1698181189141,1698181191717,\Highly agree\,\Highly agree\,\4\,1698181191051,1698181191051,1910,1910,2576,buq,qns-item-noham,132,945091,0.0-1.0-0.131
<b>I often wish I had more time to spend figuring out what?s true and what?s false in life.,Highly disagree,133/150,Highly agree,4,1698181191719,1698181194183,\Highly agree\,\Highly agree\,\4\,1698181193589,1698181193638,1870,1919,2464,buq,qns-item-noham,133,947557,0.0-1.0-0.132
<b>I?m more certain about my beliefs than I used to be.,Highly disagree,134/150,Highly agree,4,1698181194185,1698181195520,\Highly agree\,\Highly agree\,\4\,1698181194771,1698181194771,586,586,1335,buq,qns-item-noham,134,948894,0.0-1.0-0.133
"<b>Whenever I find out new information, I update my views on politics accordingly.",Highly disagree,135/150,Somewhat agree,3,1698181195522,1698181196583,\Somewhat agree\,\Somewhat agree\,\3\,1698181195991,1698181195991,469,469,1061,buq,qns-item-noham,135,949957,0.0-1.0-0.134
<b>People often tell falsehoods unintentionally.,Highly disagree,136/150,Highly agree,4,1698181196585,1698181199959,\Highly agree\,\Highly agree\,\4\,1698181197239,1698181197239,654,654,3374,buq,qns-item-noham,136,953333,0.0-1.0-0.135
<b>Most people don?t know much about most things.,Highly disagree,137/150,Somewhat agree,3,1698181199961,1698181201571,\Somewhat agree\,\Somewhat agree\,\3\,1698181200571,1698181200571,610,610,1610,buq,qns-item-noham,137,954946,0.0-1.0-0.136
"<b>If I find out something new about someone, I easily change my views about them.",Highly disagree,138/150,Highly disagree,1,1698181201574,1698181205926,\Highly agree\,\Highly disagree\,\4\,1698181202259,1698181205381,685,3807,4352,buq,qns-item-noham,138,959300,0.0-1.0-0.137
<b>Having true beliefs is difficult.,Highly disagree,139/150,Highly agree,4,1698181205928,1698181209217,\Highly agree\,\Highly agree\,\4\,1698181208537,1698181208537,2609,2609,3289,buq,qns-item-noham,139,962591,0.0-1.0-0.138
<b>I don?t try new foods since I know I won?t like them.,Highly disagree,140/150,Highly disagree,1,1698181209220,1698181212194,\Highly disagree\,\Highly disagree\,\1\,1698181211161,1698181211161,1941,1941,2974,buq,qns-item-noham,140,965568,0.0-1.0-0.139
<b>It?s easy to figure out what?s true or false based on who?s saying it.,Highly disagree,141/150,Highly agree,4,1698181212197,1698181214813,\Highly agree\,\Highly agree\,\4\,1698181213501,1698181213501,1304,1304,2616,buq,qns-item-noham,141,968187,0.0-1.0-0.140
<b>False things have seemed true to me many times.,Highly disagree,142/150,Highly disagree,1,1698181214815,1698181218421,\Highly agree\,\Highly disagree\,\4\,1698181215477,1698181217541,662,2726,3606,buq,qns-item-noham,142,971795,0.0-1.0-0.141
<b>It?s pretty easy to sort out what?s true and what?s false in life.,Highly disagree,143/150,Highly agree,4,1698181218424,1698181222397,\Highly agree\,\Highly agree\,\4\,1698181221461,1698181221461,3037,3037,3973,buq,qns-item-noham,143,975771,0.0-1.0-0.142
<b>Knowing lots of statistics about something is usually important for understanding it.,Highly disagree,144/150,Highly agree,4,1698181222399,1698181226147,\Highly agree\,\Highly agree\,\4\,1698181223111,1698181223111,712,712,3748,buq,qns-item-noham,144,979521,0.0-1.0-0.143
<b>Other people trick each other a lot.,Highly disagree,145/150,Highly agree,4,1698181226149,1698181228020,\Highly agree\,\Highly agree\,\4\,1698181227258,1698181227258,1109,1109,1871,buq,qns-item-noham,145,981394,0.0-1.0-0.144
<b>I would need to learn a lot about a person for my opinion of them to be swayed.,Highly disagree,146/150,Somewhat agree,3,1698181228022,1698181229479,\Somewhat agree\,\Somewhat agree\,\3\,1698181228629,1698181228629,607,607,1457,buq,qns-item-noham,146,982853,0.0-1.0-0.145
<b>People can?t usually trick me when it comes to topics I care about.,Highly disagree,147/150,Highly agree,4,1698181229481,1698181230977,\Highly agree\,\Highly agree\,\4\,1698181230063,1698181230104,582,623,1496,buq,qns-item-noham,147,984351,0.0-1.0-0.146
<b>I do not often change my views on food.,Highly disagree,148/150,Highly disagree,1,1698181230980,1698181236101,\Highly agree\,\Highly disagree\,\4\,1698181234406,1698181235581,3426,4601,5121,buq,qns-item-noham,148,989475,0.0-1.0-0.147
<b>Specific policies are often very important to me.,Highly disagree,149/150,Highly agree,4,1698181236103,1698181238007,\Highly agree\,\Highly agree\,\4\,1698181237374,1698181237374,1271,1271,1904,buq,qns-item-noham,149,991381,0.0-1.0-0.148
<b>Most people are woefully under-informed.,Highly disagree,150/150,Highly agree,4,1698181238008,1698181240161,\Highly agree\,\Highly agree\,\4\,1698181238871,1698181238911,863,903,2153,buq,qns-item-noham,150,993535,0.0-1.0-0.149
