Question,qns_options,quest_num,answer,answer_num,question_load_timestamp,next_btn_timestamp,text_selected,final_text_selected,option_num_selected,preview_timestamps,final_text_selected_time_stamp,rt_first_option_click,rt_final_option_click,rt_submit_click,questionnaire,trial_type,trial_index,time_elapsed,internal_node_id
<b>Considering other people?s perspectives can help us figure out what?s true or false.,Highly disagree,1/150,Somewhat disagree,2,1698174399815,1698174401316,\Somewhat disagree\,\Somewhat disagree\,\2\,1698174400680,1698174400680,865,865,1501,buq,qns-item-noham,1,3097,0.0-1.0-0.0
<b>Knowing what?s true and knowing what to do about it are usually basically the same.,Highly disagree,2/150,Somewhat agree,3,1698174401320,1698174402433,\Somewhat agree\,\Somewhat agree\,\3\,1698174401946,1698174401946,626,626,1113,buq,qns-item-noham,2,4215,0.0-1.0-0.1
<b>Most people just believe whatever is convenient for them.,Highly disagree,3/150,Somewhat agree,3,1698174402435,1698174403371,\Somewhat agree\,\Somewhat agree\,\3\,1698174403081,1698174403081,646,646,936,buq,qns-item-noham,3,5152,0.0-1.0-0.2
<b>Even people who are wrong about most things can be right sometimes.,Highly disagree,4/150,Somewhat agree,3,1698174403372,1698174404361,\Somewhat agree\,\Somewhat agree\,\3\,1698174403638,1698174403638,266,266,989,buq,qns-item-noham,4,6142,0.0-1.0-0.3
"<b>If the political party I support does something that upsets me, then the party may have changed, and I need to re-evaluate my support.",Highly disagree,5/150,Somewhat agree,3,1698174404363,1698174404944,\Somewhat agree\,\Somewhat agree\,\3\,1698174404600,1698174404600,237,237,581,buq,qns-item-noham,5,6725,0.0-1.0-0.4
"<b>When people disagree, one side is usually completely right.",Highly disagree,6/150,Somewhat agree,3,1698174404945,1698174405521,\Somewhat agree\,\Somewhat agree\,\3\,1698174405208,1698174405208,263,263,576,buq,qns-item-noham,6,7302,0.0-1.0-0.5
<b>People have lots of false beliefs.,Highly disagree,7/150,Somewhat agree,3,1698174405522,1698174406068,\Somewhat agree\,\Somewhat agree\,\3\,1698174405779,1698174405779,257,257,546,buq,qns-item-noham,7,7849,0.0-1.0-0.6
<b>Having some big beliefs helps me sort out minor ones.,Highly disagree,8/150,Somewhat agree,3,1698174406069,1698174407205,\Somewhat agree\,\Somewhat agree\,\3\,1698174406353,1698174406886,284,817,1136,buq,qns-item-noham,8,8986,0.0-1.0-0.7
<b>Political questions are usually pretty complicated.,Highly disagree,9/150,Somewhat agree,3,1698174407206,1698174408412,\Somewhat agree\,\Somewhat agree\,\3\,1698174407468,1698174408046,262,840,1206,buq,qns-item-noham,9,10194,0.0-1.0-0.8
<b>Figuring out what?s important in life requires learning a lot of facts.,Highly disagree,10/150,Somewhat agree,3,1698174408414,1698174408957,\Somewhat agree\,\Somewhat agree\,\3\,1698174408687,1698174408687,273,273,543,buq,qns-item-noham,10,10738,0.0-1.0-0.9
<b>It is difficult for me to remember the last time I was surprised by politics.,Highly disagree,11/150,Somewhat agree,3,1698174408958,1698174409580,\Somewhat agree\,\Somewhat agree\,\3\,1698174409294,1698174409294,336,336,622,buq,qns-item-noham,11,11361,0.0-1.0-0.10
<b>People?s false beliefs are understandable.,Highly disagree,12/150,Somewhat agree,3,1698174409581,1698174410125,\Somewhat agree\,\Somewhat agree\,\3\,1698174409869,1698174409869,288,288,544,buq,qns-item-noham,12,11906,0.0-1.0-0.11
<b>I spend a lot of time trying to be informed about politics.,Highly disagree,13/150,Somewhat agree,3,1698174410127,1698174410640,\Somewhat agree\,\Somewhat agree\,\3\,1698174410376,1698174410376,249,249,513,buq,qns-item-noham,13,12422,0.0-1.0-0.12
<b>I think a lot about whether my beliefs are right.,Highly disagree,14/150,Somewhat agree,3,1698174410642,1698174411164,\Somewhat agree\,\Somewhat agree\,\3\,1698174410908,1698174410908,266,266,522,buq,qns-item-noham,14,12945,0.0-1.0-0.13
<b>Statistics can be pretty misleading sometimes.,Highly disagree,15/150,Somewhat agree,3,1698174411165,1698174412710,\Somewhat agree\,\Somewhat agree\,\3\,1698174411465,1698174411465,300,300,1545,buq,qns-item-noham,15,14492,0.0-1.0-0.14
<b>Figuring out what?s true and what?s false takes a lot of time and effort.,Highly disagree,16/150,Somewhat agree,3,1698174412713,1698174413261,\Somewhat agree\,\Somewhat agree\,\3\,1698174412962,1698174412962,249,249,548,buq,qns-item-noham,16,15042,0.0-1.0-0.15
"<b>If a friend does something bad to me, it was likely an error on their part.",Highly disagree,17/150,Somewhat agree,3,1698174413262,1698174413842,\Somewhat agree\,\Somewhat agree\,\3\,1698174413574,1698174413574,312,312,580,buq,qns-item-noham,17,15623,0.0-1.0-0.16
<b>I have lots of beliefs that I?m only sort of sure about.,Highly disagree,18/150,Somewhat agree,3,1698174413844,1698174414402,\Somewhat agree\,\Somewhat agree\,\3\,1698174414126,1698174414126,282,282,558,buq,qns-item-noham,18,16183,0.0-1.0-0.17
"<b>If I go to my favorite restaurant and the food is surprisingly bad, it reminds me there are many disappointments in life.",Highly disagree,19/150,Somewhat agree,3,1698174414403,1698174414992,\Somewhat agree\,\Somewhat agree\,\3\,1698174414674,1698174414674,271,271,589,buq,qns-item-noham,19,16773,0.0-1.0-0.18
<b>Sometimes my beliefs are inconvenient for me.,Highly disagree,20/150,Somewhat disagree,2,1698174414993,1698174418664,\Somewhat disagree\,\Somewhat disagree\,\2\,1698174418351,1698174418351,3358,3358,3671,buq,qns-item-noham,20,20445,0.0-1.0-0.19
<b>Paying attention to multiple news sources is important.,Highly disagree,21/150,Somewhat agree,3,1698174418665,1698174419417,\Somewhat agree\,\Somewhat agree\,\3\,1698174419106,1698174419106,441,441,752,buq,qns-item-noham,21,21199,0.0-1.0-0.20
"<b>If you are paying attention, please select ?Somewhat agree?",Highly disagree,22/150,Highly disagree,1,1698174419419,1698174420324,\Highly disagree\,\Highly disagree\,\1\,1698174419940,1698174419940,521,521,905,buq,qns-item-noham,22,22105,0.0-1.0-0.21
"<b>When I talk to others, I often worry I?ll convince them of something I didn?t mean to.",Highly disagree,23/150,Highly agree,4,1698174420325,1698174421182,\Highly agree\,\Highly agree\,\4\,1698174420825,1698174420825,500,500,857,buq,qns-item-noham,23,22963,0.0-1.0-0.22
<b>I would need to learn something utterly shocking about my party in order to change my political views.,Highly disagree,24/150,Highly agree,4,1698174421183,1698174421790,\Highly agree\,\Highly agree\,\4\,1698174421458,1698174421458,275,275,607,buq,qns-item-noham,24,23571,0.0-1.0-0.23
"<b>When I have new experiences, I tend to think of them as unique.",Highly disagree,25/150,Highly disagree,1,1698174421791,1698174422680,\Highly disagree\,\Highly disagree\,\1\,1698174422153,1698174422153,362,362,889,buq,qns-item-noham,25,24461,0.0-1.0-0.24
<b>Reading lots of things is important for understanding the world.,Highly disagree,26/150,Highly disagree,1,1698174422681,1698174423298,\Highly disagree\,\Highly disagree\,\1\,1698174422995,1698174422995,314,314,617,buq,qns-item-noham,26,25079,0.0-1.0-0.25
<b>The world is complicated.,Highly disagree,27/150,Somewhat disagree,2,1698174423299,1698174423927,\Somewhat disagree\,\Somewhat disagree\,\2\,1698174423636,1698174423636,337,337,628,buq,qns-item-noham,27,25708,0.0-1.0-0.26
<b>I change my mind about specific policies pretty frequently.,Highly disagree,28/150,Somewhat disagree,2,1698174423928,1698174425776,\Somewhat disagree\,\Somewhat disagree\,\2\,1698174424214,1698174424214,286,286,1848,buq,qns-item-noham,28,27557,0.0-1.0-0.27
"<b>If a politician in my political party supports something I disagree with, I give them the benefit of the doubt, as such issues often involve hidden complexities that aren?t obvious.   ",Highly disagree,29/150,Somewhat agree,3,1698174425779,1698174426858,\Somewhat agree\,\Somewhat agree\,\3\,1698174426065,1698174426065,286,286,1079,buq,qns-item-noham,29,28639,0.0-1.0-0.28
<b>People?s bad politics are usually motivated by hatefulness.,Highly disagree,30/150,Somewhat agree,3,1698174426859,1698174428071,\Somewhat agree\,\Somewhat agree\,\3\,1698174427662,1698174427662,803,803,1212,buq,qns-item-noham,30,29852,0.0-1.0-0.29
"<b>Most new experiences are just like old ones, but a little bit different.",Highly disagree,31/150,Somewhat agree,3,1698174428073,1698174428688,\Somewhat agree\,\Somewhat agree\,\3\,1698174428398,1698174428398,325,325,615,buq,qns-item-noham,31,30469,0.0-1.0-0.30
<b>I think a lot about how to reconcile my beliefs with one another.,Highly disagree,32/150,Somewhat agree,3,1698174428689,1698174429857,\Somewhat agree\,\Somewhat agree\,\3\,1698174429135,1698174429135,446,446,1168,buq,qns-item-noham,32,31638,0.0-1.0-0.31
<b>Personal experience rarely leads people astray.,Highly disagree,33/150,Somewhat disagree,2,1698174429859,1698174430746,\Somewhat disagree\,\Somewhat disagree\,\2\,1698174430399,1698174430399,540,540,887,buq,qns-item-noham,33,32527,0.0-1.0-0.32
<b>I might have false beliefs about important topics.,Highly disagree,34/150,Somewhat agree,3,1698174430747,1698174431458,\Somewhat agree\,\Somewhat agree\,\3\,1698174431182,1698174431182,435,435,711,buq,qns-item-noham,34,33239,0.0-1.0-0.33
"<b>If a good friend of mine does something unexpected that upsets me, I feel like I don?t know them anymore.",Highly disagree,35/150,Somewhat agree,3,1698174431460,1698174432124,\Somewhat agree\,\Somewhat agree\,\3\,1698174431752,1698174431752,292,292,664,buq,qns-item-noham,35,33905,0.0-1.0-0.34
<b>Other people?s beliefs are often incoherent.,Highly disagree,36/150,Somewhat agree,3,1698174432126,1698174432676,\Somewhat agree\,\Somewhat agree\,\3\,1698174432424,1698174432424,298,298,550,buq,qns-item-noham,36,34457,0.0-1.0-0.35
<b>It?s important to have friends who think about things differently than I do.,Highly disagree,37/150,Somewhat agree,3,1698174432679,1698174433364,\Somewhat agree\,\Somewhat agree\,\3\,1698174432978,1698174432978,299,299,685,buq,qns-item-noham,37,35145,0.0-1.0-0.36
"<b>Every now and then, a new experience will unsettle beliefs I?ve had for a while.",Highly disagree,38/150,Somewhat agree,3,1698174433365,1698174433952,\Somewhat agree\,\Somewhat agree\,\3\,1698174433659,1698174433659,294,294,587,buq,qns-item-noham,38,35733,0.0-1.0-0.37
<b>Some policies I agree with in principle are so bad I don?t support them. ,Highly disagree,39/150,Somewhat agree,3,1698174433954,1698174434537,\Somewhat agree\,\Somewhat agree\,\3\,1698174434246,1698174434246,292,292,583,buq,qns-item-noham,39,36318,0.0-1.0-0.38
<b>I?m pretty sure I?ve accidentally spread false information.,Highly disagree,40/150,Somewhat agree,3,1698174434539,1698174435168,\Somewhat agree\,\Somewhat agree\,\3\,1698174434878,1698174434878,339,339,629,buq,qns-item-noham,40,36949,0.0-1.0-0.39
"<b>If I go to my favorite restaurant and the food is unexpectedly bad, then they have changed owners.",Highly disagree,41/150,Somewhat agree,3,1698174435170,1698174435878,\Somewhat agree\,\Somewhat agree\,\3\,1698174435427,1698174435427,257,257,708,buq,qns-item-noham,41,37659,0.0-1.0-0.40
"<b>In politics, it?s important to trust your friends and family.",Highly disagree,42/150,Somewhat agree,3,1698174435879,1698174436400,\Somewhat agree\,\Somewhat agree\,\3\,1698174436143,1698174436143,264,264,521,buq,qns-item-noham,42,38181,0.0-1.0-0.41
<b>It?s OK to have some conflicting beliefs.,Highly disagree,43/150,Somewhat agree,3,1698174436401,1698174436996,\Somewhat agree\,\Somewhat agree\,\3\,1698174436668,1698174436668,267,267,595,buq,qns-item-noham,43,38777,0.0-1.0-0.42
<b>Sometimes the details of a matter seem to conflict with the big picture.,Highly disagree,44/150,Somewhat agree,3,1698174436997,1698174437723,\Somewhat agree\,\Somewhat agree\,\3\,1698174437262,1698174437262,265,265,726,buq,qns-item-noham,44,39504,0.0-1.0-0.43
<b>Listening to people I disagree with makes my opinions better.,Highly disagree,45/150,Somewhat agree,3,1698174437724,1698174438379,\Somewhat agree\,\Somewhat agree\,\3\,1698174437950,1698174437950,226,226,655,buq,qns-item-noham,45,40160,0.0-1.0-0.44
<b>Policies that sound bad are sometimes fine when you find out about their details.,Highly disagree,46/150,Somewhat agree,3,1698174438380,1698174439080,\Somewhat agree\,\Somewhat agree\,\3\,1698174438628,1698174438628,248,248,700,buq,qns-item-noham,46,40861,0.0-1.0-0.45
"<b>The world is always changing, so my beliefs are sometimes out-dated.",Highly disagree,47/150,Somewhat agree,3,1698174439081,1698174439727,\Somewhat agree\,\Somewhat agree\,\3\,1698174439318,1698174439318,237,237,646,buq,qns-item-noham,47,41508,0.0-1.0-0.46
"<b>If I receive a bad meal at my favorite restaurant and the food is surprisingly bad, I do not think much of it, and assume the chef is just having an ?off? day.",Highly disagree,48/150,Somewhat agree,3,1698174439728,1698174440316,\Somewhat agree\,\Somewhat agree\,\3\,1698174440011,1698174440011,283,283,588,buq,qns-item-noham,48,42097,0.0-1.0-0.47
"<b>False information is unavoidable, to some extent.",Highly disagree,49/150,Somewhat agree,3,1698174440318,1698174440992,\Somewhat agree\,\Somewhat agree\,\3\,1698174440575,1698174440575,257,257,674,buq,qns-item-noham,49,42773,0.0-1.0-0.48
<b>My moral compass sometimes makes it harder to determine what?s true.,Highly disagree,50/150,Somewhat agree,3,1698174440993,1698174441638,\Somewhat agree\,\Somewhat agree\,\3\,1698174441266,1698174441266,273,273,645,buq,qns-item-noham,50,43419,0.0-1.0-0.49
"<b>When you disagree with someone, it?s important to listen to them carefully.",Highly disagree,51/150,Somewhat agree,3,1698174441640,1698174442181,\Somewhat agree\,\Somewhat agree\,\3\,1698174441882,1698174441882,242,242,541,buq,qns-item-noham,51,43962,0.0-1.0-0.50
<b>Evidence pointing in the wrong direction isn?t really evidence at all.,Highly disagree,52/150,Somewhat agree,3,1698174442181,1698174442766,\Somewhat agree\,\Somewhat agree\,\3\,1698174442443,1698174442443,262,262,585,buq,qns-item-noham,52,44547,0.0-1.0-0.51
"<b>If the political party I support messes up, it makes me think politics is rotten.",Highly disagree,53/150,Somewhat agree,3,1698174442767,1698174443375,\Somewhat agree\,\Somewhat agree\,\3\,1698174443049,1698174443049,282,282,608,buq,qns-item-noham,53,45156,0.0-1.0-0.52
<b>Lots of important topics can only really be understood by some groups of people.,Highly disagree,54/150,Somewhat agree,3,1698174443376,1698174443906,\Somewhat agree\,\Somewhat agree\,\3\,1698174443625,1698174443625,249,249,530,buq,qns-item-noham,54,45687,0.0-1.0-0.53
<b>Details almost always matter for being right about something.,Highly disagree,55/150,Somewhat agree,3,1698174443907,1698174444484,\Somewhat agree\,\Somewhat agree\,\3\,1698174444158,1698174444158,251,251,577,buq,qns-item-noham,55,46265,0.0-1.0-0.54
"<b>The most important thing in politics is winning, not convincing people.",Highly disagree,56/150,Somewhat agree,3,1698174444485,1698174445028,\Somewhat agree\,\Somewhat agree\,\3\,1698174444746,1698174444746,261,261,543,buq,qns-item-noham,56,46809,0.0-1.0-0.55
<b>Having conflicting beliefs means you haven?t thought about them enough.,Highly disagree,57/150,Somewhat agree,3,1698174445029,1698174445551,\Somewhat agree\,\Somewhat agree\,\3\,1698174445263,1698174445263,234,234,522,buq,qns-item-noham,57,47332,0.0-1.0-0.56
<b>Other people have sometimes convinced me to change my mind on important topics.,Highly disagree,58/150,Somewhat agree,3,1698174445552,1698174446128,\Somewhat agree\,\Somewhat agree\,\3\,1698174445823,1698174445823,271,271,576,buq,qns-item-noham,58,47909,0.0-1.0-0.57
<b>I do not often change my political opinions.,Highly disagree,59/150,Somewhat agree,3,1698174446129,1698174446725,\Somewhat agree\,\Somewhat agree\,\3\,1698174446442,1698174446442,313,313,596,buq,qns-item-noham,59,48506,0.0-1.0-0.58
<b>Thinking about how different things relate to one another is critical in life.,Highly disagree,60/150,Somewhat agree,3,1698174446726,1698174447325,\Somewhat agree\,\Somewhat agree\,\3\,1698174447003,1698174447003,277,277,599,buq,qns-item-noham,60,49107,0.0-1.0-0.59
<b>True beliefs can have unfortunate implications.,Highly disagree,61/150,Somewhat agree,3,1698174447327,1698174448254,\Somewhat agree\,\Somewhat agree\,\3\,1698174447583,1698174447583,256,256,927,buq,qns-item-noham,61,50035,0.0-1.0-0.60
<b>It?s difficult to not have at least some conflicting beliefs.,Highly disagree,62/150,Somewhat disagree,2,1698174448256,1698174448923,\Somewhat disagree\,\Somewhat disagree\,\2\,1698174448623,1698174448623,367,367,667,buq,qns-item-noham,62,50704,0.0-1.0-0.61
"<b>When I learn new things, I think deeply about how my opinions should change.",Highly disagree,63/150,Somewhat disagree,2,1698174448924,1698174449460,\Somewhat disagree\,\Somewhat disagree\,\2\,1698174449163,1698174449163,239,239,536,buq,qns-item-noham,63,51241,0.0-1.0-0.62
<b>I think a lot about how to interpret different sorts of evidence.,Highly disagree,64/150,Somewhat disagree,2,1698174449461,1698174450406,\Somewhat disagree\,\Somewhat disagree\,\2\,1698174450049,1698174450049,588,588,945,buq,qns-item-noham,64,52187,0.0-1.0-0.63
<b>Politics is about thinking together and finding compromises.,Highly disagree,65/150,Somewhat disagree,2,1698174450408,1698174450998,\Somewhat disagree\,\Somewhat disagree\,\2\,1698174450678,1698174450678,270,270,590,buq,qns-item-noham,65,52779,0.0-1.0-0.64
<b>Wishful thinking causes a lot of problems.,Highly disagree,66/150,Somewhat disagree,2,1698174450999,1698174451676,\Somewhat disagree\,\Somewhat disagree\,\2\,1698174451265,1698174451265,266,266,677,buq,qns-item-noham,66,53457,0.0-1.0-0.65
<b>I judge a food item only once I try it many times.,Highly disagree,67/150,Somewhat disagree,2,1698174451677,1698174452275,\Somewhat disagree\,\Somewhat disagree\,\2\,1698174451971,1698174451971,294,294,598,buq,qns-item-noham,67,54056,0.0-1.0-0.66
"<b>When a person holds conflicting beliefs, they should really try to figure out what?s wrong.",Highly disagree,68/150,Somewhat disagree,2,1698174452276,1698174452892,\Somewhat disagree\,\Somewhat disagree\,\2\,1698174452539,1698174452539,263,263,616,buq,qns-item-noham,68,54673,0.0-1.0-0.67
<b>Knowing what?s important in life is easy.,Highly disagree,69/150,Somewhat disagree,2,1698174452894,1698174453928,\Somewhat disagree\,\Somewhat disagree\,\2\,1698174453613,1698174453613,719,719,1034,buq,qns-item-noham,69,55709,0.0-1.0-0.68
<b>Lots of smart people disagree about basic political questions.,Highly disagree,70/150,Somewhat disagree,2,1698174453930,1698174454492,\Somewhat disagree\,\Somewhat disagree\,\2\,1698174454191,1698174454191,261,261,562,buq,qns-item-noham,70,56273,0.0-1.0-0.69
<b>I swim across the Atlantic Ocean to get to work every day.,Highly disagree,71/150,Somewhat disagree,2,1698174454493,1698174455060,\Somewhat disagree\,\Somewhat disagree\,\2\,1698174454754,1698174454754,261,261,567,buq,qns-item-noham,71,56841,0.0-1.0-0.70
"<b>Sometimes, you just have to ignore evidence that you know is wrong.",Highly disagree,72/150,Somewhat disagree,2,1698174455061,1698174455672,\Somewhat disagree\,\Somewhat disagree\,\2\,1698174455325,1698174455325,264,264,611,buq,qns-item-noham,72,57454,0.0-1.0-0.71
<b>I have had some false beliefs.,Highly disagree,73/150,Somewhat disagree,2,1698174455674,1698174456321,\Somewhat disagree\,\Somewhat disagree\,\2\,1698174456011,1698174456011,337,337,647,buq,qns-item-noham,73,58102,0.0-1.0-0.72
"<b>If one friend does something that upsets me, I sometimes start to distrust people in general.",Highly disagree,74/150,Somewhat disagree,2,1698174456323,1698174456957,\Somewhat disagree\,\Somewhat disagree\,\2\,1698174456631,1698174456631,308,308,634,buq,qns-item-noham,74,58738,0.0-1.0-0.73
<b>I easily apply what I learn in one situation to another.,Highly disagree,75/150,Somewhat disagree,2,1698174456958,1698174458016,\Somewhat disagree\,\Somewhat disagree\,\2\,1698174457662,1698174457662,704,704,1058,buq,qns-item-noham,75,59797,0.0-1.0-0.74
<b>The facts about most important matters are easy to find.,Highly disagree,76/150,Somewhat disagree,2,1698174458017,1698174458600,\Somewhat disagree\,\Somewhat disagree\,\2\,1698174458296,1698174458296,279,279,583,buq,qns-item-noham,76,60381,0.0-1.0-0.75
<b>It?s better to know what?s true than to know what?s moral.,Highly disagree,77/150,Somewhat disagree,2,1698174458602,1698174459196,\Somewhat disagree\,\Somewhat disagree\,\2\,1698174458876,1698174458876,274,274,594,buq,qns-item-noham,77,60977,0.0-1.0-0.76
<b>It?s good to be skeptical of people you agree with.,Highly disagree,78/150,Somewhat disagree,2,1698174459197,1698174459784,\Somewhat disagree\,\Somewhat disagree\,\2\,1698174459447,1698174459447,250,250,587,buq,qns-item-noham,78,61565,0.0-1.0-0.77
<b>Sometimes reasonable beliefs are wrong.,Highly disagree,79/150,Somewhat disagree,2,1698174459785,1698174460381,\Somewhat disagree\,\Somewhat disagree\,\2\,1698174460063,1698174460063,278,278,596,buq,qns-item-noham,79,62162,0.0-1.0-0.78
<b>I used to think the world was less complicated than I do now.,Highly disagree,80/150,Somewhat disagree,2,1698174460382,1698174461023,\Somewhat disagree\,\Somewhat disagree\,\2\,1698174460679,1698174460679,297,297,641,buq,qns-item-noham,80,62804,0.0-1.0-0.79
<b>People are usually completely right or completely wrong.,Highly disagree,81/150,Somewhat disagree,2,1698174461025,1698174461614,\Somewhat disagree\,\Somewhat disagree\,\2\,1698174461287,1698174461287,262,262,589,buq,qns-item-noham,81,63395,0.0-1.0-0.80
<b>I spend a lot of time considering alternatives to my beliefs.,Highly disagree,82/150,Somewhat disagree,2,1698174461616,1698174462210,\Somewhat disagree\,\Somewhat disagree\,\2\,1698174461913,1698174461913,297,297,594,buq,qns-item-noham,82,63991,0.0-1.0-0.81
"<b>Political enemies need to be defeated, not convinced.",Highly disagree,83/150,Somewhat disagree,2,1698174462211,1698174462794,\Somewhat disagree\,\Somewhat disagree\,\2\,1698174462473,1698174462473,262,262,583,buq,qns-item-noham,83,64575,0.0-1.0-0.82
"<b>When forming an opinion about a restaurant, I am more swayed by my  latest meal there than  previous meals I?ve had there.",Highly disagree,84/150,Somewhat disagree,2,1698174462795,1698174463423,\Somewhat disagree\,\Somewhat disagree\,\2\,1698174463061,1698174463061,266,266,628,buq,qns-item-noham,84,65204,0.0-1.0-0.83
<b>I try to remain skeptical about most topics.,Highly disagree,85/150,Somewhat disagree,2,1698174463425,1698174464116,\Somewhat disagree\,\Somewhat disagree\,\2\,1698174463856,1698174463856,431,431,691,buq,qns-item-noham,85,65897,0.0-1.0-0.84
<b>Being wrong is usually obvious in retrospect.,Highly disagree,86/150,Somewhat disagree,2,1698174464117,1698174464678,\Somewhat disagree\,\Somewhat disagree\,\2\,1698174464389,1698174464389,272,272,561,buq,qns-item-noham,86,66459,0.0-1.0-0.85
<b>It can be hard to realize that my beliefs are in conflict.,Highly disagree,87/150,Somewhat disagree,2,1698174464679,1698174465258,\Somewhat disagree\,\Somewhat disagree\,\2\,1698174464945,1698174464945,266,266,579,buq,qns-item-noham,87,67039,0.0-1.0-0.86
<b>I form my political views only after meticulously gathering historical and present information about their policies.,Highly disagree,88/150,Somewhat disagree,2,1698174465259,1698174465911,\Somewhat disagree\,\Somewhat disagree\,\2\,1698174465525,1698174465525,266,266,652,buq,qns-item-noham,88,67693,0.0-1.0-0.87
<b>Skeptical people are usually just bad-tempered.,Highly disagree,89/150,Somewhat disagree,2,1698174465913,1698174466628,\Somewhat disagree\,\Somewhat disagree\,\2\,1698174466339,1698174466339,426,426,715,buq,qns-item-noham,89,68409,0.0-1.0-0.88
<b>It is difficult for me to remember the last time I was surprised by politics.,Highly disagree,90/150,Somewhat disagree,2,1698174466629,1698174467804,\Somewhat disagree\,\Somewhat disagree\,\2\,1698174466920,1698174467458,291,829,1175,buq,qns-item-noham,90,69585,0.0-1.0-0.89
"<b>When I find out I?m wrong, I think a lot about my related beliefs.",Highly disagree,91/150,Somewhat disagree,2,1698174467806,1698174468312,\Somewhat disagree\,\Somewhat disagree\,\2\,1698174468043,1698174468043,237,237,506,buq,qns-item-noham,91,70093,0.0-1.0-0.90
"<b>If the political party I support messes up, it makes me think you can?t trust anyone these days",Highly disagree,92/150,Somewhat disagree,2,1698174468313,1698174469396,\Somewhat disagree\,\Somewhat disagree\,\2\,1698174468579,1698174468579,266,266,1083,buq,qns-item-noham,92,71177,0.0-1.0-0.91
<b>People?s brains turn off when they talk about politics.,Highly disagree,93/150,Somewhat disagree,2,1698174469397,1698174469960,\Somewhat disagree\,\Somewhat disagree\,\2\,1698174469631,1698174469631,234,234,563,buq,qns-item-noham,93,71741,0.0-1.0-0.92
<b>People who are wrong are usually just ignoring the obvious.,Highly disagree,94/150,Somewhat disagree,2,1698174469961,1698174471436,\Somewhat disagree\,\Somewhat disagree\,\2\,1698174470219,1698174470846,258,885,1475,buq,qns-item-noham,94,73217,0.0-1.0-0.93
"<b>The world isn?t that complicated, but it?s still hard to figure out how it works.",Highly disagree,95/150,Somewhat disagree,2,1698174471439,1698174472066,\Somewhat disagree\,\Somewhat disagree\,\2\,1698174471785,1698174471785,346,346,627,buq,qns-item-noham,95,73847,0.0-1.0-0.94
"<b>When forming my views on people, I rely more on what they are like now rather than rely on my past experience with them.",Highly disagree,96/150,Somewhat disagree,2,1698174472067,1698174472718,\Somewhat disagree\,\Somewhat disagree\,\2\,1698174472389,1698174472389,322,322,651,buq,qns-item-noham,96,74499,0.0-1.0-0.95
"<b>When people contradict my beliefs, I usually know about their evidence already.",Highly disagree,97/150,Somewhat disagree,2,1698174472720,1698174473375,\Somewhat disagree\,\Somewhat disagree\,\2\,1698174473009,1698174473009,289,289,655,buq,qns-item-noham,97,75156,0.0-1.0-0.96
<b>Being wrong is a matter of degree.,Highly disagree,98/150,Somewhat disagree,2,1698174473376,1698174474091,\Somewhat disagree\,\Somewhat disagree\,\2\,1698174473790,1698174473790,414,414,715,buq,qns-item-noham,98,75873,0.0-1.0-0.97
<b>Figuring out what?s true and what?s false mainly requires a strong moral compass.,Highly disagree,99/150,Somewhat disagree,2,1698174474093,1698174474675,\Somewhat disagree\,\Somewhat disagree\,\2\,1698174474384,1698174474384,291,291,582,buq,qns-item-noham,99,76456,0.0-1.0-0.98
<b>Most of the beliefs people have are at least somewhat understandable.,Highly disagree,100/150,Somewhat disagree,2,1698174474677,1698174475350,\Somewhat disagree\,\Somewhat disagree\,\2\,1698174474936,1698174474936,259,259,673,buq,qns-item-noham,100,77131,0.0-1.0-0.99
"<b>Usually I?m wrong about simple things, not complicated ones.",Highly disagree,101/150,Somewhat disagree,2,1698174475352,1698174476098,\Somewhat disagree\,\Somewhat disagree\,\2\,1698174475629,1698174475629,277,277,746,buq,qns-item-noham,101,77879,0.0-1.0-0.100
<b>Getting all the information I want about important things is hard.,Highly disagree,102/150,Somewhat disagree,2,1698174476099,1698174476790,\Somewhat disagree\,\Somewhat disagree\,\2\,1698174476401,1698174476401,302,302,691,buq,qns-item-noham,102,78571,0.0-1.0-0.101
<b>Most false beliefs spread because people try to deceive one another.,Highly disagree,103/150,Somewhat disagree,2,1698174476792,1698174477380,\Somewhat disagree\,\Somewhat disagree\,\2\,1698174477066,1698174477066,274,274,588,buq,qns-item-noham,103,79161,0.0-1.0-0.102
<b>I can usually find something to agree with in most people?s beliefs.,Highly disagree,104/150,Somewhat disagree,2,1698174477382,1698174478021,\Somewhat disagree\,\Somewhat disagree\,\2\,1698174477696,1698174477696,314,314,639,buq,qns-item-noham,104,79802,0.0-1.0-0.103
<b>I only form my views of people once I get to know them very well.,Highly disagree,105/150,Somewhat disagree,2,1698174478023,1698174478668,\Somewhat disagree\,\Somewhat disagree\,\2\,1698174478291,1698174478291,268,268,645,buq,qns-item-noham,105,80449,0.0-1.0-0.104
"<b>When people tell me important things about the world, I usually believe them.",Highly disagree,106/150,Somewhat disagree,2,1698174478670,1698174479329,\Somewhat disagree\,\Somewhat disagree\,\2\,1698174478959,1698174478959,289,289,659,buq,qns-item-noham,106,81110,0.0-1.0-0.105
"<b>If a friend does something that upsets me, it reminds me what an unpredictable place the world is.",Highly disagree,107/150,Somewhat disagree,2,1698174479330,1698174479909,\Somewhat disagree\,\Somewhat disagree\,\2\,1698174479586,1698174479586,256,256,579,buq,qns-item-noham,107,81690,0.0-1.0-0.106
<b>Having some conflicting beliefs is inevitable.,Highly disagree,108/150,Somewhat disagree,2,1698174479910,1698174480574,\Somewhat disagree\,\Somewhat disagree\,\2\,1698174480220,1698174480220,310,310,664,buq,qns-item-noham,108,82355,0.0-1.0-0.107
<b>People are wrong because they haven?t thought much about things.,Highly disagree,109/150,Somewhat disagree,2,1698174480576,1698174481427,\Somewhat disagree\,\Somewhat disagree\,\2\,1698174481067,1698174481067,491,491,851,buq,qns-item-noham,109,83208,0.0-1.0-0.108
<b>People tend to believe whatever is good for their friends.,Highly disagree,110/150,Somewhat disagree,2,1698174481429,1698174482052,\Somewhat disagree\,\Somewhat disagree\,\2\,1698174481723,1698174481723,294,294,623,buq,qns-item-noham,110,83833,0.0-1.0-0.109
"<b>When I talk about important topics, I try to make sure people know I?m not always right.",Highly disagree,111/150,Somewhat disagree,2,1698174482053,1698174482717,\Somewhat disagree\,\Somewhat disagree\,\2\,1698174482383,1698174482383,330,330,664,buq,qns-item-noham,111,84498,0.0-1.0-0.110
<b>I used to be more certain my beliefs were true.,Highly disagree,112/150,Somewhat disagree,2,1698174482719,1698174483324,\Somewhat disagree\,\Somewhat disagree\,\2\,1698174483019,1698174483019,300,300,605,buq,qns-item-noham,112,85106,0.0-1.0-0.111
<b>It?s often pretty easy to figure out whether something is true based on who said it.,Highly disagree,113/150,Somewhat disagree,2,1698174483326,1698174484002,\Somewhat disagree\,\Somewhat disagree\,\2\,1698174483656,1698174483656,330,330,676,buq,qns-item-noham,113,85783,0.0-1.0-0.112
<b>Having bad food in my favorite restaurant will make me think the restaurant is no longer good.,Highly disagree,114/150,Somewhat disagree,2,1698174484003,1698174484626,\Somewhat disagree\,\Somewhat disagree\,\2\,1698174484288,1698174484288,285,285,623,buq,qns-item-noham,114,86407,0.0-1.0-0.113
<b>I transform into a hummingbird every day.,Highly disagree,115/150,Somewhat disagree,2,1698174484627,1698174485359,\Somewhat disagree\,\Somewhat disagree\,\2\,1698174484997,1698174484997,370,370,732,buq,qns-item-noham,115,87140,0.0-1.0-0.114
"<b>Unfortunately, when people are wrong, it?s usually because they?re bad.",Highly disagree,116/150,Somewhat disagree,2,1698174485361,1698174485985,\Somewhat disagree\,\Somewhat disagree\,\2\,1698174485679,1698174485679,318,318,624,buq,qns-item-noham,116,87766,0.0-1.0-0.115
<b>I think a lot about arguments against my views.,Highly disagree,117/150,Somewhat disagree,2,1698174485986,1698174486676,\Somewhat disagree\,\Somewhat disagree\,\2\,1698174486323,1698174486323,337,337,690,buq,qns-item-noham,117,88457,0.0-1.0-0.116
<b>Details tend to matter a lot for knowing whether a policy is good.,Highly disagree,118/150,Somewhat disagree,2,1698174486677,1698174487371,\Somewhat disagree\,\Somewhat disagree\,\2\,1698174486967,1698174486967,290,290,694,buq,qns-item-noham,118,89153,0.0-1.0-0.117
<b>Personal experience is usually more important than facts and figures.,Highly disagree,119/150,Somewhat disagree,2,1698174487373,1698174488654,\Somewhat disagree\,\Somewhat disagree\,\2\,1698174487664,1698174488243,291,870,1281,buq,qns-item-noham,119,90435,0.0-1.0-0.118
<b>I?ve been tricked before about important matters.,Highly disagree,120/150,Somewhat disagree,2,1698174488656,1698174489389,\Somewhat disagree\,\Somewhat disagree\,\2\,1698174488981,1698174488981,325,325,733,buq,qns-item-noham,120,91170,0.0-1.0-0.119
<b>I would need to be totally wowed if I were to change my opinion of a restaurant I don?t like.,Highly disagree,121/150,Somewhat disagree,2,1698174489391,1698174490144,\Somewhat disagree\,\Somewhat disagree\,\2\,1698174489695,1698174489695,304,304,753,buq,qns-item-noham,121,91925,0.0-1.0-0.120
<b>I care a lot about politics.,Highly disagree,122/150,Somewhat disagree,2,1698174490145,1698174491164,\Somewhat disagree\,\Somewhat disagree\,\2\,1698174490534,1698174490534,389,389,1019,buq,qns-item-noham,122,92945,0.0-1.0-0.121
<b>People with conflicting beliefs usually have some facts they disagree on.,Highly disagree,123/150,Somewhat disagree,2,1698174491165,1698174491857,\Somewhat disagree\,\Somewhat disagree\,\2\,1698174491454,1698174491454,289,289,692,buq,qns-item-noham,123,93638,0.0-1.0-0.122
<b>There are some topics I?ve been really wrong about.,Highly disagree,124/150,Somewhat disagree,2,1698174491858,1698174492541,\Somewhat disagree\,\Somewhat disagree\,\2\,1698174492127,1698174492127,269,269,683,buq,qns-item-noham,124,94322,0.0-1.0-0.123
<b>Most beliefs can be supported with at least some evidence.,Highly disagree,125/150,Somewhat disagree,2,1698174492542,1698174493226,\Somewhat disagree\,\Somewhat disagree\,\2\,1698174492837,1698174492837,295,295,684,buq,qns-item-noham,125,95007,0.0-1.0-0.124
<b>Other people make life out to be more complicated than it really is.,Highly disagree,126/150,Somewhat disagree,2,1698174493227,1698174494257,\Somewhat disagree\,\Somewhat disagree\,\2\,1698174493838,1698174493838,611,611,1030,buq,qns-item-noham,126,96038,0.0-1.0-0.125
"<b>My political views are being shaped continuously as I gather more information, rather than relying on what I?ve known to be true of my party in the past. ",Highly disagree,127/150,Somewhat disagree,2,1698174494259,1698174494954,\Somewhat disagree\,\Somewhat disagree\,\2\,1698174494509,1698174494509,250,250,695,buq,qns-item-noham,127,96735,0.0-1.0-0.126
<b>It?s pretty unusual for true things to seem false.,Highly disagree,128/150,Somewhat disagree,2,1698174494955,1698174495720,\Somewhat disagree\,\Somewhat disagree\,\2\,1698174495383,1698174495383,428,428,765,buq,qns-item-noham,128,97501,0.0-1.0-0.127
"<b>Policy details don?t matter much, just the big picture.",Highly disagree,129/150,Somewhat disagree,2,1698174495722,1698174496393,\Somewhat disagree\,\Somewhat disagree\,\2\,1698174496063,1698174496063,341,341,671,buq,qns-item-noham,129,98174,0.0-1.0-0.128
<b>I know my friends so well they can hardly ever surprise me.,Highly disagree,130/150,Somewhat disagree,2,1698174496395,1698174497060,\Somewhat disagree\,\Somewhat disagree\,\2\,1698174496678,1698174496678,283,283,665,buq,qns-item-noham,130,98841,0.0-1.0-0.129
"<b>When I talk to people, I often think about why they have the beliefs they do.",Highly disagree,131/150,Somewhat disagree,2,1698174497062,1698174497743,\Somewhat disagree\,\Somewhat disagree\,\2\,1698174497335,1698174497335,273,273,681,buq,qns-item-noham,131,99524,0.0-1.0-0.130
<b>I do not often change my views on people.,Highly disagree,132/150,Somewhat disagree,2,1698174497745,1698174498370,\Somewhat disagree\,\Somewhat disagree\,\2\,1698174498009,1698174498009,264,264,625,buq,qns-item-noham,132,100151,0.0-1.0-0.131
<b>I often wish I had more time to spend figuring out what?s true and what?s false in life.,Highly disagree,133/150,Somewhat disagree,2,1698174498372,1698174499048,\Somewhat disagree\,\Somewhat disagree\,\2\,1698174498653,1698174498653,281,281,676,buq,qns-item-noham,133,100829,0.0-1.0-0.132
<b>I?m more certain about my beliefs than I used to be.,Highly disagree,134/150,Somewhat disagree,2,1698174499049,1698174499832,\Somewhat disagree\,\Somewhat disagree\,\2\,1698174499463,1698174499463,414,414,783,buq,qns-item-noham,134,101613,0.0-1.0-0.133
"<b>Whenever I find out new information, I update my views on politics accordingly.",Highly disagree,135/150,Somewhat disagree,2,1698174499833,1698174500514,\Somewhat disagree\,\Somewhat disagree\,\2\,1698174500103,1698174500103,270,270,681,buq,qns-item-noham,135,102295,0.0-1.0-0.134
<b>People often tell falsehoods unintentionally.,Highly disagree,136/150,Somewhat disagree,2,1698174500515,1698174501775,\Somewhat disagree\,\Somewhat disagree\,\2\,1698174500764,1698174501389,249,874,1260,buq,qns-item-noham,136,103556,0.0-1.0-0.135
<b>Most people don?t know much about most things.,Highly disagree,137/150,Somewhat agree,3,1698174501777,1698174502576,\Somewhat agree\,\Somewhat agree\,\3\,1698174502191,1698174502191,414,414,799,buq,qns-item-noham,137,104357,0.0-1.0-0.136
"<b>If I find out something new about someone, I easily change my views about them.",Highly disagree,138/150,Somewhat disagree,2,1698174502577,1698174503963,\Somewhat agree\,\Somewhat disagree\,\3\,1698174502891,1698174503493,314,916,1386,buq,qns-item-noham,138,105744,0.0-1.0-0.137
<b>Having true beliefs is difficult.,Highly disagree,139/150,Somewhat agree,3,1698174503966,1698174504690,\Somewhat agree\,\Somewhat agree\,\3\,1698174504337,1698174504337,371,371,724,buq,qns-item-noham,139,106471,0.0-1.0-0.138
<b>I don?t try new foods since I know I won?t like them.,Highly disagree,140/150,Somewhat disagree,2,1698174504692,1698174505452,\Somewhat disagree\,\Somewhat disagree\,\2\,1698174505155,1698174505155,463,463,760,buq,qns-item-noham,140,107233,0.0-1.0-0.139
<b>It?s easy to figure out what?s true or false based on who?s saying it.,Highly disagree,141/150,Somewhat disagree,2,1698174505453,1698174506127,\Somewhat disagree\,\Somewhat disagree\,\2\,1698174505757,1698174505757,304,304,674,buq,qns-item-noham,141,107908,0.0-1.0-0.140
<b>False things have seemed true to me many times.,Highly disagree,142/150,Somewhat disagree,2,1698174506129,1698174506738,\Somewhat disagree\,\Somewhat disagree\,\2\,1698174506407,1698174506407,278,278,609,buq,qns-item-noham,142,108519,0.0-1.0-0.141
<b>It?s pretty easy to sort out what?s true and what?s false in life.,Highly disagree,143/150,Somewhat disagree,2,1698174506739,1698174507377,\Somewhat disagree\,\Somewhat disagree\,\2\,1698174507041,1698174507041,302,302,638,buq,qns-item-noham,143,109158,0.0-1.0-0.142
<b>Knowing lots of statistics about something is usually important for understanding it.,Highly disagree,144/150,Somewhat disagree,2,1698174507379,1698174508041,\Somewhat disagree\,\Somewhat disagree\,\2\,1698174507673,1698174507673,294,294,662,buq,qns-item-noham,144,109822,0.0-1.0-0.143
<b>Other people trick each other a lot.,Highly disagree,145/150,Somewhat disagree,2,1698174508043,1698174509125,\Somewhat disagree\,\Somewhat disagree\,\2\,1698174508789,1698174508789,746,746,1082,buq,qns-item-noham,145,110906,0.0-1.0-0.144
<b>I would need to learn a lot about a person for my opinion of them to be swayed.,Highly disagree,146/150,Somewhat disagree,2,1698174509127,1698174509821,\Somewhat disagree\,\Somewhat disagree\,\2\,1698174509389,1698174509389,262,262,694,buq,qns-item-noham,146,111602,0.0-1.0-0.145
<b>People can?t usually trick me when it comes to topics I care about.,Highly disagree,147/150,Somewhat disagree,2,1698174509823,1698174510475,\Somewhat disagree\,\Somewhat disagree\,\2\,1698174510073,1698174510073,250,250,652,buq,qns-item-noham,147,112256,0.0-1.0-0.146
<b>I do not often change my views on food.,Highly disagree,148/150,Somewhat disagree,2,1698174510477,1698174511772,\Somewhat disagree\,\Somewhat disagree\,\2\,1698174510742,1698174511423,265,946,1295,buq,qns-item-noham,148,113553,0.0-1.0-0.147
<b>Specific policies are often very important to me.,Highly disagree,149/150,Somewhat disagree,2,1698174511773,1698174512340,\Somewhat disagree\,\Somewhat disagree\,\2\,1698174512023,1698174512023,250,250,567,buq,qns-item-noham,149,114121,0.0-1.0-0.148
<b>Most people are woefully under-informed.,Highly disagree,150/150,Somewhat agree,3,1698174512341,1698174513162,\Somewhat agree\,\Somewhat agree\,\3\,1698174512739,1698174512739,398,398,821,buq,qns-item-noham,150,114943,0.0-1.0-0.149
