Question,qns_options,quest_num,answer,answer_num,question_load_timestamp,next_btn_timestamp,text_selected,final_text_selected,option_num_selected,preview_timestamps,final_text_selected_time_stamp,rt_first_option_click,rt_final_option_click,rt_submit_click,questionnaire,trial_type,trial_index,time_elapsed,internal_node_id
<b>Considering other people?s perspectives can help us figure out what?s true or false.,Highly disagree,1/150,Somewhat agree,3,1698179088390,1698179094927,\Somewhat agree\,\Somewhat agree\,\3\,1698179093502,1698179093502,5112,5112,6537,buq,qns-item-noham,1,11795,0.0-1.0-0.0
<b>Knowing what?s true and knowing what to do about it are usually basically the same.,Highly disagree,2/150,Somewhat disagree,2,1698179094932,1698179100768,\Somewhat disagree\,\Somewhat disagree\,\2\,1698179099579,1698179099579,4647,4647,5836,buq,qns-item-noham,2,17637,0.0-1.0-0.1
<b>Most people just believe whatever is convenient for them.,Highly disagree,3/150,Highly agree,4,1698179100781,1698179104422,\Highly agree\,\Highly agree\,\4\,1698179103359,1698179103359,2578,2578,3641,buq,qns-item-noham,3,21290,0.0-1.0-0.2
<b>Even people who are wrong about most things can be right sometimes.,Highly disagree,4/150,Highly agree,4,1698179104431,1698179112019,\Highly agree\,\Highly agree\,\4\,1698179110859,1698179110859,6428,6428,7588,buq,qns-item-noham,4,28887,0.0-1.0-0.3
"<b>If the political party I support does something that upsets me, then the party may have changed, and I need to re-evaluate my support.",Highly disagree,5/150,Somewhat disagree,2,1698179112026,1698179121852,\Somewhat disagree\,\Somewhat disagree\,\2\,1698179120712,1698179120712,8686,8686,9826,buq,qns-item-noham,5,38721,0.0-1.0-0.4
"<b>When people disagree, one side is usually completely right.",Highly disagree,6/150,Highly disagree,1,1698179121863,1698179126604,\Highly disagree\,\Highly disagree\,\1\,1698179125542,1698179125542,3679,3679,4741,buq,qns-item-noham,6,43473,0.0-1.0-0.5
<b>People have lots of false beliefs.,Highly disagree,7/150,Highly agree,4,1698179126614,1698179129636,\Highly agree\,\Highly agree\,\4\,1698179128576,1698179128576,1962,1962,3022,buq,qns-item-noham,7,46504,0.0-1.0-0.6
<b>Having some big beliefs helps me sort out minor ones.,Highly disagree,8/150,Somewhat disagree,2,1698179129640,1698179137273,\Somewhat disagree\,\Somewhat disagree\,\2\,1698179136351,1698179136351,6711,6711,7633,buq,qns-item-noham,8,54142,0.0-1.0-0.7
<b>Political questions are usually pretty complicated.,Highly disagree,9/150,Highly agree,4,1698179137282,1698179142923,\Highly agree\,\Highly agree\,\4\,1698179142069,1698179142069,4787,4787,5641,buq,qns-item-noham,9,59791,0.0-1.0-0.8
<b>Figuring out what?s important in life requires learning a lot of facts.,Highly disagree,10/150,Somewhat agree,3,1698179142929,1698179151622,\Somewhat agree\,\Somewhat agree\,\3\,1698179150733,1698179150733,7804,7804,8693,buq,qns-item-noham,10,68490,0.0-1.0-0.9
<b>It is difficult for me to remember the last time I was surprised by politics.,Highly disagree,11/150,Highly agree,4,1698179151629,1698179157596,\Highly agree\,\Highly agree\,\4\,1698179156525,1698179156525,4896,4896,5967,buq,qns-item-noham,11,74464,0.0-1.0-0.10
<b>People?s false beliefs are understandable.,Highly disagree,12/150,Highly agree,4,1698179157602,1698179161350,\Highly agree\,\Highly agree\,\4\,1698179160438,1698179160438,2836,2836,3748,buq,qns-item-noham,12,78219,0.0-1.0-0.11
<b>I spend a lot of time trying to be informed about politics.,Highly disagree,13/150,Somewhat disagree,2,1698179161355,1698179166308,\Somewhat disagree\,\Somewhat disagree\,\2\,1698179165261,1698179165261,3906,3906,4953,buq,qns-item-noham,13,83176,0.0-1.0-0.12
<b>I think a lot about whether my beliefs are right.,Highly disagree,14/150,Somewhat disagree,2,1698179166315,1698179174677,\Somewhat disagree\,\Somewhat disagree\,\2\,1698179173792,1698179173792,7477,7477,8362,buq,qns-item-noham,14,91545,0.0-1.0-0.13
<b>Statistics can be pretty misleading sometimes.,Highly disagree,15/150,Highly agree,4,1698179174683,1698179186272,\Highly agree\,\Highly agree\,\4\,1698179185365,1698179185365,10682,10682,11589,buq,qns-item-noham,15,103140,0.0-1.0-0.14
<b>Figuring out what?s true and what?s false takes a lot of time and effort.,Highly disagree,16/150,Highly agree,4,1698179186276,1698179202863,\Highly agree\,\Highly agree\,\4\,1698179201980,1698179201980,15704,15704,16587,buq,qns-item-noham,16,119731,0.0-1.0-0.15
"<b>If a friend does something bad to me, it was likely an error on their part.",Highly disagree,17/150,Somewhat agree,3,1698179202873,1698179207787,\Somewhat agree\,\Somewhat agree\,\3\,1698179206778,1698179206778,3905,3905,4914,buq,qns-item-noham,17,124655,0.0-1.0-0.16
<b>I have lots of beliefs that I?m only sort of sure about.,Highly disagree,18/150,Somewhat disagree,2,1698179207792,1698179211915,\Somewhat disagree\,\Somewhat disagree\,\2\,1698179211027,1698179211027,3235,3235,4123,buq,qns-item-noham,18,128783,0.0-1.0-0.17
"<b>If I go to my favorite restaurant and the food is surprisingly bad, it reminds me there are many disappointments in life.",Highly disagree,19/150,Somewhat agree,3,1698179211921,1698179217820,\Somewhat agree\,\Somewhat agree\,\3\,1698179216197,1698179216197,4276,4276,5899,buq,qns-item-noham,19,134689,0.0-1.0-0.18
<b>Sometimes my beliefs are inconvenient for me.,Highly disagree,20/150,Somewhat disagree,2,1698179217828,1698179220623,\Somewhat disagree\,\Somewhat disagree\,\2\,1698179219645,1698179219645,1817,1817,2795,buq,qns-item-noham,20,137491,0.0-1.0-0.19
<b>Paying attention to multiple news sources is important.,Highly disagree,21/150,Highly agree,4,1698179220627,1698179225178,\Highly agree\,\Highly agree\,\4\,1698179224347,1698179224347,3720,3720,4551,buq,qns-item-noham,21,142046,0.0-1.0-0.20
"<b>If you are paying attention, please select ?Somewhat agree?",Highly disagree,22/150,Somewhat agree,3,1698179225182,1698179228021,\Somewhat agree\,\Somewhat agree\,\3\,1698179227010,1698179227010,1828,1828,2839,buq,qns-item-noham,22,144889,0.0-1.0-0.21
"<b>When I talk to others, I often worry I?ll convince them of something I didn?t mean to.",Highly disagree,23/150,Somewhat agree,3,1698179228027,1698179238184,\Somewhat agree\,\Somewhat agree\,\3\,1698179237248,1698179237248,9221,9221,10157,buq,qns-item-noham,23,155052,0.0-1.0-0.22
<b>I would need to learn something utterly shocking about my party in order to change my political views.,Highly disagree,24/150,Highly agree,4,1698179238191,1698179243375,\Highly agree\,\Highly agree\,\4\,1698179242336,1698179242336,4145,4145,5184,buq,qns-item-noham,24,160243,0.0-1.0-0.23
"<b>When I have new experiences, I tend to think of them as unique.",Highly disagree,25/150,Highly agree,4,1698179243379,1698179248105,\Highly agree\,\Highly agree\,\4\,1698179247185,1698179247185,3806,3806,4726,buq,qns-item-noham,25,164973,0.0-1.0-0.24
<b>Reading lots of things is important for understanding the world.,Highly disagree,26/150,Highly agree,4,1698179248110,1698179257541,\Highly agree\,\Highly agree\,\4\,1698179256678,1698179256678,8568,8568,9431,buq,qns-item-noham,26,174409,0.0-1.0-0.25
<b>The world is complicated.,Highly disagree,27/150,Highly agree,4,1698179257547,1698179260256,\Highly agree\,\Highly agree\,\4\,1698179259264,1698179259264,1717,1717,2709,buq,qns-item-noham,27,177124,0.0-1.0-0.26
<b>I change my mind about specific policies pretty frequently.,Highly disagree,28/150,Somewhat disagree,2,1698179260265,1698179271469,\Somewhat disagree\,\Somewhat disagree\,\2\,1698179270566,1698179270566,10301,10301,11204,buq,qns-item-noham,28,188337,0.0-1.0-0.27
"<b>If a politician in my political party supports something I disagree with, I give them the benefit of the doubt, as such issues often involve hidden complexities that aren?t obvious.   ",Highly disagree,29/150,Somewhat disagree,2,1698179271474,1698179281475,\Somewhat disagree\,\Somewhat disagree\,\2\,1698179280515,1698179280515,9041,9041,10001,buq,qns-item-noham,29,198343,0.0-1.0-0.28
<b>People?s bad politics are usually motivated by hatefulness.,Highly disagree,30/150,Highly agree,4,1698179281483,1698179286679,\Highly agree\,\Highly agree\,\4\,1698179285584,1698179285584,4101,4101,5196,buq,qns-item-noham,30,203547,0.0-1.0-0.29
"<b>Most new experiences are just like old ones, but a little bit different.",Highly disagree,31/150,Somewhat agree,3,1698179286687,1698179291543,\Somewhat agree\,\Somewhat agree\,\3\,1698179290574,1698179290574,3887,3887,4856,buq,qns-item-noham,31,208411,0.0-1.0-0.30
<b>I think a lot about how to reconcile my beliefs with one another.,Highly disagree,32/150,Somewhat disagree,2,1698179291550,1698179298339,\Highly agree\,\Somewhat disagree\,\4\,1698179294539,1698179297371,2989,5821,6789,buq,qns-item-noham,32,215207,0.0-1.0-0.31
<b>Personal experience rarely leads people astray.,Highly disagree,33/150,Somewhat disagree,2,1698179298349,1698179304205,\Somewhat disagree\,\Somewhat disagree\,\2\,1698179302566,1698179302566,4217,4217,5856,buq,qns-item-noham,33,221073,0.0-1.0-0.32
<b>I might have false beliefs about important topics.,Highly disagree,34/150,Somewhat agree,3,1698179304219,1698179308962,\Somewhat agree\,\Somewhat agree\,\3\,1698179308058,1698179308058,3839,3839,4743,buq,qns-item-noham,34,225830,0.0-1.0-0.33
"<b>If a good friend of mine does something unexpected that upsets me, I feel like I don?t know them anymore.",Highly disagree,35/150,Highly agree,4,1698179308967,1698179313123,\Highly agree\,\Highly agree\,\4\,1698179312166,1698179312166,3199,3199,4156,buq,qns-item-noham,35,229991,0.0-1.0-0.34
<b>Other people?s beliefs are often incoherent.,Highly disagree,36/150,Highly disagree,1,1698179313127,1698179318663,\Highly disagree\,\Highly disagree\,\1\,1698179317564,1698179317564,4437,4437,5536,buq,qns-item-noham,36,235531,0.0-1.0-0.35
<b>It?s important to have friends who think about things differently than I do.,Highly disagree,37/150,Somewhat agree,3,1698179318671,1698179322680,\Somewhat agree\,\Somewhat agree\,\3\,1698179321610,1698179321610,2939,2939,4009,buq,qns-item-noham,37,239548,0.0-1.0-0.36
"<b>Every now and then, a new experience will unsettle beliefs I?ve had for a while.",Highly disagree,38/150,Somewhat agree,3,1698179322684,1698179328562,\Somewhat agree\,\Somewhat agree\,\3\,1698179327684,1698179327684,5000,5000,5878,buq,qns-item-noham,38,245430,0.0-1.0-0.37
<b>Some policies I agree with in principle are so bad I don?t support them. ,Highly disagree,39/150,Somewhat disagree,2,1698179328572,1698179340529,\Somewhat disagree\,\Somewhat disagree\,\2\,1698179339568,1698179339568,10996,10996,11957,buq,qns-item-noham,39,257397,0.0-1.0-0.38
<b>I?m pretty sure I?ve accidentally spread false information.,Highly disagree,40/150,Highly agree,4,1698179340534,1698179344707,\Highly agree\,\Highly agree\,\4\,1698179343721,1698179343721,3187,3187,4173,buq,qns-item-noham,40,261575,0.0-1.0-0.39
"<b>If I go to my favorite restaurant and the food is unexpectedly bad, then they have changed owners.",Highly disagree,41/150,Somewhat agree,3,1698179344715,1698179353819,\Somewhat agree\,\Somewhat agree\,\3\,1698179349729,1698179349729,5014,5014,9104,buq,qns-item-noham,41,270687,0.0-1.0-0.40
"<b>In politics, it?s important to trust your friends and family.",Highly disagree,42/150,Somewhat agree,3,1698179353826,1698179358949,\Somewhat agree\,\Somewhat agree\,\3\,1698179357995,1698179357995,4169,4169,5123,buq,qns-item-noham,42,275818,0.0-1.0-0.41
<b>It?s OK to have some conflicting beliefs.,Highly disagree,43/150,Highly agree,4,1698179358959,1698179361636,\Highly agree\,\Highly agree\,\4\,1698179360626,1698179360626,1667,1667,2677,buq,qns-item-noham,43,278505,0.0-1.0-0.42
<b>Sometimes the details of a matter seem to conflict with the big picture.,Highly disagree,44/150,Somewhat agree,3,1698179361641,1698179376427,\Somewhat agree\,\Somewhat agree\,\3\,1698179375484,1698179375484,13843,13843,14786,buq,qns-item-noham,44,293295,0.0-1.0-0.43
<b>Listening to people I disagree with makes my opinions better.,Highly disagree,45/150,Somewhat agree,3,1698179376433,1698179383675,\Somewhat agree\,\Somewhat agree\,\3\,1698179382817,1698179382817,6384,6384,7242,buq,qns-item-noham,45,300543,0.0-1.0-0.44
<b>Policies that sound bad are sometimes fine when you find out about their details.,Highly disagree,46/150,Somewhat agree,3,1698179383678,1698179389694,\Somewhat agree\,\Somewhat agree\,\3\,1698179388240,1698179388240,4562,4562,6016,buq,qns-item-noham,46,306562,0.0-1.0-0.45
"<b>The world is always changing, so my beliefs are sometimes out-dated.",Highly disagree,47/150,Highly agree,4,1698179389705,1698179394388,\Highly agree\,\Highly agree\,\4\,1698179393499,1698179393499,3794,3794,4683,buq,qns-item-noham,47,311256,0.0-1.0-0.46
"<b>If I receive a bad meal at my favorite restaurant and the food is surprisingly bad, I do not think much of it, and assume the chef is just having an ?off? day.",Highly disagree,48/150,Highly agree,4,1698179394392,1698179401091,\Highly agree\,\Highly agree\,\4\,1698179400165,1698179400165,5773,5773,6699,buq,qns-item-noham,48,317959,0.0-1.0-0.47
"<b>False information is unavoidable, to some extent.",Highly disagree,49/150,Highly agree,4,1698179401097,1698179404667,\Highly agree\,\Highly agree\,\4\,1698179403726,1698179403726,2629,2629,3570,buq,qns-item-noham,49,321535,0.0-1.0-0.48
<b>My moral compass sometimes makes it harder to determine what?s true.,Highly disagree,50/150,Somewhat agree,3,1698179404673,1698179410491,\Somewhat agree\,\Somewhat agree\,\3\,1698179409370,1698179409370,4697,4697,5818,buq,qns-item-noham,50,327359,0.0-1.0-0.49
"<b>When you disagree with someone, it?s important to listen to them carefully.",Highly disagree,51/150,Highly agree,4,1698179410499,1698179415311,\Highly agree\,\Highly agree\,\4\,1698179414316,1698179414316,3817,3817,4812,buq,qns-item-noham,51,332179,0.0-1.0-0.50
<b>Evidence pointing in the wrong direction isn?t really evidence at all.,Highly disagree,52/150,Highly agree,4,1698179415316,1698179422232,\Highly agree\,\Highly agree\,\4\,1698179421297,1698179421297,5981,5981,6916,buq,qns-item-noham,52,339100,0.0-1.0-0.51
"<b>If the political party I support messes up, it makes me think politics is rotten.",Highly disagree,53/150,Somewhat agree,3,1698179422236,1698179438622,\Somewhat agree\,\Somewhat agree\,\3\,1698179437637,1698179437637,15401,15401,16386,buq,qns-item-noham,53,355490,0.0-1.0-0.52
<b>Lots of important topics can only really be understood by some groups of people.,Highly disagree,54/150,Somewhat disagree,2,1698179438629,1698179444265,\Somewhat disagree\,\Somewhat disagree\,\2\,1698179443331,1698179443331,4702,4702,5636,buq,qns-item-noham,54,361133,0.0-1.0-0.53
<b>Details almost always matter for being right about something.,Highly disagree,55/150,Somewhat agree,3,1698179444271,1698179448988,\Somewhat agree\,\Somewhat agree\,\3\,1698179448012,1698179448012,3741,3741,4717,buq,qns-item-noham,55,365856,0.0-1.0-0.54
"<b>The most important thing in politics is winning, not convincing people.",Highly disagree,56/150,Somewhat disagree,2,1698179448993,1698179454965,\Somewhat disagree\,\Somewhat disagree\,\2\,1698179454070,1698179454070,5077,5077,5972,buq,qns-item-noham,56,371833,0.0-1.0-0.55
<b>Having conflicting beliefs means you haven?t thought about them enough.,Highly disagree,57/150,Highly disagree,1,1698179454971,1698179459734,\Highly disagree\,\Highly disagree\,\1\,1698179458504,1698179458504,3533,3533,4763,buq,qns-item-noham,57,376602,0.0-1.0-0.56
<b>Other people have sometimes convinced me to change my mind on important topics.,Highly disagree,58/150,Somewhat agree,3,1698179459738,1698179472567,\Somewhat agree\,\Somewhat agree\,\3\,1698179471623,1698179471623,11885,11885,12829,buq,qns-item-noham,58,389435,0.0-1.0-0.57
<b>I do not often change my political opinions.,Highly disagree,59/150,Somewhat agree,3,1698179472575,1698179476888,\Somewhat agree\,\Somewhat agree\,\3\,1698179475923,1698179475923,3348,3348,4313,buq,qns-item-noham,59,393756,0.0-1.0-0.58
<b>Thinking about how different things relate to one another is critical in life.,Highly disagree,60/150,Highly agree,4,1698179476894,1698179480314,\Highly agree\,\Highly agree\,\4\,1698179479251,1698179479251,2357,2357,3420,buq,qns-item-noham,60,397182,0.0-1.0-0.59
<b>True beliefs can have unfortunate implications.,Highly disagree,61/150,Highly agree,4,1698179480321,1698179484156,\Highly agree\,\Highly agree\,\4\,1698179483139,1698179483139,2818,2818,3835,buq,qns-item-noham,61,401024,0.0-1.0-0.60
<b>It?s difficult to not have at least some conflicting beliefs.,Highly disagree,62/150,Highly agree,4,1698179484159,1698179493676,\Highly agree\,\Highly agree\,\4\,1698179492731,1698179492731,8572,8572,9517,buq,qns-item-noham,62,410544,0.0-1.0-0.61
"<b>When I learn new things, I think deeply about how my opinions should change.",Highly disagree,63/150,Somewhat agree,3,1698179493679,1698179498129,\Somewhat agree\,\Somewhat agree\,\3\,1698179497265,1698179497265,3586,3586,4450,buq,qns-item-noham,63,414997,0.0-1.0-0.62
<b>I think a lot about how to interpret different sorts of evidence.,Highly disagree,64/150,Somewhat agree,3,1698179498138,1698179503748,\Somewhat agree\,\Somewhat agree\,\3\,1698179502800,1698179502800,4662,4662,5610,buq,qns-item-noham,64,420616,0.0-1.0-0.63
<b>Politics is about thinking together and finding compromises.,Highly disagree,65/150,Highly agree,4,1698179503755,1698179508710,\Highly agree\,\Highly agree\,\4\,1698179507759,1698179507759,4004,4004,4955,buq,qns-item-noham,65,425578,0.0-1.0-0.64
<b>Wishful thinking causes a lot of problems.,Highly disagree,66/150,Highly agree,4,1698179508715,1698179511876,\Highly agree\,\Highly agree\,\4\,1698179511023,1698179511023,2308,2308,3161,buq,qns-item-noham,66,428744,0.0-1.0-0.65
<b>I judge a food item only once I try it many times.,Highly disagree,67/150,Somewhat disagree,2,1698179511880,1698179518980,\Somewhat disagree\,\Somewhat disagree\,\2\,1698179518129,1698179518129,6249,6249,7100,buq,qns-item-noham,67,435848,0.0-1.0-0.66
"<b>When a person holds conflicting beliefs, they should really try to figure out what?s wrong.",Highly disagree,68/150,Somewhat agree,3,1698179518986,1698179524909,\Somewhat agree\,\Somewhat agree\,\3\,1698179523915,1698179523915,4929,4929,5923,buq,qns-item-noham,68,441777,0.0-1.0-0.67
<b>Knowing what?s important in life is easy.,Highly disagree,69/150,Somewhat disagree,2,1698179524918,1698179529789,\Somewhat disagree\,\Somewhat disagree\,\2\,1698179528863,1698179528863,3945,3945,4871,buq,qns-item-noham,69,446658,0.0-1.0-0.68
<b>Lots of smart people disagree about basic political questions.,Highly disagree,70/150,Highly agree,4,1698179529794,1698179546581,\Highly agree\,\Highly agree\,\4\,1698179545641,1698179545641,15847,15847,16787,buq,qns-item-noham,70,463449,0.0-1.0-0.69
<b>I swim across the Atlantic Ocean to get to work every day.,Highly disagree,71/150,Highly disagree,1,1698179546585,1698179550756,\Highly disagree\,\Highly disagree\,\1\,1698179549257,1698179549257,2672,2672,4171,buq,qns-item-noham,71,467624,0.0-1.0-0.70
"<b>Sometimes, you just have to ignore evidence that you know is wrong.",Highly disagree,72/150,Highly agree,4,1698179550761,1698179555587,\Highly agree\,\Highly agree\,\4\,1698179554429,1698179554429,3668,3668,4826,buq,qns-item-noham,72,472456,0.0-1.0-0.71
<b>I have had some false beliefs.,Highly disagree,73/150,Somewhat agree,3,1698179555591,1698179558585,\Somewhat agree\,\Somewhat agree\,\3\,1698179557578,1698179557578,1987,1987,2994,buq,qns-item-noham,73,475453,0.0-1.0-0.72
"<b>If one friend does something that upsets me, I sometimes start to distrust people in general.",Highly disagree,74/150,Highly agree,4,1698179558590,1698179563979,\Highly agree\,\Highly agree\,\4\,1698179562996,1698179562996,4406,4406,5389,buq,qns-item-noham,74,480847,0.0-1.0-0.73
<b>I easily apply what I learn in one situation to another.,Highly disagree,75/150,Somewhat agree,3,1698179563984,1698179569691,\Somewhat agree\,\Somewhat agree\,\3\,1698179568786,1698179568786,4802,4802,5707,buq,qns-item-noham,75,486559,0.0-1.0-0.74
<b>The facts about most important matters are easy to find.,Highly disagree,76/150,Somewhat disagree,2,1698179569698,1698179576108,\Somewhat disagree\,\Somewhat disagree\,\2\,1698179575245,1698179575245,5547,5547,6410,buq,qns-item-noham,76,492976,0.0-1.0-0.75
<b>It?s better to know what?s true than to know what?s moral.,Highly disagree,77/150,Highly disagree,1,1698179576114,1698179580906,\Highly disagree\,\Highly disagree\,\1\,1698179580040,1698179580040,3926,3926,4792,buq,qns-item-noham,77,497774,0.0-1.0-0.76
<b>It?s good to be skeptical of people you agree with.,Highly disagree,78/150,Highly agree,4,1698179580911,1698179584996,\Highly agree\,\Highly agree\,\4\,1698179583746,1698179583746,2835,2835,4085,buq,qns-item-noham,78,501866,0.0-1.0-0.77
<b>Sometimes reasonable beliefs are wrong.,Highly disagree,79/150,Highly agree,4,1698179585009,1698179587868,\Highly agree\,\Highly agree\,\4\,1698179586977,1698179586977,1968,1968,2859,buq,qns-item-noham,79,504736,0.0-1.0-0.78
<b>I used to think the world was less complicated than I do now.,Highly disagree,80/150,Somewhat agree,3,1698179587874,1698179597475,\Somewhat agree\,\Somewhat agree\,\3\,1698179596672,1698179596672,8798,8798,9601,buq,qns-item-noham,80,514343,0.0-1.0-0.79
<b>People are usually completely right or completely wrong.,Highly disagree,81/150,Highly disagree,1,1698179597482,1698179608554,\Highly disagree\,\Highly disagree\,\1\,1698179604663,1698179604663,7181,7181,11072,buq,qns-item-noham,81,525422,0.0-1.0-0.80
<b>I spend a lot of time considering alternatives to my beliefs.,Highly disagree,82/150,Somewhat disagree,2,1698179608563,1698179616029,\Somewhat disagree\,\Somewhat disagree\,\2\,1698179615138,1698179615138,6575,6575,7466,buq,qns-item-noham,82,532897,0.0-1.0-0.81
"<b>Political enemies need to be defeated, not convinced.",Highly disagree,83/150,Somewhat disagree,2,1698179616033,1698179621808,\Somewhat disagree\,\Somewhat disagree\,\2\,1698179620989,1698179620989,4956,4956,5775,buq,qns-item-noham,83,538676,0.0-1.0-0.82
"<b>When forming an opinion about a restaurant, I am more swayed by my  latest meal there than  previous meals I?ve had there.",Highly disagree,84/150,Somewhat agree,3,1698179621813,1698179632207,\Somewhat agree\,\Somewhat agree\,\3\,1698179629256,1698179629256,7443,7443,10394,buq,qns-item-noham,84,549076,0.0-1.0-0.83
<b>I try to remain skeptical about most topics.,Highly disagree,85/150,Somewhat agree,3,1698179632218,1698179635466,\Somewhat agree\,\Somewhat agree\,\3\,1698179634643,1698179634643,2425,2425,3248,buq,qns-item-noham,85,552334,0.0-1.0-0.84
<b>Being wrong is usually obvious in retrospect.,Highly disagree,86/150,Somewhat disagree,2,1698179635470,1698179649243,\Somewhat disagree\,\Somewhat disagree\,\2\,1698179648312,1698179648312,12842,12842,13773,buq,qns-item-noham,86,566111,0.0-1.0-0.85
<b>It can be hard to realize that my beliefs are in conflict.,Highly disagree,87/150,Highly agree,4,1698179649252,1698179663540,\Highly agree\,\Highly agree\,\4\,1698179662652,1698179662652,13400,13400,14288,buq,qns-item-noham,87,580408,0.0-1.0-0.86
<b>I form my political views only after meticulously gathering historical and present information about their policies.,Highly disagree,88/150,Somewhat disagree,2,1698179663548,1698179678957,\Somewhat disagree\,\Somewhat disagree\,\2\,1698179678010,1698179678010,14462,14462,15409,buq,qns-item-noham,88,595825,0.0-1.0-0.87
<b>Skeptical people are usually just bad-tempered.,Highly disagree,89/150,Highly disagree,1,1698179678961,1698179683843,\Highly disagree\,\Highly disagree\,\1\,1698179682926,1698179682926,3965,3965,4882,buq,qns-item-noham,89,600711,0.0-1.0-0.88
<b>It is difficult for me to remember the last time I was surprised by politics.,Highly disagree,90/150,Highly agree,4,1698179683848,1698179687716,\Highly agree\,\Highly agree\,\4\,1698179686585,1698179686585,2737,2737,3868,buq,qns-item-noham,90,604585,0.0-1.0-0.89
"<b>When I find out I?m wrong, I think a lot about my related beliefs.",Highly disagree,91/150,Somewhat agree,3,1698179687728,1698179692989,\Somewhat agree\,\Somewhat agree\,\3\,1698179692053,1698179692053,4325,4325,5261,buq,qns-item-noham,91,609860,0.0-1.0-0.90
"<b>If the political party I support messes up, it makes me think you can?t trust anyone these days",Highly disagree,92/150,Highly agree,4,1698179692997,1698179697805,\Highly agree\,\Highly agree\,\4\,1698179696744,1698179696744,3747,3747,4808,buq,qns-item-noham,92,614673,0.0-1.0-0.91
<b>People?s brains turn off when they talk about politics.,Highly disagree,93/150,Somewhat disagree,2,1698179697808,1698179701852,\Somewhat disagree\,\Somewhat disagree\,\2\,1698179700962,1698179700962,3154,3154,4044,buq,qns-item-noham,93,618720,0.0-1.0-0.92
<b>People who are wrong are usually just ignoring the obvious.,Highly disagree,94/150,Somewhat disagree,2,1698179701857,1698179709834,\Somewhat disagree\,\Somewhat disagree\,\2\,1698179708957,1698179708957,7100,7100,7977,buq,qns-item-noham,94,626702,0.0-1.0-0.93
"<b>The world isn?t that complicated, but it?s still hard to figure out how it works.",Highly disagree,95/150,Highly agree,4,1698179709838,1698179719880,\Highly agree\,\Highly agree\,\4\,1698179719075,1698179719075,9237,9237,10042,buq,qns-item-noham,95,636748,0.0-1.0-0.94
"<b>When forming my views on people, I rely more on what they are like now rather than rely on my past experience with them.",Highly disagree,96/150,Somewhat disagree,2,1698179719884,1698179783982,\Somewhat disagree\,\Somewhat disagree\,\2\,1698179783121,1698179783121,63237,63237,64098,buq,qns-item-noham,96,700851,0.0-1.0-0.95
"<b>When people contradict my beliefs, I usually know about their evidence already.",Highly disagree,97/150,Somewhat disagree,2,1698179783993,1698179796707,\Somewhat disagree\,\Somewhat disagree\,\2\,1698179795876,1698179795876,11883,11883,12714,buq,qns-item-noham,97,713575,0.0-1.0-0.96
<b>Being wrong is a matter of degree.,Highly disagree,98/150,Highly disagree,1,1698179796715,1698179804492,\Somewhat agree\,\Highly disagree\,\3\,1698179802155,1698179803622,5440,6907,7777,buq,qns-item-noham,98,721360,0.0-1.0-0.97
<b>Figuring out what?s true and what?s false mainly requires a strong moral compass.,Highly disagree,99/150,Highly agree,4,1698179804506,1698179813823,\Highly agree\,\Highly agree\,\4\,1698179812894,1698179812894,8388,8388,9317,buq,qns-item-noham,99,730691,0.0-1.0-0.98
<b>Most of the beliefs people have are at least somewhat understandable.,Highly disagree,100/150,Somewhat agree,3,1698179813827,1698179818142,\Somewhat agree\,\Somewhat agree\,\3\,1698179817147,1698179817147,3320,3320,4315,buq,qns-item-noham,100,735010,0.0-1.0-0.99
"<b>Usually I?m wrong about simple things, not complicated ones.",Highly disagree,101/150,Somewhat disagree,2,1698179818149,1698179824790,\Somewhat disagree\,\Somewhat disagree\,\2\,1698179823941,1698179823941,5792,5792,6641,buq,qns-item-noham,101,741658,0.0-1.0-0.100
<b>Getting all the information I want about important things is hard.,Highly disagree,102/150,Somewhat agree,3,1698179824793,1698179837527,\Somewhat agree\,\Somewhat agree\,\3\,1698179836713,1698179836713,11920,11920,12734,buq,qns-item-noham,102,754395,0.0-1.0-0.101
<b>Most false beliefs spread because people try to deceive one another.,Highly disagree,103/150,Highly disagree,1,1698179837530,1698179843286,\Highly disagree\,\Highly disagree\,\1\,1698179842465,1698179842465,4935,4935,5756,buq,qns-item-noham,103,760154,0.0-1.0-0.102
<b>I can usually find something to agree with in most people?s beliefs.,Highly disagree,104/150,Somewhat agree,3,1698179843292,1698179852020,\Somewhat agree\,\Somewhat agree\,\3\,1698179851155,1698179851155,7863,7863,8728,buq,qns-item-noham,104,768888,0.0-1.0-0.103
<b>I only form my views of people once I get to know them very well.,Highly disagree,105/150,Somewhat disagree,2,1698179852030,1698179863130,\Somewhat disagree\,\Somewhat disagree\,\2\,1698179862210,1698179862210,10180,10180,11100,buq,qns-item-noham,105,779998,0.0-1.0-0.104
"<b>When people tell me important things about the world, I usually believe them.",Highly disagree,106/150,Somewhat disagree,2,1698179863134,1698179867042,\Somewhat disagree\,\Somewhat disagree\,\2\,1698179866200,1698179866200,3066,3066,3908,buq,qns-item-noham,106,783910,0.0-1.0-0.105
"<b>If a friend does something that upsets me, it reminds me what an unpredictable place the world is.",Highly disagree,107/150,Somewhat agree,3,1698179867049,1698179871051,\Somewhat agree\,\Somewhat agree\,\3\,1698179870103,1698179870103,3054,3054,4002,buq,qns-item-noham,107,787919,0.0-1.0-0.106
<b>Having some conflicting beliefs is inevitable.,Highly disagree,108/150,Highly agree,4,1698179871060,1698179874305,\Highly agree\,\Highly agree\,\4\,1698179873320,1698179873320,2260,2260,3245,buq,qns-item-noham,108,791173,0.0-1.0-0.107
<b>People are wrong because they haven?t thought much about things.,Highly disagree,109/150,Somewhat disagree,2,1698179874312,1698179878598,\Somewhat disagree\,\Somewhat disagree\,\2\,1698179877657,1698179877657,3345,3345,4286,buq,qns-item-noham,109,795466,0.0-1.0-0.108
<b>People tend to believe whatever is good for their friends.,Highly disagree,110/150,Somewhat agree,3,1698179878602,1698179882036,\Somewhat agree\,\Somewhat agree\,\3\,1698179881098,1698179881098,2496,2496,3434,buq,qns-item-noham,110,798904,0.0-1.0-0.109
"<b>When I talk about important topics, I try to make sure people know I?m not always right.",Highly disagree,111/150,Somewhat agree,3,1698179882046,1698179887458,\Somewhat agree\,\Somewhat agree\,\3\,1698179886590,1698179886590,4544,4544,5412,buq,qns-item-noham,111,804326,0.0-1.0-0.110
<b>I used to be more certain my beliefs were true.,Highly disagree,112/150,Highly agree,4,1698179887463,1698179890628,\Highly agree\,\Highly agree\,\4\,1698179889775,1698179889775,2312,2312,3165,buq,qns-item-noham,112,807496,0.0-1.0-0.111
<b>It?s often pretty easy to figure out whether something is true based on who said it.,Highly disagree,113/150,Somewhat disagree,2,1698179890635,1698179895787,\Somewhat disagree\,\Somewhat disagree\,\2\,1698179894829,1698179894829,4194,4194,5152,buq,qns-item-noham,113,812655,0.0-1.0-0.112
<b>Having bad food in my favorite restaurant will make me think the restaurant is no longer good.,Highly disagree,114/150,Highly agree,4,1698179895794,1698179899809,\Highly agree\,\Highly agree\,\4\,1698179898961,1698179898961,3167,3167,4015,buq,qns-item-noham,114,816677,0.0-1.0-0.113
<b>I transform into a hummingbird every day.,Highly disagree,115/150,Highly disagree,1,1698179899817,1698179903980,\Highly disagree\,\Highly disagree\,\1\,1698179902069,1698179902069,2252,2252,4163,buq,qns-item-noham,115,820848,0.0-1.0-0.114
"<b>Unfortunately, when people are wrong, it?s usually because they?re bad.",Highly disagree,116/150,Highly disagree,1,1698179903996,1698179908122,\Highly disagree\,\Highly disagree\,\1\,1698179907225,1698179907225,3229,3229,4126,buq,qns-item-noham,116,824990,0.0-1.0-0.115
<b>I think a lot about arguments against my views.,Highly disagree,117/150,Somewhat disagree,2,1698179908127,1698179913770,\Somewhat disagree\,\Somewhat disagree\,\2\,1698179912789,1698179912789,4662,4662,5643,buq,qns-item-noham,117,830638,0.0-1.0-0.116
<b>Details tend to matter a lot for knowing whether a policy is good.,Highly disagree,118/150,Highly agree,4,1698179913780,1698179924802,\Highly agree\,\Highly agree\,\4\,1698179923989,1698179923989,10209,10209,11022,buq,qns-item-noham,118,841670,0.0-1.0-0.117
<b>Personal experience is usually more important than facts and figures.,Highly disagree,119/150,Highly disagree,1,1698179924808,1698179940152,\Highly disagree\,\Highly disagree\,\1\,1698179938914,1698179938914,14106,14106,15344,buq,qns-item-noham,119,857020,0.0-1.0-0.118
<b>I?ve been tricked before about important matters.,Highly disagree,120/150,Somewhat agree,3,1698179940164,1698179943484,\Somewhat agree\,\Somewhat agree\,\3\,1698179942609,1698179942609,2445,2445,3320,buq,qns-item-noham,120,860352,0.0-1.0-0.119
<b>I would need to be totally wowed if I were to change my opinion of a restaurant I don?t like.,Highly disagree,121/150,Highly agree,4,1698179943490,1698179952068,\Highly agree\,\Highly agree\,\4\,1698179951200,1698179951200,7710,7710,8578,buq,qns-item-noham,121,868937,0.0-1.0-0.120
<b>I care a lot about politics.,Highly disagree,122/150,Somewhat agree,3,1698179952073,1698179955060,\Somewhat agree\,\Somewhat agree\,\3\,1698179954065,1698179954065,1992,1992,2987,buq,qns-item-noham,122,871928,0.0-1.0-0.121
<b>People with conflicting beliefs usually have some facts they disagree on.,Highly disagree,123/150,Highly agree,4,1698179955067,1698179960262,\Highly agree\,\Highly agree\,\4\,1698179959232,1698179959232,4165,4165,5195,buq,qns-item-noham,123,877130,0.0-1.0-0.122
<b>There are some topics I?ve been really wrong about.,Highly disagree,124/150,Highly agree,4,1698179960269,1698179964323,\Highly agree\,\Highly agree\,\4\,1698179963380,1698179963380,3111,3111,4054,buq,qns-item-noham,124,881191,0.0-1.0-0.123
<b>Most beliefs can be supported with at least some evidence.,Highly disagree,125/150,Somewhat agree,3,1698179964335,1698179968213,\Somewhat agree\,\Somewhat agree\,\3\,1698179967362,1698179967362,3027,3027,3878,buq,qns-item-noham,125,885081,0.0-1.0-0.124
<b>Other people make life out to be more complicated than it really is.,Highly disagree,126/150,Somewhat agree,3,1698179968221,1698179972795,\Somewhat agree\,\Somewhat agree\,\3\,1698179971562,1698179971562,3341,3341,4574,buq,qns-item-noham,126,889664,0.0-1.0-0.125
"<b>My political views are being shaped continuously as I gather more information, rather than relying on what I?ve known to be true of my party in the past. ",Highly disagree,127/150,Highly agree,4,1698179972803,1698179978668,\Highly agree\,\Highly agree\,\4\,1698179977694,1698179977694,4891,4891,5865,buq,qns-item-noham,127,895536,0.0-1.0-0.126
<b>It?s pretty unusual for true things to seem false.,Highly disagree,128/150,Highly disagree,1,1698179978675,1698179984973,\Highly disagree\,\Highly disagree\,\1\,1698179983461,1698179983461,4786,4786,6298,buq,qns-item-noham,128,901841,0.0-1.0-0.127
"<b>Policy details don?t matter much, just the big picture.",Highly disagree,129/150,Highly disagree,1,1698179984982,1698179988703,\Highly disagree\,\Highly disagree\,\1\,1698179987556,1698179987556,2574,2574,3721,buq,qns-item-noham,129,905571,0.0-1.0-0.128
<b>I know my friends so well they can hardly ever surprise me.,Highly disagree,130/150,Somewhat disagree,2,1698179988712,1698179992551,\Somewhat disagree\,\Somewhat disagree\,\2\,1698179991367,1698179991367,2655,2655,3839,buq,qns-item-noham,130,909419,0.0-1.0-0.129
"<b>When I talk to people, I often think about why they have the beliefs they do.",Highly disagree,131/150,Highly agree,4,1698179992563,1698179996943,\Highly agree\,\Highly agree\,\4\,1698179995957,1698179995957,3394,3394,4380,buq,qns-item-noham,131,913811,0.0-1.0-0.130
<b>I do not often change my views on people.,Highly disagree,132/150,Somewhat disagree,2,1698179996947,1698180001490,\Somewhat disagree\,\Somewhat disagree\,\2\,1698180000404,1698180000404,3457,3457,4543,buq,qns-item-noham,132,918359,0.0-1.0-0.131
<b>I often wish I had more time to spend figuring out what?s true and what?s false in life.,Highly disagree,133/150,Highly agree,4,1698180001498,1698180009880,\Highly agree\,\Highly agree\,\4\,1698180008922,1698180008922,7424,7424,8382,buq,qns-item-noham,133,926748,0.0-1.0-0.132
<b>I?m more certain about my beliefs than I used to be.,Highly disagree,134/150,Somewhat disagree,2,1698180009883,1698180013867,\Somewhat disagree\,\Somewhat disagree\,\2\,1698180012872,1698180012872,2989,2989,3984,buq,qns-item-noham,134,930735,0.0-1.0-0.133
"<b>Whenever I find out new information, I update my views on politics accordingly.",Highly disagree,135/150,Somewhat agree,3,1698180013871,1698180017973,\Somewhat agree\,\Somewhat agree\,\3\,1698180016770,1698180016770,2899,2899,4102,buq,qns-item-noham,135,934841,0.0-1.0-0.134
<b>People often tell falsehoods unintentionally.,Highly disagree,136/150,Highly agree,4,1698180017984,1698180021620,\Highly agree\,\Highly agree\,\4\,1698180020702,1698180020702,2718,2718,3636,buq,qns-item-noham,136,938488,0.0-1.0-0.135
<b>Most people don?t know much about most things.,Highly disagree,137/150,Somewhat disagree,2,1698180021623,1698180025283,\Somewhat disagree\,\Somewhat disagree\,\2\,1698180024296,1698180024296,2673,2673,3660,buq,qns-item-noham,137,942151,0.0-1.0-0.136
"<b>If I find out something new about someone, I easily change my views about them.",Highly disagree,138/150,Somewhat agree,3,1698180025288,1698180028901,\Somewhat agree\,\Somewhat agree\,\3\,1698180027847,1698180027847,2559,2559,3613,buq,qns-item-noham,138,945769,0.0-1.0-0.137
<b>Having true beliefs is difficult.,Highly disagree,139/150,Highly agree,4,1698180028907,1698180032092,\Highly agree\,\Highly agree\,\4\,1698180031132,1698180031132,2225,2225,3185,buq,qns-item-noham,139,948960,0.0-1.0-0.138
<b>I don?t try new foods since I know I won?t like them.,Highly disagree,140/150,Highly disagree,1,1698180032099,1698180036077,\Highly disagree\,\Highly disagree\,\1\,1698180034790,1698180034790,2691,2691,3978,buq,qns-item-noham,140,952946,0.0-1.0-0.139
<b>It?s easy to figure out what?s true or false based on who?s saying it.,Highly disagree,141/150,Highly disagree,1,1698180036090,1698180039658,\Highly disagree\,\Highly disagree\,\1\,1698180038760,1698180038760,2670,2670,3568,buq,qns-item-noham,141,956526,0.0-1.0-0.140
<b>False things have seemed true to me many times.,Highly disagree,142/150,Highly agree,4,1698180039663,1698180043776,\Highly agree\,\Highly agree\,\4\,1698180042712,1698180042712,3049,3049,4113,buq,qns-item-noham,142,960644,0.0-1.0-0.141
<b>It?s pretty easy to sort out what?s true and what?s false in life.,Highly disagree,143/150,Highly disagree,1,1698180043782,1698180047765,\Highly disagree\,\Highly disagree\,\1\,1698180046938,1698180046938,3156,3156,3983,buq,qns-item-noham,143,964633,0.0-1.0-0.142
<b>Knowing lots of statistics about something is usually important for understanding it.,Highly disagree,144/150,Somewhat agree,3,1698180047770,1698180053670,\Somewhat agree\,\Somewhat agree\,\3\,1698180052738,1698180052738,4968,4968,5900,buq,qns-item-noham,144,970538,0.0-1.0-0.143
<b>Other people trick each other a lot.,Highly disagree,145/150,Somewhat disagree,2,1698180053674,1698180056838,\Somewhat disagree\,\Somewhat disagree\,\2\,1698180055969,1698180055969,2295,2295,3164,buq,qns-item-noham,145,973707,0.0-1.0-0.144
<b>I would need to learn a lot about a person for my opinion of them to be swayed.,Highly disagree,146/150,Somewhat agree,3,1698180056843,1698180061880,\Somewhat agree\,\Somewhat agree\,\3\,1698180060980,1698180060980,4137,4137,5037,buq,qns-item-noham,146,978748,0.0-1.0-0.145
<b>People can?t usually trick me when it comes to topics I care about.,Highly disagree,147/150,Somewhat disagree,2,1698180061885,1698180072035,\Somewhat disagree\,\Somewhat disagree\,\2\,1698180070734,1698180070734,8849,8849,10150,buq,qns-item-noham,147,988903,0.0-1.0-0.146
<b>I do not often change my views on food.,Highly disagree,148/150,Highly disagree,1,1698180072045,1698180075265,\Highly disagree\,\Highly disagree\,\1\,1698180074394,1698180074394,2349,2349,3220,buq,qns-item-noham,148,992133,0.0-1.0-0.147
<b>Specific policies are often very important to me.,Highly disagree,149/150,Somewhat agree,3,1698180075270,1698180079002,\Somewhat agree\,\Somewhat agree\,\3\,1698180077729,1698180077729,2459,2459,3732,buq,qns-item-noham,149,995870,0.0-1.0-0.148
<b>Most people are woefully under-informed.,Highly disagree,150/150,Somewhat agree,3,1698180079009,1698180083170,\Somewhat agree\,\Somewhat agree\,\3\,1698180082227,1698180082227,3218,3218,4161,buq,qns-item-noham,150,1000038,0.0-1.0-0.149
