Question,qns_options,quest_num,answer,answer_num,question_load_timestamp,next_btn_timestamp,text_selected,final_text_selected,option_num_selected,preview_timestamps,final_text_selected_time_stamp,rt_first_option_click,rt_final_option_click,rt_submit_click,questionnaire,trial_type,trial_index,time_elapsed,internal_node_id
<b>Considering other people?s perspectives can help us figure out what?s true or false.,Highly disagree,1/150,Somewhat disagree,2,1698178481500,1698178492865,\Somewhat disagree\,\Somewhat disagree\,\2\,1698178491367,1698178491367,9867,9867,11365,buq,qns-item-noham,1,17179,0.0-1.0-0.0
<b>Knowing what?s true and knowing what to do about it are usually basically the same.,Highly disagree,2/150,Somewhat disagree,2,1698178492869,1698178499365,\Somewhat disagree\,\Somewhat disagree\,\2\,1698178498549,1698178498549,5680,5680,6496,buq,qns-item-noham,2,23679,0.0-1.0-0.1
<b>Most people just believe whatever is convenient for them.,Highly disagree,3/150,Somewhat agree,3,1698178499366,1698178502533,\Somewhat agree\,\Somewhat agree\,\3\,1698178501548,1698178501548,2182,2182,3167,buq,qns-item-noham,3,26847,0.0-1.0-0.2
<b>Even people who are wrong about most things can be right sometimes.,Highly disagree,4/150,Somewhat agree,3,1698178502534,1698178507416,\Somewhat agree\,\Somewhat agree\,\3\,1698178506700,1698178506700,4166,4166,4882,buq,qns-item-noham,4,31730,0.0-1.0-0.3
"<b>If the political party I support does something that upsets me, then the party may have changed, and I need to re-evaluate my support.",Highly disagree,5/150,Somewhat agree,3,1698178507417,1698178515482,\Somewhat agree\,\Somewhat agree\,\3\,1698178514648,1698178514648,7231,7231,8065,buq,qns-item-noham,5,39796,0.0-1.0-0.4
"<b>When people disagree, one side is usually completely right.",Highly disagree,6/150,Somewhat disagree,2,1698178515484,1698178519700,\Somewhat disagree\,\Somewhat disagree\,\2\,1698178518849,1698178518849,3365,3365,4216,buq,qns-item-noham,6,44015,0.0-1.0-0.5
<b>People have lots of false beliefs.,Highly disagree,7/150,Highly agree,4,1698178519702,1698178523017,\Highly agree\,\Highly agree\,\4\,1698178522149,1698178522149,2447,2447,3315,buq,qns-item-noham,7,47331,0.0-1.0-0.6
<b>Having some big beliefs helps me sort out minor ones.,Highly disagree,8/150,Somewhat agree,3,1698178523018,1698178529167,\Somewhat agree\,\Somewhat agree\,\3\,1698178528299,1698178528299,5281,5281,6149,buq,qns-item-noham,8,53481,0.0-1.0-0.7
<b>Political questions are usually pretty complicated.,Highly disagree,9/150,Highly agree,4,1698178529168,1698178532984,\Highly agree\,\Highly agree\,\4\,1698178532148,1698178532148,2980,2980,3816,buq,qns-item-noham,9,57298,0.0-1.0-0.8
<b>Figuring out what?s important in life requires learning a lot of facts.,Highly disagree,10/150,Highly agree,4,1698178532985,1698178539065,\Highly agree\,\Highly agree\,\4\,1698178535432,1698178535432,2447,2447,6080,buq,qns-item-noham,10,63379,0.0-1.0-0.9
<b>It is difficult for me to remember the last time I was surprised by politics.,Highly disagree,11/150,Somewhat agree,3,1698178539066,1698178545215,\Highly agree\,\Somewhat agree\,\4\,1698178542099,1698178544232,3033,5166,6149,buq,qns-item-noham,11,69529,0.0-1.0-0.10
<b>People?s false beliefs are understandable.,Highly disagree,12/150,Somewhat disagree,2,1698178545217,1698178548231,\Somewhat disagree\,\Somewhat disagree\,\2\,1698178547398,1698178547398,2181,2181,3014,buq,qns-item-noham,12,72545,0.0-1.0-0.11
<b>I spend a lot of time trying to be informed about politics.,Highly disagree,13/150,Highly disagree,1,1698178548233,1698178552815,\Highly disagree\,\Highly disagree\,\1\,1698178551749,1698178551749,3516,3516,4582,buq,qns-item-noham,13,77129,0.0-1.0-0.12
<b>I think a lot about whether my beliefs are right.,Highly disagree,14/150,Somewhat disagree,2,1698178552815,1698178556315,\Somewhat disagree\,\Somewhat disagree\,\2\,1698178555282,1698178555282,2467,2467,3500,buq,qns-item-noham,14,80629,0.0-1.0-0.13
<b>Statistics can be pretty misleading sometimes.,Highly disagree,15/150,Highly agree,4,1698178556316,1698178560018,\Highly agree\,\Highly agree\,\4\,1698178559266,1698178559266,2950,2950,3702,buq,qns-item-noham,15,84332,0.0-1.0-0.14
<b>Figuring out what?s true and what?s false takes a lot of time and effort.,Highly disagree,16/150,Highly agree,4,1698178560019,1698178563651,\Highly agree\,\Highly agree\,\4\,1698178562849,1698178562849,2830,2830,3632,buq,qns-item-noham,16,87965,0.0-1.0-0.15
"<b>If a friend does something bad to me, it was likely an error on their part.",Highly disagree,17/150,Highly agree,4,1698178563652,1698178568015,\Highly agree\,\Highly agree\,\4\,1698178567132,1698178567132,3480,3480,4363,buq,qns-item-noham,17,92329,0.0-1.0-0.16
<b>I have lots of beliefs that I?m only sort of sure about.,Highly disagree,18/150,Somewhat agree,3,1698178568016,1698178573031,\Somewhat agree\,\Somewhat agree\,\3\,1698178572415,1698178572415,4399,4399,5015,buq,qns-item-noham,18,97345,0.0-1.0-0.17
"<b>If I go to my favorite restaurant and the food is surprisingly bad, it reminds me there are many disappointments in life.",Highly disagree,19/150,Somewhat agree,3,1698178573032,1698178578349,\Somewhat agree\,\Somewhat agree\,\3\,1698178577615,1698178577615,4583,4583,5317,buq,qns-item-noham,19,102663,0.0-1.0-0.18
<b>Sometimes my beliefs are inconvenient for me.,Highly disagree,20/150,Somewhat agree,3,1698178578350,1698178581765,\Somewhat agree\,\Somewhat agree\,\3\,1698178581082,1698178581082,2732,2732,3415,buq,qns-item-noham,20,106079,0.0-1.0-0.19
<b>Paying attention to multiple news sources is important.,Highly disagree,21/150,Somewhat agree,3,1698178581767,1698178585915,\Somewhat agree\,\Somewhat agree\,\3\,1698178585219,1698178585219,3452,3452,4148,buq,qns-item-noham,21,110229,0.0-1.0-0.20
"<b>If you are paying attention, please select ?Somewhat agree?",Highly disagree,22/150,Somewhat agree,3,1698178585917,1698178589167,\Somewhat agree\,\Somewhat agree\,\3\,1698178588216,1698178588216,2299,2299,3250,buq,qns-item-noham,22,113481,0.0-1.0-0.21
"<b>When I talk to others, I often worry I?ll convince them of something I didn?t mean to.",Highly disagree,23/150,Highly disagree,1,1698178589168,1698178593683,\Highly disagree\,\Highly disagree\,\1\,1698178592883,1698178592883,3715,3715,4515,buq,qns-item-noham,23,117997,0.0-1.0-0.22
<b>I would need to learn something utterly shocking about my party in order to change my political views.,Highly disagree,24/150,Highly agree,4,1698178593684,1698178600784,\Highly agree\,\Highly agree\,\4\,1698178600015,1698178600015,6331,6331,7100,buq,qns-item-noham,24,125098,0.0-1.0-0.23
"<b>When I have new experiences, I tend to think of them as unique.",Highly disagree,25/150,Highly agree,4,1698178600785,1698178605233,\Highly agree\,\Highly agree\,\4\,1698178604537,1698178604537,3752,3752,4448,buq,qns-item-noham,25,129547,0.0-1.0-0.24
<b>Reading lots of things is important for understanding the world.,Highly disagree,26/150,Somewhat agree,3,1698178605234,1698178608648,\Somewhat agree\,\Somewhat agree\,\3\,1698178607882,1698178607882,2648,2648,3414,buq,qns-item-noham,26,132962,0.0-1.0-0.25
<b>The world is complicated.,Highly disagree,27/150,Highly agree,4,1698178608649,1698178610948,\Highly agree\,\Highly agree\,\4\,1698178610165,1698178610165,1516,1516,2299,buq,qns-item-noham,27,135262,0.0-1.0-0.26
<b>I change my mind about specific policies pretty frequently.,Highly disagree,28/150,Highly disagree,1,1698178610950,1698178615433,\Highly disagree\,\Highly disagree\,\1\,1698178614648,1698178614648,3698,3698,4483,buq,qns-item-noham,28,139747,0.0-1.0-0.27
"<b>If a politician in my political party supports something I disagree with, I give them the benefit of the doubt, as such issues often involve hidden complexities that aren?t obvious.   ",Highly disagree,29/150,Somewhat agree,3,1698178615435,1698178622399,\Somewhat agree\,\Somewhat agree\,\3\,1698178620932,1698178620932,5497,5497,6964,buq,qns-item-noham,29,146713,0.0-1.0-0.28
<b>People?s bad politics are usually motivated by hatefulness.,Highly disagree,30/150,Somewhat agree,3,1698178622400,1698178625849,\Somewhat agree\,\Somewhat agree\,\3\,1698178625050,1698178625050,2650,2650,3449,buq,qns-item-noham,30,150163,0.0-1.0-0.29
"<b>Most new experiences are just like old ones, but a little bit different.",Highly disagree,31/150,Somewhat disagree,2,1698178625850,1698178632398,\Somewhat disagree\,\Somewhat disagree\,\2\,1698178631699,1698178631699,5849,5849,6548,buq,qns-item-noham,31,156712,0.0-1.0-0.30
<b>I think a lot about how to reconcile my beliefs with one another.,Highly disagree,32/150,Highly disagree,1,1698178632400,1698178636883,\Highly disagree\,\Highly disagree\,\1\,1698178635882,1698178635882,3482,3482,4483,buq,qns-item-noham,32,161197,0.0-1.0-0.31
<b>Personal experience rarely leads people astray.,Highly disagree,33/150,Somewhat disagree,2,1698178636884,1698178641048,\Somewhat disagree\,\Somewhat disagree\,\2\,1698178640215,1698178640215,3331,3331,4164,buq,qns-item-noham,33,165362,0.0-1.0-0.32
<b>I might have false beliefs about important topics.,Highly disagree,34/150,Somewhat agree,3,1698178641049,1698178644950,\Somewhat agree\,\Somewhat agree\,\3\,1698178644215,1698178644215,3166,3166,3901,buq,qns-item-noham,34,169264,0.0-1.0-0.33
"<b>If a good friend of mine does something unexpected that upsets me, I feel like I don?t know them anymore.",Highly disagree,35/150,Somewhat disagree,2,1698178644951,1698178651267,\Somewhat disagree\,\Somewhat disagree\,\2\,1698178650449,1698178650449,5498,5498,6316,buq,qns-item-noham,35,175581,0.0-1.0-0.34
<b>Other people?s beliefs are often incoherent.,Highly disagree,36/150,Somewhat disagree,2,1698178651269,1698178654199,\Somewhat disagree\,\Somewhat disagree\,\2\,1698178653500,1698178653500,2231,2231,2930,buq,qns-item-noham,36,178513,0.0-1.0-0.35
<b>It?s important to have friends who think about things differently than I do.,Highly disagree,37/150,Somewhat agree,3,1698178654200,1698178658150,\Somewhat agree\,\Somewhat agree\,\3\,1698178657482,1698178657482,3282,3282,3950,buq,qns-item-noham,37,182464,0.0-1.0-0.36
"<b>Every now and then, a new experience will unsettle beliefs I?ve had for a while.",Highly disagree,38/150,Somewhat disagree,2,1698178658151,1698178664999,\Somewhat disagree\,\Somewhat disagree\,\2\,1698178664082,1698178664082,5931,5931,6848,buq,qns-item-noham,38,189313,0.0-1.0-0.37
<b>Some policies I agree with in principle are so bad I don?t support them. ,Highly disagree,39/150,Somewhat disagree,2,1698178665000,1698178672565,\Somewhat disagree\,\Somewhat disagree\,\2\,1698178671832,1698178671832,6832,6832,7565,buq,qns-item-noham,39,196879,0.0-1.0-0.38
<b>I?m pretty sure I?ve accidentally spread false information.,Highly disagree,40/150,Somewhat disagree,2,1698178672568,1698178677116,\Somewhat disagree\,\Somewhat disagree\,\2\,1698178676182,1698178676182,3614,3614,4548,buq,qns-item-noham,40,201430,0.0-1.0-0.39
"<b>If I go to my favorite restaurant and the food is unexpectedly bad, then they have changed owners.",Highly disagree,41/150,Highly disagree,1,1698178677117,1698178683498,\Highly disagree\,\Highly disagree\,\1\,1698178682233,1698178682233,5116,5116,6381,buq,qns-item-noham,41,207812,0.0-1.0-0.40
"<b>In politics, it?s important to trust your friends and family.",Highly disagree,42/150,Somewhat disagree,2,1698178683499,1698178687064,\Somewhat disagree\,\Somewhat disagree\,\2\,1698178686283,1698178686283,2784,2784,3565,buq,qns-item-noham,42,211379,0.0-1.0-0.41
<b>It?s OK to have some conflicting beliefs.,Highly disagree,43/150,Somewhat agree,3,1698178687066,1698178689684,\Somewhat agree\,\Somewhat agree\,\3\,1698178688950,1698178688950,1884,1884,2618,buq,qns-item-noham,43,213998,0.0-1.0-0.42
<b>Sometimes the details of a matter seem to conflict with the big picture.,Highly disagree,44/150,Somewhat agree,3,1698178689686,1698178693917,\Somewhat agree\,\Somewhat agree\,\3\,1698178693199,1698178693199,3513,3513,4231,buq,qns-item-noham,44,218231,0.0-1.0-0.43
<b>Listening to people I disagree with makes my opinions better.,Highly disagree,45/150,Somewhat agree,3,1698178693918,1698178699971,\Somewhat agree\,\Somewhat agree\,\3\,1698178699340,1698178699340,5422,5422,6053,buq,qns-item-noham,45,224285,0.0-1.0-0.44
<b>Policies that sound bad are sometimes fine when you find out about their details.,Highly disagree,46/150,Somewhat agree,3,1698178699973,1698178703741,\Somewhat agree\,\Somewhat agree\,\3\,1698178702857,1698178702857,2884,2884,3768,buq,qns-item-noham,46,228055,0.0-1.0-0.45
"<b>The world is always changing, so my beliefs are sometimes out-dated.",Highly disagree,47/150,Somewhat agree,3,1698178703742,1698178707444,\Somewhat agree\,\Somewhat agree\,\3\,1698178706776,1698178706776,3034,3034,3702,buq,qns-item-noham,47,231758,0.0-1.0-0.46
"<b>If I receive a bad meal at my favorite restaurant and the food is surprisingly bad, I do not think much of it, and assume the chef is just having an ?off? day.",Highly disagree,48/150,Somewhat agree,3,1698178707445,1698178712933,\Somewhat agree\,\Somewhat agree\,\3\,1698178712247,1698178712247,4802,4802,5488,buq,qns-item-noham,48,237247,0.0-1.0-0.47
"<b>False information is unavoidable, to some extent.",Highly disagree,49/150,Somewhat agree,3,1698178712934,1698178716515,\Somewhat agree\,\Somewhat agree\,\3\,1698178715564,1698178715564,2630,2630,3581,buq,qns-item-noham,49,240829,0.0-1.0-0.48
<b>My moral compass sometimes makes it harder to determine what?s true.,Highly disagree,50/150,Somewhat disagree,2,1698178716516,1698178723384,\Somewhat disagree\,\Somewhat disagree\,\2\,1698178722634,1698178722634,6118,6118,6868,buq,qns-item-noham,50,247698,0.0-1.0-0.49
"<b>When you disagree with someone, it?s important to listen to them carefully.",Highly disagree,51/150,Somewhat agree,3,1698178723385,1698178726084,\Somewhat agree\,\Somewhat agree\,\3\,1698178725467,1698178725467,2082,2082,2699,buq,qns-item-noham,51,250399,0.0-1.0-0.50
<b>Evidence pointing in the wrong direction isn?t really evidence at all.,Highly disagree,52/150,Highly disagree,1,1698178726086,1698178733852,\Highly disagree\,\Highly disagree\,\1\,1698178731401,1698178731401,5315,5315,7766,buq,qns-item-noham,52,258166,0.0-1.0-0.51
"<b>If the political party I support messes up, it makes me think politics is rotten.",Highly disagree,53/150,Somewhat disagree,2,1698178733854,1698178739335,\Somewhat disagree\,\Somewhat disagree\,\2\,1698178738235,1698178738235,4381,4381,5481,buq,qns-item-noham,53,263649,0.0-1.0-0.52
<b>Lots of important topics can only really be understood by some groups of people.,Highly disagree,54/150,Somewhat disagree,2,1698178739336,1698178744304,\Somewhat disagree\,\Somewhat disagree\,\2\,1698178743652,1698178743652,4316,4316,4968,buq,qns-item-noham,54,268618,0.0-1.0-0.53
<b>Details almost always matter for being right about something.,Highly disagree,55/150,Somewhat agree,3,1698178744305,1698178747670,\Somewhat agree\,\Somewhat agree\,\3\,1698178747021,1698178747021,2716,2716,3365,buq,qns-item-noham,55,271984,0.0-1.0-0.54
"<b>The most important thing in politics is winning, not convincing people.",Highly disagree,56/150,Highly disagree,1,1698178747672,1698178751005,\Highly disagree\,\Highly disagree\,\1\,1698178750236,1698178750236,2564,2564,3333,buq,qns-item-noham,56,275319,0.0-1.0-0.55
<b>Having conflicting beliefs means you haven?t thought about them enough.,Highly disagree,57/150,Somewhat disagree,2,1698178751006,1698178754404,\Somewhat disagree\,\Somewhat disagree\,\2\,1698178753670,1698178753670,2664,2664,3398,buq,qns-item-noham,57,278718,0.0-1.0-0.56
<b>Other people have sometimes convinced me to change my mind on important topics.,Highly disagree,58/150,Somewhat agree,3,1698178754405,1698178759353,\Somewhat disagree\,\Somewhat agree\,\2\,1698178758187,1698178758719,3782,4314,4948,buq,qns-item-noham,58,283667,0.0-1.0-0.57
<b>I do not often change my political opinions.,Highly disagree,59/150,Somewhat agree,3,1698178759354,1698178763320,\Somewhat agree\,\Somewhat agree\,\3\,1698178761953,1698178761953,2599,2599,3966,buq,qns-item-noham,59,287634,0.0-1.0-0.58
<b>Thinking about how different things relate to one another is critical in life.,Highly disagree,60/150,Somewhat agree,3,1698178763321,1698178768321,\Somewhat agree\,\Somewhat agree\,\3\,1698178767570,1698178767570,4249,4249,5000,buq,qns-item-noham,60,292635,0.0-1.0-0.59
<b>True beliefs can have unfortunate implications.,Highly disagree,61/150,Somewhat agree,3,1698178768322,1698178773788,\Somewhat agree\,\Somewhat agree\,\3\,1698178772970,1698178772970,4648,4648,5466,buq,qns-item-noham,61,298102,0.0-1.0-0.60
<b>It?s difficult to not have at least some conflicting beliefs.,Highly disagree,62/150,Somewhat agree,3,1698178773789,1698178777655,\Somewhat agree\,\Somewhat agree\,\3\,1698178776970,1698178776970,3181,3181,3866,buq,qns-item-noham,62,301969,0.0-1.0-0.61
"<b>When I learn new things, I think deeply about how my opinions should change.",Highly disagree,63/150,Somewhat agree,3,1698178777656,1698178781687,\Somewhat agree\,\Somewhat agree\,\3\,1698178780771,1698178780771,3115,3115,4031,buq,qns-item-noham,63,306001,0.0-1.0-0.62
<b>I think a lot about how to interpret different sorts of evidence.,Highly disagree,64/150,Somewhat agree,3,1698178781688,1698178785671,\Somewhat agree\,\Somewhat agree\,\3\,1698178785037,1698178785037,3349,3349,3983,buq,qns-item-noham,64,309985,0.0-1.0-0.63
<b>Politics is about thinking together and finding compromises.,Highly disagree,65/150,Somewhat agree,3,1698178785671,1698178790621,\Somewhat agree\,\Somewhat agree\,\3\,1698178789988,1698178789988,4317,4317,4950,buq,qns-item-noham,65,314935,0.0-1.0-0.64
<b>Wishful thinking causes a lot of problems.,Highly disagree,66/150,Highly agree,4,1698178790623,1698178793573,\Highly agree\,\Highly agree\,\4\,1698178792721,1698178792721,2098,2098,2950,buq,qns-item-noham,66,317887,0.0-1.0-0.65
<b>I judge a food item only once I try it many times.,Highly disagree,67/150,Highly disagree,1,1698178793574,1698178800621,\Somewhat agree\,\Highly disagree\,\3\,1698178796672,1698178798604,3098,5030,7047,buq,qns-item-noham,67,324935,0.0-1.0-0.66
"<b>When a person holds conflicting beliefs, they should really try to figure out what?s wrong.",Highly disagree,68/150,Somewhat disagree,2,1698178800623,1698178805188,\Somewhat disagree\,\Somewhat disagree\,\2\,1698178804504,1698178804504,3881,3881,4565,buq,qns-item-noham,68,329502,0.0-1.0-0.67
<b>Knowing what?s important in life is easy.,Highly disagree,69/150,Highly disagree,1,1698178805190,1698178809087,\Highly disagree\,\Highly disagree\,\1\,1698178808354,1698178808354,3164,3164,3897,buq,qns-item-noham,69,333401,0.0-1.0-0.68
<b>Lots of smart people disagree about basic political questions.,Highly disagree,70/150,Highly agree,4,1698178809087,1698178813105,\Highly agree\,\Highly agree\,\4\,1698178812420,1698178812420,3333,3333,4018,buq,qns-item-noham,70,337419,0.0-1.0-0.69
<b>I swim across the Atlantic Ocean to get to work every day.,Highly disagree,71/150,Highly disagree,1,1698178813106,1698178817439,\Highly disagree\,\Highly disagree\,\1\,1698178815654,1698178815654,2548,2548,4333,buq,qns-item-noham,71,341753,0.0-1.0-0.70
"<b>Sometimes, you just have to ignore evidence that you know is wrong.",Highly disagree,72/150,Highly disagree,1,1698178817440,1698178824288,\Highly disagree\,\Highly disagree\,\1\,1698178823440,1698178823440,6000,6000,6848,buq,qns-item-noham,72,348602,0.0-1.0-0.71
<b>I have had some false beliefs.,Highly disagree,73/150,Somewhat agree,3,1698178824289,1698178828007,\Somewhat agree\,\Somewhat agree\,\3\,1698178827239,1698178827239,2950,2950,3718,buq,qns-item-noham,73,352321,0.0-1.0-0.72
"<b>If one friend does something that upsets me, I sometimes start to distrust people in general.",Highly disagree,74/150,Somewhat disagree,2,1698178828008,1698178832639,\Somewhat disagree\,\Somewhat disagree\,\2\,1698178831921,1698178831921,3913,3913,4631,buq,qns-item-noham,74,356953,0.0-1.0-0.73
<b>I easily apply what I learn in one situation to another.,Highly disagree,75/150,Somewhat agree,3,1698178832640,1698178836656,\Somewhat agree\,\Somewhat agree\,\3\,1698178836088,1698178836088,3448,3448,4016,buq,qns-item-noham,75,360970,0.0-1.0-0.74
<b>The facts about most important matters are easy to find.,Highly disagree,76/150,Somewhat disagree,2,1698178836657,1698178842589,\Somewhat disagree\,\Somewhat disagree\,\2\,1698178841890,1698178841890,5233,5233,5932,buq,qns-item-noham,76,366903,0.0-1.0-0.75
<b>It?s better to know what?s true than to know what?s moral.,Highly disagree,77/150,Somewhat disagree,2,1698178842590,1698178848288,\Somewhat agree\,\Somewhat disagree\,\3\,1698178846988,1698178847754,4398,5164,5698,buq,qns-item-noham,77,372602,0.0-1.0-0.76
<b>It?s good to be skeptical of people you agree with.,Highly disagree,78/150,Somewhat disagree,2,1698178848290,1698178852954,\Somewhat agree\,\Somewhat disagree\,\3\,1698178850121,1698178850987,1831,2697,4664,buq,qns-item-noham,78,377269,0.0-1.0-0.77
<b>Sometimes reasonable beliefs are wrong.,Highly disagree,79/150,Somewhat agree,3,1698178852956,1698178864071,\Somewhat agree\,\Somewhat agree\,\3\,1698178856154,1698178856154,3198,3198,11115,buq,qns-item-noham,79,388385,0.0-1.0-0.78
<b>I used to think the world was less complicated than I do now.,Highly disagree,80/150,Highly agree,4,1698178864073,1698178868254,\Highly agree\,\Highly agree\,\4\,1698178867521,1698178867521,3448,3448,4181,buq,qns-item-noham,80,392569,0.0-1.0-0.79
<b>People are usually completely right or completely wrong.,Highly disagree,81/150,Highly disagree,1,1698178868256,1698178873055,\Somewhat disagree\,\Highly disagree\,\2\,1698178870788,1698178872321,2532,4065,4799,buq,qns-item-noham,81,397369,0.0-1.0-0.80
<b>I spend a lot of time considering alternatives to my beliefs.,Highly disagree,82/150,Somewhat disagree,2,1698178873057,1698178876589,\Somewhat disagree\,\Somewhat disagree\,\2\,1698178875970,1698178875970,2913,2913,3532,buq,qns-item-noham,82,400903,0.0-1.0-0.81
"<b>Political enemies need to be defeated, not convinced.",Highly disagree,83/150,Highly disagree,1,1698178876590,1698178881771,\Somewhat disagree\,\Highly disagree\,\2\,1698178880538,1698178880972,3948,4382,5181,buq,qns-item-noham,83,406085,0.0-1.0-0.82
"<b>When forming an opinion about a restaurant, I am more swayed by my  latest meal there than  previous meals I?ve had there.",Highly disagree,84/150,Somewhat disagree,2,1698178881772,1698178888672,\Somewhat disagree\,\Somewhat disagree\,\2\,1698178887687,1698178887687,5915,5915,6900,buq,qns-item-noham,84,412986,0.0-1.0-0.83
<b>I try to remain skeptical about most topics.,Highly disagree,85/150,Somewhat agree,3,1698178888673,1698178892372,\Somewhat agree\,\Somewhat agree\,\3\,1698178891756,1698178891756,3083,3083,3699,buq,qns-item-noham,85,416686,0.0-1.0-0.84
<b>Being wrong is usually obvious in retrospect.,Highly disagree,86/150,Somewhat disagree,2,1698178892373,1698178895956,\Somewhat disagree\,\Somewhat disagree\,\2\,1698178895238,1698178895238,2865,2865,3583,buq,qns-item-noham,86,420270,0.0-1.0-0.85
<b>It can be hard to realize that my beliefs are in conflict.,Highly disagree,87/150,Somewhat agree,3,1698178895957,1698178899389,\Somewhat agree\,\Somewhat agree\,\3\,1698178898771,1698178898771,2814,2814,3432,buq,qns-item-noham,87,423703,0.0-1.0-0.86
<b>I form my political views only after meticulously gathering historical and present information about their policies.,Highly disagree,88/150,Somewhat agree,3,1698178899390,1698178904504,\Somewhat agree\,\Somewhat agree\,\3\,1698178903938,1698178903938,4548,4548,5114,buq,qns-item-noham,88,428818,0.0-1.0-0.87
<b>Skeptical people are usually just bad-tempered.,Highly disagree,89/150,Somewhat disagree,2,1698178904506,1698178906854,\Somewhat disagree\,\Somewhat disagree\,\2\,1698178906140,1698178906140,1634,1634,2348,buq,qns-item-noham,89,431168,0.0-1.0-0.88
<b>It is difficult for me to remember the last time I was surprised by politics.,Highly disagree,90/150,Somewhat agree,3,1698178906855,1698178911588,\Somewhat agree\,\Somewhat agree\,\3\,1698178910188,1698178910188,3333,3333,4733,buq,qns-item-noham,90,435902,0.0-1.0-0.89
"<b>When I find out I?m wrong, I think a lot about my related beliefs.",Highly disagree,91/150,Highly agree,4,1698178911589,1698178917421,\Highly agree\,\Highly agree\,\4\,1698178916605,1698178916605,5016,5016,5832,buq,qns-item-noham,91,441735,0.0-1.0-0.90
"<b>If the political party I support messes up, it makes me think you can?t trust anyone these days",Highly disagree,92/150,Highly disagree,1,1698178917422,1698178922057,\Highly disagree\,\Highly disagree\,\1\,1698178921240,1698178921240,3818,3818,4635,buq,qns-item-noham,92,446371,0.0-1.0-0.91
<b>People?s brains turn off when they talk about politics.,Highly disagree,93/150,Somewhat agree,3,1698178922058,1698178926304,\Somewhat disagree\,\Somewhat agree\,\2\,1698178925071,1698178925659,3013,3601,4246,buq,qns-item-noham,93,450618,0.0-1.0-0.92
<b>People who are wrong are usually just ignoring the obvious.,Highly disagree,94/150,Somewhat disagree,2,1698178926305,1698178931154,\Somewhat disagree\,\Somewhat disagree\,\2\,1698178929705,1698178929705,3400,3400,4849,buq,qns-item-noham,94,455469,0.0-1.0-0.93
"<b>The world isn?t that complicated, but it?s still hard to figure out how it works.",Highly disagree,95/150,Highly disagree,1,1698178931156,1698178936875,\Highly disagree\,\Highly disagree\,\1\,1698178936005,1698178936005,4849,4849,5719,buq,qns-item-noham,95,461189,0.0-1.0-0.94
"<b>When forming my views on people, I rely more on what they are like now rather than rely on my past experience with them.",Highly disagree,96/150,Highly agree,4,1698178936876,1698178942704,\Highly agree\,\Highly agree\,\4\,1698178942021,1698178942021,5145,5145,5828,buq,qns-item-noham,96,467018,0.0-1.0-0.95
"<b>When people contradict my beliefs, I usually know about their evidence already.",Highly disagree,97/150,Somewhat disagree,2,1698178942705,1698178947055,\Somewhat disagree\,\Somewhat disagree\,\2\,1698178946338,1698178946338,3633,3633,4350,buq,qns-item-noham,97,471369,0.0-1.0-0.96
<b>Being wrong is a matter of degree.,Highly disagree,98/150,Somewhat agree,3,1698178947056,1698178950089,\Somewhat agree\,\Somewhat agree\,\3\,1698178949271,1698178949271,2215,2215,3033,buq,qns-item-noham,98,474403,0.0-1.0-0.97
<b>Figuring out what?s true and what?s false mainly requires a strong moral compass.,Highly disagree,99/150,Somewhat agree,3,1698178950090,1698178956555,\Somewhat agree\,\Somewhat agree\,\3\,1698178955722,1698178955722,5632,5632,6465,buq,qns-item-noham,99,480869,0.0-1.0-0.98
<b>Most of the beliefs people have are at least somewhat understandable.,Highly disagree,100/150,Somewhat agree,3,1698178956556,1698178963442,\Somewhat agree\,\Somewhat agree\,\3\,1698178961756,1698178961756,5200,5200,6886,buq,qns-item-noham,100,487756,0.0-1.0-0.99
"<b>Usually I?m wrong about simple things, not complicated ones.",Highly disagree,101/150,Somewhat agree,3,1698178963443,1698178968690,\Somewhat agree\,\Somewhat agree\,\3\,1698178967754,1698178967754,4311,4311,5247,buq,qns-item-noham,101,493004,0.0-1.0-0.100
<b>Getting all the information I want about important things is hard.,Highly disagree,102/150,Somewhat agree,3,1698178968693,1698178971539,\Somewhat agree\,\Somewhat agree\,\3\,1698178970921,1698178970921,2228,2228,2846,buq,qns-item-noham,102,495853,0.0-1.0-0.101
<b>Most false beliefs spread because people try to deceive one another.,Highly disagree,103/150,Somewhat agree,3,1698178971540,1698178974723,\Somewhat agree\,\Somewhat agree\,\3\,1698178974122,1698178974122,2582,2582,3183,buq,qns-item-noham,103,499037,0.0-1.0-0.102
<b>I can usually find something to agree with in most people?s beliefs.,Highly disagree,104/150,Somewhat agree,3,1698178974724,1698178998088,\Somewhat agree\,\Somewhat agree\,\3\,1698178997271,1698178997271,22547,22547,23364,buq,qns-item-noham,104,522402,0.0-1.0-0.103
<b>I only form my views of people once I get to know them very well.,Highly disagree,105/150,Somewhat disagree,2,1698178998089,1698179002373,\Somewhat disagree\,\Somewhat disagree\,\2\,1698179001722,1698179001722,3633,3633,4284,buq,qns-item-noham,105,526687,0.0-1.0-0.104
"<b>When people tell me important things about the world, I usually believe them.",Highly disagree,106/150,Somewhat agree,3,1698179002375,1698179006389,\Somewhat agree\,\Somewhat agree\,\3\,1698179005606,1698179005606,3231,3231,4014,buq,qns-item-noham,106,530703,0.0-1.0-0.105
"<b>If a friend does something that upsets me, it reminds me what an unpredictable place the world is.",Highly disagree,107/150,Somewhat disagree,2,1698179006390,1698179011072,\Somewhat disagree\,\Somewhat disagree\,\2\,1698179010289,1698179010289,3899,3899,4682,buq,qns-item-noham,107,535386,0.0-1.0-0.106
<b>Having some conflicting beliefs is inevitable.,Highly disagree,108/150,Somewhat agree,3,1698179011072,1698179014388,\Somewhat agree\,\Somewhat agree\,\3\,1698179013689,1698179013689,2617,2617,3316,buq,qns-item-noham,108,538702,0.0-1.0-0.107
<b>People are wrong because they haven?t thought much about things.,Highly disagree,109/150,Somewhat disagree,2,1698179014388,1698179017391,\Somewhat disagree\,\Somewhat disagree\,\2\,1698179016689,1698179016689,2301,2301,3003,buq,qns-item-noham,109,541705,0.0-1.0-0.108
<b>People tend to believe whatever is good for their friends.,Highly disagree,110/150,Somewhat agree,3,1698179017392,1698179020991,\Somewhat agree\,\Somewhat agree\,\3\,1698179020389,1698179020389,2997,2997,3599,buq,qns-item-noham,110,545305,0.0-1.0-0.109
"<b>When I talk about important topics, I try to make sure people know I?m not always right.",Highly disagree,111/150,Somewhat agree,3,1698179020992,1698179025838,\Somewhat agree\,\Somewhat agree\,\3\,1698179025022,1698179025022,4030,4030,4846,buq,qns-item-noham,111,550153,0.0-1.0-0.110
<b>I used to be more certain my beliefs were true.,Highly disagree,112/150,Somewhat agree,3,1698179025840,1698179028488,\Somewhat agree\,\Somewhat agree\,\3\,1698179027774,1698179027774,1934,1934,2648,buq,qns-item-noham,112,552802,0.0-1.0-0.111
<b>It?s often pretty easy to figure out whether something is true based on who said it.,Highly disagree,113/150,Somewhat agree,3,1698179028489,1698179049956,\Somewhat disagree\,\Somewhat agree\,\2\,1698179045223,1698179049390,16734,20901,21467,buq,qns-item-noham,113,574271,0.0-1.0-0.112
<b>Having bad food in my favorite restaurant will make me think the restaurant is no longer good.,Highly disagree,114/150,Somewhat disagree,2,1698179049961,1698179054388,\Somewhat disagree\,\Somewhat disagree\,\2\,1698179053756,1698179053756,3795,3795,4427,buq,qns-item-noham,114,578702,0.0-1.0-0.113
<b>I transform into a hummingbird every day.,Highly disagree,115/150,Highly disagree,1,1698179054390,1698179057139,\Highly disagree\,\Highly disagree\,\1\,1698179056306,1698179056306,1916,1916,2749,buq,qns-item-noham,115,581453,0.0-1.0-0.114
"<b>Unfortunately, when people are wrong, it?s usually because they?re bad.",Highly disagree,116/150,Somewhat disagree,2,1698179057140,1698179060939,\Somewhat disagree\,\Somewhat disagree\,\2\,1698179060123,1698179060123,2983,2983,3799,buq,qns-item-noham,116,585253,0.0-1.0-0.115
<b>I think a lot about arguments against my views.,Highly disagree,117/150,Somewhat agree,3,1698179060940,1698179064158,\Somewhat agree\,\Somewhat agree\,\3\,1698179063558,1698179063558,2618,2618,3218,buq,qns-item-noham,117,588473,0.0-1.0-0.116
<b>Details tend to matter a lot for knowing whether a policy is good.,Highly disagree,118/150,Highly agree,4,1698179064159,1698179068207,\Highly agree\,\Highly agree\,\4\,1698179067458,1698179067458,3299,3299,4048,buq,qns-item-noham,118,592521,0.0-1.0-0.117
<b>Personal experience is usually more important than facts and figures.,Highly disagree,119/150,Somewhat agree,3,1698179068208,1698179072421,\Somewhat agree\,\Somewhat agree\,\3\,1698179071523,1698179071523,3315,3315,4213,buq,qns-item-noham,119,596735,0.0-1.0-0.118
<b>I?ve been tricked before about important matters.,Highly disagree,120/150,Somewhat agree,3,1698179072422,1698179075640,\Somewhat agree\,\Somewhat agree\,\3\,1698179074940,1698179074940,2518,2518,3218,buq,qns-item-noham,120,599954,0.0-1.0-0.119
<b>I would need to be totally wowed if I were to change my opinion of a restaurant I don?t like.,Highly disagree,121/150,Highly agree,4,1698179075641,1698179089988,\Highly agree\,\Highly agree\,\4\,1698179089173,1698179089173,13532,13532,14347,buq,qns-item-noham,121,614303,0.0-1.0-0.120
<b>I care a lot about politics.,Highly disagree,122/150,Highly disagree,1,1698179089991,1698179092572,\Highly disagree\,\Highly disagree\,\1\,1698179091839,1698179091839,1848,1848,2581,buq,qns-item-noham,122,616886,0.0-1.0-0.121
<b>People with conflicting beliefs usually have some facts they disagree on.,Highly disagree,123/150,Somewhat agree,3,1698179092573,1698179097607,\Somewhat agree\,\Somewhat agree\,\3\,1698179097039,1698179097039,4466,4466,5034,buq,qns-item-noham,123,621921,0.0-1.0-0.122
<b>There are some topics I?ve been really wrong about.,Highly disagree,124/150,Somewhat agree,3,1698179097609,1698179100889,\Somewhat agree\,\Somewhat agree\,\3\,1698179100023,1698179100023,2414,2414,3280,buq,qns-item-noham,124,625203,0.0-1.0-0.123
<b>Most beliefs can be supported with at least some evidence.,Highly disagree,125/150,Somewhat agree,3,1698179100891,1698179103441,\Somewhat agree\,\Somewhat agree\,\3\,1698179102760,1698179102760,1869,1869,2550,buq,qns-item-noham,125,627755,0.0-1.0-0.124
<b>Other people make life out to be more complicated than it really is.,Highly disagree,126/150,Somewhat disagree,2,1698179103441,1698179107192,\Somewhat disagree\,\Somewhat disagree\,\2\,1698179106389,1698179106389,2948,2948,3751,buq,qns-item-noham,126,631506,0.0-1.0-0.125
"<b>My political views are being shaped continuously as I gather more information, rather than relying on what I?ve known to be true of my party in the past. ",Highly disagree,127/150,Highly agree,4,1698179107193,1698179116906,\Highly agree\,\Highly agree\,\4\,1698179115657,1698179115657,8464,8464,9713,buq,qns-item-noham,127,641220,0.0-1.0-0.126
<b>It?s pretty unusual for true things to seem false.,Highly disagree,128/150,Somewhat disagree,2,1698179116907,1698179122507,\Somewhat disagree\,\Somewhat disagree\,\2\,1698179120290,1698179120290,3383,3383,5600,buq,qns-item-noham,128,646821,0.0-1.0-0.127
"<b>Policy details don?t matter much, just the big picture.",Highly disagree,129/150,Highly disagree,1,1698179122509,1698179126174,\Highly disagree\,\Highly disagree\,\1\,1698179125457,1698179125457,2948,2948,3665,buq,qns-item-noham,129,650488,0.0-1.0-0.128
<b>I know my friends so well they can hardly ever surprise me.,Highly disagree,130/150,Somewhat agree,3,1698179126175,1698179129256,\Somewhat agree\,\Somewhat agree\,\3\,1698179128523,1698179128523,2348,2348,3081,buq,qns-item-noham,130,653570,0.0-1.0-0.129
"<b>When I talk to people, I often think about why they have the beliefs they do.",Highly disagree,131/150,Somewhat agree,3,1698179129257,1698179145989,\Somewhat agree\,\Somewhat agree\,\3\,1698179145222,1698179145222,15965,15965,16732,buq,qns-item-noham,131,670303,0.0-1.0-0.130
<b>I do not often change my views on people.,Highly disagree,132/150,Somewhat agree,3,1698179145990,1698179148759,\Somewhat agree\,\Somewhat agree\,\3\,1698179147995,1698179147995,2005,2005,2769,buq,qns-item-noham,132,673073,0.0-1.0-0.131
<b>I often wish I had more time to spend figuring out what?s true and what?s false in life.,Highly disagree,133/150,Somewhat disagree,2,1698179148760,1698179152326,\Somewhat disagree\,\Somewhat disagree\,\2\,1698179151606,1698179151606,2846,2846,3566,buq,qns-item-noham,133,676640,0.0-1.0-0.132
<b>I?m more certain about my beliefs than I used to be.,Highly disagree,134/150,Somewhat disagree,2,1698179152326,1698179155406,\Somewhat disagree\,\Somewhat disagree\,\2\,1698179154643,1698179154643,2317,2317,3080,buq,qns-item-noham,134,679720,0.0-1.0-0.133
"<b>Whenever I find out new information, I update my views on politics accordingly.",Highly disagree,135/150,Somewhat agree,3,1698179155407,1698179161356,\Somewhat agree\,\Somewhat agree\,\3\,1698179160223,1698179160223,4816,4816,5949,buq,qns-item-noham,135,685670,0.0-1.0-0.134
<b>People often tell falsehoods unintentionally.,Highly disagree,136/150,Somewhat agree,3,1698179161357,1698179164776,\Somewhat agree\,\Somewhat agree\,\3\,1698179164008,1698179164008,2651,2651,3419,buq,qns-item-noham,136,689090,0.0-1.0-0.135
<b>Most people don?t know much about most things.,Highly disagree,137/150,Somewhat agree,3,1698179164776,1698179167608,\Somewhat agree\,\Somewhat agree\,\3\,1698179166923,1698179166923,2147,2147,2832,buq,qns-item-noham,137,691922,0.0-1.0-0.136
"<b>If I find out something new about someone, I easily change my views about them.",Highly disagree,138/150,Somewhat disagree,2,1698179167610,1698179172173,\Somewhat disagree\,\Somewhat disagree\,\2\,1698179171525,1698179171525,3915,3915,4563,buq,qns-item-noham,138,696487,0.0-1.0-0.137
<b>Having true beliefs is difficult.,Highly disagree,139/150,Somewhat agree,3,1698179172175,1698179174539,\Somewhat agree\,\Somewhat agree\,\3\,1698179173842,1698179173842,1667,1667,2364,buq,qns-item-noham,139,698853,0.0-1.0-0.138
<b>I don?t try new foods since I know I won?t like them.,Highly disagree,140/150,Somewhat disagree,2,1698179174540,1698179178523,\Somewhat disagree\,\Somewhat disagree\,\2\,1698179177656,1698179177656,3116,3116,3983,buq,qns-item-noham,140,702837,0.0-1.0-0.139
<b>It?s easy to figure out what?s true or false based on who?s saying it.,Highly disagree,141/150,Somewhat agree,3,1698179178524,1698179184274,\Somewhat agree\,\Somewhat agree\,\3\,1698179183540,1698179183540,5016,5016,5750,buq,qns-item-noham,141,708588,0.0-1.0-0.140
<b>False things have seemed true to me many times.,Highly disagree,142/150,Somewhat disagree,2,1698179184274,1698179188759,\Somewhat disagree\,\Somewhat disagree\,\2\,1698179188056,1698179188056,3782,3782,4485,buq,qns-item-noham,142,713073,0.0-1.0-0.141
<b>It?s pretty easy to sort out what?s true and what?s false in life.,Highly disagree,143/150,Somewhat disagree,2,1698179188760,1698179191859,\Somewhat disagree\,\Somewhat disagree\,\2\,1698179191140,1698179191140,2380,2380,3099,buq,qns-item-noham,143,716173,0.0-1.0-0.142
<b>Knowing lots of statistics about something is usually important for understanding it.,Highly disagree,144/150,Somewhat disagree,2,1698179191859,1698179196039,\Somewhat disagree\,\Somewhat disagree\,\2\,1698179195408,1698179195408,3549,3549,4180,buq,qns-item-noham,144,720353,0.0-1.0-0.143
<b>Other people trick each other a lot.,Highly disagree,145/150,Somewhat disagree,2,1698179196040,1698179201897,\Somewhat disagree\,\Somewhat disagree\,\2\,1698179200341,1698179200341,4301,4301,5857,buq,qns-item-noham,145,726211,0.0-1.0-0.144
<b>I would need to learn a lot about a person for my opinion of them to be swayed.,Highly disagree,146/150,Highly agree,4,1698179201899,1698179206039,\Somewhat agree\,\Highly agree\,\3\,1698179204840,1698179205339,2941,3440,4140,buq,qns-item-noham,146,730353,0.0-1.0-0.145
<b>People can?t usually trick me when it comes to topics I care about.,Highly disagree,147/150,Somewhat agree,3,1698179206040,1698179209258,\Somewhat agree\,\Somewhat agree\,\3\,1698179208606,1698179208606,2566,2566,3218,buq,qns-item-noham,147,733573,0.0-1.0-0.146
<b>I do not often change my views on food.,Highly disagree,148/150,Somewhat agree,3,1698179209259,1698179212042,\Somewhat agree\,\Somewhat agree\,\3\,1698179211307,1698179211307,2048,2048,2783,buq,qns-item-noham,148,736356,0.0-1.0-0.147
<b>Specific policies are often very important to me.,Highly disagree,149/150,Somewhat disagree,2,1698179212043,1698179215441,\Somewhat disagree\,\Somewhat disagree\,\2\,1698179214839,1698179214839,2796,2796,3398,buq,qns-item-noham,149,739755,0.0-1.0-0.148
<b>Most people are woefully under-informed.,Highly disagree,150/150,Highly agree,4,1698179215441,1698179218174,\Highly agree\,\Highly agree\,\4\,1698179217406,1698179217406,1965,1965,2733,buq,qns-item-noham,150,742488,0.0-1.0-0.149
