Question,qns_options,quest_num,answer,answer_num,question_load_timestamp,next_btn_timestamp,text_selected,final_text_selected,option_num_selected,preview_timestamps,final_text_selected_time_stamp,rt_first_option_click,rt_final_option_click,rt_submit_click,questionnaire,trial_type,trial_index,time_elapsed,internal_node_id
<b>Considering other people?s perspectives can help us figure out what?s true or false.,Highly disagree,1/150,Highly agree,4,1698179800846,1698179806520,\Highly agree\,\Highly agree\,\4\,1698179804989,1698179804989,4143,4143,5674,buq,qns-item-noham,1,10767,0.0-1.0-0.0
<b>Knowing what?s true and knowing what to do about it are usually basically the same.,Highly disagree,2/150,Somewhat disagree,2,1698179806525,1698179812483,\Somewhat disagree\,\Somewhat disagree\,\2\,1698179811066,1698179811066,4541,4541,5958,buq,qns-item-noham,2,16730,0.0-1.0-0.1
<b>Most people just believe whatever is convenient for them.,Highly disagree,3/150,Somewhat agree,3,1698179812485,1698179815452,\Somewhat agree\,\Somewhat agree\,\3\,1698179814990,1698179814990,2505,2505,2967,buq,qns-item-noham,3,19699,0.0-1.0-0.2
<b>Even people who are wrong about most things can be right sometimes.,Highly disagree,4/150,Highly agree,4,1698179815453,1698179819029,\Highly agree\,\Highly agree\,\4\,1698179818175,1698179818175,2722,2722,3576,buq,qns-item-noham,4,23276,0.0-1.0-0.3
"<b>If the political party I support does something that upsets me, then the party may have changed, and I need to re-evaluate my support.",Highly disagree,5/150,Somewhat agree,3,1698179819030,1698179827725,\Somewhat agree\,\Somewhat agree\,\3\,1698179827031,1698179827031,8001,8001,8695,buq,qns-item-noham,5,31972,0.0-1.0-0.4
"<b>When people disagree, one side is usually completely right.",Highly disagree,6/150,Somewhat disagree,2,1698179827726,1698179830855,\Somewhat disagree\,\Somewhat disagree\,\2\,1698179829943,1698179829943,2217,2217,3129,buq,qns-item-noham,6,35102,0.0-1.0-0.5
<b>People have lots of false beliefs.,Highly disagree,7/150,Highly agree,4,1698179830857,1698179833293,\Highly agree\,\Highly agree\,\4\,1698179832950,1698179832950,2093,2093,2436,buq,qns-item-noham,7,37540,0.0-1.0-0.6
<b>Having some big beliefs helps me sort out minor ones.,Highly disagree,8/150,Somewhat agree,3,1698179833295,1698179837065,\Somewhat agree\,\Somewhat agree\,\3\,1698179836753,1698179836753,3458,3458,3770,buq,qns-item-noham,8,41313,0.0-1.0-0.7
<b>Political questions are usually pretty complicated.,Highly disagree,9/150,Somewhat agree,3,1698179837067,1698179841044,\Somewhat agree\,\Somewhat agree\,\3\,1698179840542,1698179840542,3475,3475,3977,buq,qns-item-noham,9,45291,0.0-1.0-0.8
<b>Figuring out what?s important in life requires learning a lot of facts.,Highly disagree,10/150,Somewhat agree,3,1698179841046,1698179845363,\Somewhat agree\,\Somewhat agree\,\3\,1698179844831,1698179844831,3785,3785,4317,buq,qns-item-noham,10,49610,0.0-1.0-0.9
<b>It is difficult for me to remember the last time I was surprised by politics.,Highly disagree,11/150,Highly agree,4,1698179845364,1698179850463,\Highly agree\,\Highly agree\,\4\,1698179849796,1698179849796,4432,4432,5099,buq,qns-item-noham,11,54710,0.0-1.0-0.10
<b>People?s false beliefs are understandable.,Highly disagree,12/150,Somewhat agree,3,1698179850464,1698179855209,\Somewhat agree\,\Somewhat agree\,\3\,1698179854779,1698179854779,4315,4315,4745,buq,qns-item-noham,12,59456,0.0-1.0-0.11
<b>I spend a lot of time trying to be informed about politics.,Highly disagree,13/150,Highly agree,4,1698179855210,1698179857369,\Highly agree\,\Highly agree\,\4\,1698179856935,1698179856935,1725,1725,2159,buq,qns-item-noham,13,61616,0.0-1.0-0.12
<b>I think a lot about whether my beliefs are right.,Highly disagree,14/150,Highly agree,4,1698179857370,1698179859869,\Highly agree\,\Highly agree\,\4\,1698179859540,1698179859540,2170,2170,2499,buq,qns-item-noham,14,64116,0.0-1.0-0.13
<b>Statistics can be pretty misleading sometimes.,Highly disagree,15/150,Somewhat agree,3,1698179859870,1698179863632,\Somewhat agree\,\Somewhat agree\,\3\,1698179862958,1698179862958,3088,3088,3762,buq,qns-item-noham,15,67879,0.0-1.0-0.14
<b>Figuring out what?s true and what?s false takes a lot of time and effort.,Highly disagree,16/150,Somewhat agree,3,1698179863634,1698179867513,\Somewhat agree\,\Somewhat agree\,\3\,1698179866861,1698179866861,3227,3227,3879,buq,qns-item-noham,16,71760,0.0-1.0-0.15
"<b>If a friend does something bad to me, it was likely an error on their part.",Highly disagree,17/150,Somewhat disagree,2,1698179867514,1698179875491,\Somewhat disagree\,\Somewhat disagree\,\2\,1698179875161,1698179875161,7647,7647,7977,buq,qns-item-noham,17,79738,0.0-1.0-0.16
<b>I have lots of beliefs that I?m only sort of sure about.,Highly disagree,18/150,Somewhat agree,3,1698179875492,1698179878634,\Somewhat agree\,\Somewhat agree\,\3\,1698179877941,1698179877941,2449,2449,3142,buq,qns-item-noham,18,82881,0.0-1.0-0.17
"<b>If I go to my favorite restaurant and the food is surprisingly bad, it reminds me there are many disappointments in life.",Highly disagree,19/150,Somewhat disagree,2,1698179878635,1698179884025,\Somewhat disagree\,\Somewhat disagree\,\2\,1698179883427,1698179883427,4792,4792,5390,buq,qns-item-noham,19,88272,0.0-1.0-0.18
<b>Sometimes my beliefs are inconvenient for me.,Highly disagree,20/150,Somewhat agree,3,1698179884026,1698179886897,\Somewhat agree\,\Somewhat agree\,\3\,1698179886549,1698179886549,2523,2523,2871,buq,qns-item-noham,20,91144,0.0-1.0-0.19
<b>Paying attention to multiple news sources is important.,Highly disagree,21/150,Highly agree,4,1698179886899,1698179889417,\Highly agree\,\Highly agree\,\4\,1698179888923,1698179888923,2024,2024,2518,buq,qns-item-noham,21,93665,0.0-1.0-0.20
"<b>If you are paying attention, please select ?Somewhat agree?",Highly disagree,22/150,Somewhat agree,3,1698179889419,1698179893234,\Somewhat agree\,\Somewhat agree\,\3\,1698179892355,1698179892355,2936,2936,3815,buq,qns-item-noham,22,97481,0.0-1.0-0.21
"<b>When I talk to others, I often worry I?ll convince them of something I didn?t mean to.",Highly disagree,23/150,Somewhat disagree,2,1698179893235,1698179898364,\Somewhat disagree\,\Somewhat disagree\,\2\,1698179898049,1698179898049,4814,4814,5129,buq,qns-item-noham,23,102611,0.0-1.0-0.22
<b>I would need to learn something utterly shocking about my party in order to change my political views.,Highly disagree,24/150,Somewhat agree,3,1698179898365,1698179908304,\Somewhat agree\,\Somewhat agree\,\3\,1698179907853,1698179907853,9488,9488,9939,buq,qns-item-noham,24,112551,0.0-1.0-0.23
"<b>When I have new experiences, I tend to think of them as unique.",Highly disagree,25/150,Somewhat agree,3,1698179908305,1698179914523,\Somewhat agree\,\Somewhat agree\,\3\,1698179914187,1698179914187,5882,5882,6218,buq,qns-item-noham,25,118770,0.0-1.0-0.24
<b>Reading lots of things is important for understanding the world.,Highly disagree,26/150,Highly agree,4,1698179914524,1698179916909,\Highly agree\,\Highly agree\,\4\,1698179916482,1698179916482,1958,1958,2385,buq,qns-item-noham,26,121156,0.0-1.0-0.25
<b>The world is complicated.,Highly disagree,27/150,Somewhat agree,3,1698179916911,1698179921586,\Somewhat agree\,\Somewhat agree\,\3\,1698179920869,1698179920869,3958,3958,4675,buq,qns-item-noham,27,125833,0.0-1.0-0.26
<b>I change my mind about specific policies pretty frequently.,Highly disagree,28/150,Somewhat disagree,2,1698179921587,1698179924674,\Somewhat disagree\,\Somewhat disagree\,\2\,1698179924269,1698179924269,2682,2682,3087,buq,qns-item-noham,28,128921,0.0-1.0-0.27
"<b>If a politician in my political party supports something I disagree with, I give them the benefit of the doubt, as such issues often involve hidden complexities that aren?t obvious.   ",Highly disagree,29/150,Somewhat disagree,2,1698179924675,1698179934038,\Somewhat disagree\,\Somewhat disagree\,\2\,1698179933736,1698179933736,9061,9061,9363,buq,qns-item-noham,29,138285,0.0-1.0-0.28
<b>People?s bad politics are usually motivated by hatefulness.,Highly disagree,30/150,Somewhat disagree,2,1698179934039,1698179937846,\Somewhat disagree\,\Somewhat disagree\,\2\,1698179937497,1698179937497,3458,3458,3807,buq,qns-item-noham,30,142093,0.0-1.0-0.29
"<b>Most new experiences are just like old ones, but a little bit different.",Highly disagree,31/150,Somewhat disagree,2,1698179937847,1698179941020,\Somewhat disagree\,\Somewhat disagree\,\2\,1698179940733,1698179940733,2886,2886,3173,buq,qns-item-noham,31,145267,0.0-1.0-0.30
<b>I think a lot about how to reconcile my beliefs with one another.,Highly disagree,32/150,Somewhat disagree,2,1698179941022,1698179943888,\Somewhat disagree\,\Somewhat disagree\,\2\,1698179943576,1698179943576,2554,2554,2866,buq,qns-item-noham,32,148135,0.0-1.0-0.31
<b>Personal experience rarely leads people astray.,Highly disagree,33/150,Highly disagree,1,1698179943890,1698179947078,\Highly disagree\,\Highly disagree\,\1\,1698179946699,1698179946699,2809,2809,3188,buq,qns-item-noham,33,151325,0.0-1.0-0.32
<b>I might have false beliefs about important topics.,Highly disagree,34/150,Somewhat agree,3,1698179947079,1698179949550,\Somewhat agree\,\Somewhat agree\,\3\,1698179949157,1698179949157,2078,2078,2471,buq,qns-item-noham,34,153797,0.0-1.0-0.33
"<b>If a good friend of mine does something unexpected that upsets me, I feel like I don?t know them anymore.",Highly disagree,35/150,Somewhat disagree,2,1698179949551,1698179953329,\Somewhat disagree\,\Somewhat disagree\,\2\,1698179952625,1698179952625,3074,3074,3778,buq,qns-item-noham,35,157576,0.0-1.0-0.34
<b>Other people?s beliefs are often incoherent.,Highly disagree,36/150,Somewhat disagree,2,1698179953330,1698179956470,\Somewhat disagree\,\Somewhat disagree\,\2\,1698179956174,1698179956174,2844,2844,3140,buq,qns-item-noham,36,160717,0.0-1.0-0.35
<b>It?s important to have friends who think about things differently than I do.,Highly disagree,37/150,Highly agree,4,1698179956471,1698179959797,\Somewhat agree\,\Highly agree\,\3\,1698179958667,1698179959263,2196,2792,3326,buq,qns-item-noham,37,164044,0.0-1.0-0.36
"<b>Every now and then, a new experience will unsettle beliefs I?ve had for a while.",Highly disagree,38/150,Somewhat agree,3,1698179959798,1698179966351,\Somewhat agree\,\Somewhat agree\,\3\,1698179966040,1698179966040,6242,6242,6553,buq,qns-item-noham,38,170598,0.0-1.0-0.37
<b>Some policies I agree with in principle are so bad I don?t support them. ,Highly disagree,39/150,Somewhat disagree,2,1698179966352,1698179974974,\Somewhat disagree\,\Somewhat disagree\,\2\,1698179974629,1698179974629,8277,8277,8622,buq,qns-item-noham,39,179221,0.0-1.0-0.38
<b>I?m pretty sure I?ve accidentally spread false information.,Highly disagree,40/150,Somewhat agree,3,1698179974975,1698179982821,\Somewhat agree\,\Somewhat agree\,\3\,1698179982433,1698179982433,7458,7458,7846,buq,qns-item-noham,40,187068,0.0-1.0-0.39
"<b>If I go to my favorite restaurant and the food is unexpectedly bad, then they have changed owners.",Highly disagree,41/150,Somewhat disagree,2,1698179982822,1698179986506,\Somewhat disagree\,\Somewhat disagree\,\2\,1698179986229,1698179986229,3407,3407,3684,buq,qns-item-noham,41,190753,0.0-1.0-0.40
"<b>In politics, it?s important to trust your friends and family.",Highly disagree,42/150,Highly disagree,1,1698179986507,1698179990394,\Highly disagree\,\Highly disagree\,\1\,1698179989462,1698179989462,2955,2955,3887,buq,qns-item-noham,42,194641,0.0-1.0-0.41
<b>It?s OK to have some conflicting beliefs.,Highly disagree,43/150,Highly agree,4,1698179990395,1698179992369,\Highly agree\,\Highly agree\,\4\,1698179992056,1698179992056,1661,1661,1974,buq,qns-item-noham,43,196616,0.0-1.0-0.42
<b>Sometimes the details of a matter seem to conflict with the big picture.,Highly disagree,44/150,Somewhat agree,3,1698179992370,1698179995790,\Somewhat agree\,\Somewhat agree\,\3\,1698179995538,1698179995538,3168,3168,3420,buq,qns-item-noham,44,200037,0.0-1.0-0.43
<b>Listening to people I disagree with makes my opinions better.,Highly disagree,45/150,Somewhat agree,3,1698179995791,1698179998702,\Somewhat agree\,\Somewhat agree\,\3\,1698179998464,1698179998464,2673,2673,2911,buq,qns-item-noham,45,202949,0.0-1.0-0.44
<b>Policies that sound bad are sometimes fine when you find out about their details.,Highly disagree,46/150,Somewhat agree,3,1698179998703,1698180005443,\Somewhat agree\,\Somewhat agree\,\3\,1698180004123,1698180004123,5420,5420,6740,buq,qns-item-noham,46,209690,0.0-1.0-0.45
"<b>The world is always changing, so my beliefs are sometimes out-dated.",Highly disagree,47/150,Highly agree,4,1698180005444,1698180008644,\Highly agree\,\Highly agree\,\4\,1698180008172,1698180008172,2728,2728,3200,buq,qns-item-noham,47,212891,0.0-1.0-0.46
"<b>If I receive a bad meal at my favorite restaurant and the food is surprisingly bad, I do not think much of it, and assume the chef is just having an ?off? day.",Highly disagree,48/150,Highly agree,4,1698180008645,1698180012874,\Highly agree\,\Highly agree\,\4\,1698180012390,1698180012390,3745,3745,4229,buq,qns-item-noham,48,217121,0.0-1.0-0.47
"<b>False information is unavoidable, to some extent.",Highly disagree,49/150,Somewhat agree,3,1698180012875,1698180015781,\Somewhat agree\,\Somewhat agree\,\3\,1698180015171,1698180015171,2296,2296,2906,buq,qns-item-noham,49,220028,0.0-1.0-0.48
<b>My moral compass sometimes makes it harder to determine what?s true.,Highly disagree,50/150,Somewhat disagree,2,1698180015782,1698180019217,\Somewhat disagree\,\Somewhat disagree\,\2\,1698180018733,1698180018733,2951,2951,3435,buq,qns-item-noham,50,223464,0.0-1.0-0.49
"<b>When you disagree with someone, it?s important to listen to them carefully.",Highly disagree,51/150,Highly agree,4,1698180019218,1698180021764,\Highly agree\,\Highly agree\,\4\,1698180021447,1698180021447,2229,2229,2546,buq,qns-item-noham,51,226011,0.0-1.0-0.50
<b>Evidence pointing in the wrong direction isn?t really evidence at all.,Highly disagree,52/150,Highly disagree,1,1698180021765,1698180025849,\Highly disagree\,\Highly disagree\,\1\,1698180025577,1698180025577,3812,3812,4084,buq,qns-item-noham,52,230096,0.0-1.0-0.51
"<b>If the political party I support messes up, it makes me think politics is rotten.",Highly disagree,53/150,Somewhat disagree,2,1698180025850,1698180031040,\Somewhat disagree\,\Somewhat disagree\,\2\,1698180030778,1698180030778,4928,4928,5190,buq,qns-item-noham,53,235287,0.0-1.0-0.52
<b>Lots of important topics can only really be understood by some groups of people.,Highly disagree,54/150,Somewhat disagree,2,1698180031041,1698180036565,\Somewhat disagree\,\Somewhat disagree\,\2\,1698180036282,1698180036282,5241,5241,5524,buq,qns-item-noham,54,240812,0.0-1.0-0.53
<b>Details almost always matter for being right about something.,Highly disagree,55/150,Somewhat agree,3,1698180036566,1698180040935,\Somewhat agree\,\Somewhat agree\,\3\,1698180040654,1698180040654,4088,4088,4369,buq,qns-item-noham,55,245182,0.0-1.0-0.54
"<b>The most important thing in politics is winning, not convincing people.",Highly disagree,56/150,Somewhat disagree,2,1698180040937,1698180044809,\Somewhat disagree\,\Somewhat disagree\,\2\,1698180044517,1698180044517,3580,3580,3872,buq,qns-item-noham,56,249056,0.0-1.0-0.55
<b>Having conflicting beliefs means you haven?t thought about them enough.,Highly disagree,57/150,Highly disagree,1,1698180044811,1698180047975,\Highly disagree\,\Highly disagree\,\1\,1698180047719,1698180047719,2908,2908,3164,buq,qns-item-noham,57,252222,0.0-1.0-0.56
<b>Other people have sometimes convinced me to change my mind on important topics.,Highly disagree,58/150,Highly agree,4,1698180047976,1698180051814,\Highly agree\,\Highly agree\,\4\,1698180051228,1698180051228,3252,3252,3838,buq,qns-item-noham,58,256061,0.0-1.0-0.57
<b>I do not often change my political opinions.,Highly disagree,59/150,Somewhat agree,3,1698180051815,1698180053929,\Somewhat agree\,\Somewhat agree\,\3\,1698180053640,1698180053640,1825,1825,2114,buq,qns-item-noham,59,258176,0.0-1.0-0.58
<b>Thinking about how different things relate to one another is critical in life.,Highly disagree,60/150,Highly agree,4,1698180053930,1698180059600,\Highly agree\,\Highly agree\,\4\,1698180059235,1698180059235,5305,5305,5670,buq,qns-item-noham,60,263847,0.0-1.0-0.59
<b>True beliefs can have unfortunate implications.,Highly disagree,61/150,Somewhat disagree,2,1698180059601,1698180063684,\Somewhat disagree\,\Somewhat disagree\,\2\,1698180062989,1698180062989,3388,3388,4083,buq,qns-item-noham,61,267931,0.0-1.0-0.60
<b>It?s difficult to not have at least some conflicting beliefs.,Highly disagree,62/150,Highly agree,4,1698180063685,1698180067035,\Highly agree\,\Highly agree\,\4\,1698180066537,1698180066537,2852,2852,3350,buq,qns-item-noham,62,271282,0.0-1.0-0.61
"<b>When I learn new things, I think deeply about how my opinions should change.",Highly disagree,63/150,Highly agree,4,1698180067036,1698180069884,\Highly agree\,\Highly agree\,\4\,1698180069433,1698180069433,2397,2397,2848,buq,qns-item-noham,63,274131,0.0-1.0-0.62
<b>I think a lot about how to interpret different sorts of evidence.,Highly disagree,64/150,Highly agree,4,1698180069885,1698180072203,\Highly agree\,\Highly agree\,\4\,1698180071721,1698180071721,1836,1836,2318,buq,qns-item-noham,64,276450,0.0-1.0-0.63
<b>Politics is about thinking together and finding compromises.,Highly disagree,65/150,Somewhat disagree,2,1698180072204,1698180075400,\Somewhat disagree\,\Somewhat disagree\,\2\,1698180075061,1698180075061,2857,2857,3196,buq,qns-item-noham,65,279647,0.0-1.0-0.64
<b>Wishful thinking causes a lot of problems.,Highly disagree,66/150,Highly disagree,1,1698180075401,1698180078099,\Highly disagree\,\Highly disagree\,\1\,1698180077789,1698180077789,2388,2388,2698,buq,qns-item-noham,66,282346,0.0-1.0-0.65
<b>I judge a food item only once I try it many times.,Highly disagree,67/150,Somewhat agree,3,1698180078100,1698180081636,\Somewhat agree\,\Somewhat agree\,\3\,1698180081372,1698180081372,3272,3272,3536,buq,qns-item-noham,67,285883,0.0-1.0-0.66
"<b>When a person holds conflicting beliefs, they should really try to figure out what?s wrong.",Highly disagree,68/150,Somewhat disagree,2,1698180081637,1698180086234,\Somewhat disagree\,\Somewhat disagree\,\2\,1698180085943,1698180085943,4306,4306,4597,buq,qns-item-noham,68,290481,0.0-1.0-0.67
<b>Knowing what?s important in life is easy.,Highly disagree,69/150,Somewhat disagree,2,1698180086235,1698180089203,\Somewhat disagree\,\Somewhat disagree\,\2\,1698180088930,1698180088930,2695,2695,2968,buq,qns-item-noham,69,293450,0.0-1.0-0.68
<b>Lots of smart people disagree about basic political questions.,Highly disagree,70/150,Highly agree,4,1698180089205,1698180092695,\Highly agree\,\Highly agree\,\4\,1698180092159,1698180092159,2954,2954,3490,buq,qns-item-noham,70,296942,0.0-1.0-0.69
<b>I swim across the Atlantic Ocean to get to work every day.,Highly disagree,71/150,Highly disagree,1,1698180092696,1698180094437,\Highly disagree\,\Highly disagree\,\1\,1698180093983,1698180093983,1287,1287,1741,buq,qns-item-noham,71,298684,0.0-1.0-0.70
"<b>Sometimes, you just have to ignore evidence that you know is wrong.",Highly disagree,72/150,Highly disagree,1,1698180094439,1698180099741,\Highly disagree\,\Highly disagree\,\1\,1698180099427,1698180099427,4988,4988,5302,buq,qns-item-noham,72,303988,0.0-1.0-0.71
<b>I have had some false beliefs.,Highly disagree,73/150,Somewhat agree,3,1698180099742,1698180101527,\Somewhat agree\,\Somewhat agree\,\3\,1698180101282,1698180101282,1540,1540,1785,buq,qns-item-noham,73,305774,0.0-1.0-0.72
"<b>If one friend does something that upsets me, I sometimes start to distrust people in general.",Highly disagree,74/150,Highly disagree,1,1698180101528,1698180104597,\Highly disagree\,\Highly disagree\,\1\,1698180104059,1698180104059,2531,2531,3069,buq,qns-item-noham,74,308844,0.0-1.0-0.73
<b>I easily apply what I learn in one situation to another.,Highly disagree,75/150,Somewhat agree,3,1698180104599,1698180107581,\Somewhat agree\,\Somewhat agree\,\3\,1698180107296,1698180107296,2697,2697,2982,buq,qns-item-noham,75,311828,0.0-1.0-0.74
<b>The facts about most important matters are easy to find.,Highly disagree,76/150,Somewhat disagree,2,1698180107582,1698180110702,\Somewhat disagree\,\Somewhat disagree\,\2\,1698180110443,1698180110443,2861,2861,3120,buq,qns-item-noham,76,314949,0.0-1.0-0.75
<b>It?s better to know what?s true than to know what?s moral.,Highly disagree,77/150,Somewhat agree,3,1698180110704,1698180117591,\Somewhat agree\,\Somewhat agree\,\3\,1698180116458,1698180116458,5754,5754,6887,buq,qns-item-noham,77,321838,0.0-1.0-0.76
<b>It?s good to be skeptical of people you agree with.,Highly disagree,78/150,Highly agree,4,1698180117592,1698180120776,\Highly agree\,\Highly agree\,\4\,1698180120474,1698180120474,2882,2882,3184,buq,qns-item-noham,78,325023,0.0-1.0-0.77
<b>Sometimes reasonable beliefs are wrong.,Highly disagree,79/150,Highly agree,4,1698180120777,1698180122645,\Highly agree\,\Highly agree\,\4\,1698180122315,1698180122315,1538,1538,1868,buq,qns-item-noham,79,326892,0.0-1.0-0.78
<b>I used to think the world was less complicated than I do now.,Highly disagree,80/150,Somewhat disagree,2,1698180122646,1698180125673,\Somewhat disagree\,\Somewhat disagree\,\2\,1698180125278,1698180125278,2632,2632,3027,buq,qns-item-noham,80,329920,0.0-1.0-0.79
<b>People are usually completely right or completely wrong.,Highly disagree,81/150,Highly disagree,1,1698180125674,1698180127944,\Highly disagree\,\Highly disagree\,\1\,1698180127538,1698180127538,1864,1864,2270,buq,qns-item-noham,81,332191,0.0-1.0-0.80
<b>I spend a lot of time considering alternatives to my beliefs.,Highly disagree,82/150,Highly agree,4,1698180127945,1698180130038,\Highly agree\,\Highly agree\,\4\,1698180129765,1698180129765,1820,1820,2093,buq,qns-item-noham,82,334285,0.0-1.0-0.81
"<b>Political enemies need to be defeated, not convinced.",Highly disagree,83/150,Somewhat disagree,2,1698180130039,1698180134090,\Highly disagree\,\Somewhat disagree\,\1\,1698180132783,1698180133480,2744,3441,4051,buq,qns-item-noham,83,338337,0.0-1.0-0.82
"<b>When forming an opinion about a restaurant, I am more swayed by my  latest meal there than  previous meals I?ve had there.",Highly disagree,84/150,Somewhat disagree,2,1698180134091,1698180138664,\Somewhat disagree\,\Somewhat disagree\,\2\,1698180138395,1698180138395,4304,4304,4573,buq,qns-item-noham,84,342911,0.0-1.0-0.83
<b>I try to remain skeptical about most topics.,Highly disagree,85/150,Highly agree,4,1698180138665,1698180140600,\Highly agree\,\Highly agree\,\4\,1698180140321,1698180140321,1656,1656,1935,buq,qns-item-noham,85,344847,0.0-1.0-0.84
<b>Being wrong is usually obvious in retrospect.,Highly disagree,86/150,Somewhat disagree,2,1698180140601,1698180143996,\Somewhat disagree\,\Somewhat disagree\,\2\,1698180143693,1698180143693,3092,3092,3395,buq,qns-item-noham,86,348243,0.0-1.0-0.85
<b>It can be hard to realize that my beliefs are in conflict.,Highly disagree,87/150,Somewhat agree,3,1698180143997,1698180146758,\Somewhat agree\,\Somewhat agree\,\3\,1698180146448,1698180146448,2451,2451,2761,buq,qns-item-noham,87,351005,0.0-1.0-0.86
<b>I form my political views only after meticulously gathering historical and present information about their policies.,Highly disagree,88/150,Somewhat agree,3,1698180146759,1698180151020,\Somewhat agree\,\Somewhat agree\,\3\,1698180150633,1698180150633,3874,3874,4261,buq,qns-item-noham,88,355267,0.0-1.0-0.87
<b>Skeptical people are usually just bad-tempered.,Highly disagree,89/150,Highly disagree,1,1698180151021,1698180153878,\Highly disagree\,\Highly disagree\,\1\,1698180153145,1698180153145,2124,2124,2857,buq,qns-item-noham,89,358125,0.0-1.0-0.88
<b>It is difficult for me to remember the last time I was surprised by politics.,Highly disagree,90/150,Highly agree,4,1698180153879,1698180158073,\Highly agree\,\Highly agree\,\4\,1698180157552,1698180157552,3673,3673,4194,buq,qns-item-noham,90,362320,0.0-1.0-0.89
"<b>When I find out I?m wrong, I think a lot about my related beliefs.",Highly disagree,91/150,Highly agree,4,1698180158074,1698180160355,\Highly agree\,\Highly agree\,\4\,1698180160040,1698180160040,1966,1966,2281,buq,qns-item-noham,91,364602,0.0-1.0-0.90
"<b>If the political party I support messes up, it makes me think you can?t trust anyone these days",Highly disagree,92/150,Highly disagree,1,1698180160356,1698180163592,\Highly disagree\,\Highly disagree\,\1\,1698180163294,1698180163294,2938,2938,3236,buq,qns-item-noham,92,367839,0.0-1.0-0.91
<b>People?s brains turn off when they talk about politics.,Highly disagree,93/150,Somewhat disagree,2,1698180163593,1698180166978,\Somewhat disagree\,\Somewhat disagree\,\2\,1698180166656,1698180166656,3063,3063,3385,buq,qns-item-noham,93,371225,0.0-1.0-0.92
<b>People who are wrong are usually just ignoring the obvious.,Highly disagree,94/150,Somewhat disagree,2,1698180166980,1698180169958,\Somewhat disagree\,\Somewhat disagree\,\2\,1698180169669,1698180169669,2689,2689,2978,buq,qns-item-noham,94,374205,0.0-1.0-0.93
"<b>The world isn?t that complicated, but it?s still hard to figure out how it works.",Highly disagree,95/150,Somewhat disagree,2,1698180169959,1698180179878,\Somewhat disagree\,\Somewhat disagree\,\2\,1698180179226,1698180179226,9267,9267,9919,buq,qns-item-noham,95,384125,0.0-1.0-0.94
"<b>When forming my views on people, I rely more on what they are like now rather than rely on my past experience with them.",Highly disagree,96/150,Somewhat agree,3,1698180179880,1698180200260,\Somewhat agree\,\Somewhat agree\,\3\,1698180199744,1698180199744,19864,19864,20380,buq,qns-item-noham,96,404507,0.0-1.0-0.95
"<b>When people contradict my beliefs, I usually know about their evidence already.",Highly disagree,97/150,Somewhat agree,3,1698180200261,1698180206107,\Somewhat agree\,\Somewhat agree\,\3\,1698180205605,1698180205605,5344,5344,5846,buq,qns-item-noham,97,410354,0.0-1.0-0.96
<b>Being wrong is a matter of degree.,Highly disagree,98/150,Somewhat disagree,2,1698180206109,1698180211911,\Somewhat disagree\,\Somewhat disagree\,\2\,1698180211647,1698180211647,5538,5538,5802,buq,qns-item-noham,98,416158,0.0-1.0-0.97
<b>Figuring out what?s true and what?s false mainly requires a strong moral compass.,Highly disagree,99/150,Somewhat disagree,2,1698180211912,1698180217179,\Somewhat disagree\,\Somewhat disagree\,\2\,1698180216832,1698180216832,4920,4920,5267,buq,qns-item-noham,99,421426,0.0-1.0-0.98
<b>Most of the beliefs people have are at least somewhat understandable.,Highly disagree,100/150,Somewhat disagree,2,1698180217180,1698180221744,\Somewhat disagree\,\Somewhat disagree\,\2\,1698180221220,1698180221220,4040,4040,4564,buq,qns-item-noham,100,425991,0.0-1.0-0.99
"<b>Usually I?m wrong about simple things, not complicated ones.",Highly disagree,101/150,Somewhat disagree,2,1698180221745,1698180226314,\Somewhat disagree\,\Somewhat disagree\,\2\,1698180225717,1698180225717,3972,3972,4569,buq,qns-item-noham,101,430561,0.0-1.0-0.100
<b>Getting all the information I want about important things is hard.,Highly disagree,102/150,Somewhat agree,3,1698180226316,1698180229113,\Somewhat agree\,\Somewhat agree\,\3\,1698180228847,1698180228847,2531,2531,2797,buq,qns-item-noham,102,433360,0.0-1.0-0.101
<b>Most false beliefs spread because people try to deceive one another.,Highly disagree,103/150,Somewhat disagree,2,1698180229114,1698180233465,\Somewhat disagree\,\Somewhat disagree\,\2\,1698180232833,1698180232833,3719,3719,4351,buq,qns-item-noham,103,437712,0.0-1.0-0.102
<b>I can usually find something to agree with in most people?s beliefs.,Highly disagree,104/150,Somewhat disagree,2,1698180233466,1698180235940,\Somewhat disagree\,\Somewhat disagree\,\2\,1698180235658,1698180235658,2192,2192,2474,buq,qns-item-noham,104,440187,0.0-1.0-0.103
<b>I only form my views of people once I get to know them very well.,Highly disagree,105/150,Somewhat agree,3,1698180235941,1698180239432,\Somewhat agree\,\Somewhat agree\,\3\,1698180238837,1698180238837,2896,2896,3491,buq,qns-item-noham,105,443679,0.0-1.0-0.104
"<b>When people tell me important things about the world, I usually believe them.",Highly disagree,106/150,Somewhat disagree,2,1698180239433,1698180242486,\Somewhat disagree\,\Somewhat disagree\,\2\,1698180242180,1698180242180,2747,2747,3053,buq,qns-item-noham,106,446733,0.0-1.0-0.105
"<b>If a friend does something that upsets me, it reminds me what an unpredictable place the world is.",Highly disagree,107/150,Somewhat disagree,2,1698180242487,1698180246358,\Somewhat disagree\,\Somewhat disagree\,\2\,1698180246067,1698180246067,3580,3580,3871,buq,qns-item-noham,107,450605,0.0-1.0-0.106
<b>Having some conflicting beliefs is inevitable.,Highly disagree,108/150,Highly agree,4,1698180246359,1698180248780,\Highly agree\,\Highly agree\,\4\,1698180248492,1698180248492,2133,2133,2421,buq,qns-item-noham,108,453027,0.0-1.0-0.107
<b>People are wrong because they haven?t thought much about things.,Highly disagree,109/150,Somewhat disagree,2,1698180248781,1698180251385,\Somewhat disagree\,\Somewhat disagree\,\2\,1698180251067,1698180251067,2286,2286,2604,buq,qns-item-noham,109,455632,0.0-1.0-0.108
<b>People tend to believe whatever is good for their friends.,Highly disagree,110/150,Somewhat agree,3,1698180251386,1698180254208,\Somewhat agree\,\Somewhat agree\,\3\,1698180253635,1698180253635,2249,2249,2822,buq,qns-item-noham,110,458455,0.0-1.0-0.109
"<b>When I talk about important topics, I try to make sure people know I?m not always right.",Highly disagree,111/150,Highly agree,4,1698180254209,1698180259026,\Highly agree\,\Highly agree\,\4\,1698180258698,1698180258698,4489,4489,4817,buq,qns-item-noham,111,463273,0.0-1.0-0.110
<b>I used to be more certain my beliefs were true.,Highly disagree,112/150,Somewhat disagree,2,1698180259027,1698180261790,\Somewhat disagree\,\Somewhat disagree\,\2\,1698180261526,1698180261526,2499,2499,2763,buq,qns-item-noham,112,466037,0.0-1.0-0.111
<b>It?s often pretty easy to figure out whether something is true based on who said it.,Highly disagree,113/150,Somewhat disagree,2,1698180261791,1698180266491,\Somewhat disagree\,\Somewhat disagree\,\2\,1698180266206,1698180266206,4415,4415,4700,buq,qns-item-noham,113,470738,0.0-1.0-0.112
<b>Having bad food in my favorite restaurant will make me think the restaurant is no longer good.,Highly disagree,114/150,Highly disagree,1,1698180266492,1698180270226,\Highly disagree\,\Highly disagree\,\1\,1698180269959,1698180269959,3467,3467,3734,buq,qns-item-noham,114,474473,0.0-1.0-0.113
<b>I transform into a hummingbird every day.,Highly disagree,115/150,Highly disagree,1,1698180270227,1698180271969,\Highly disagree\,\Highly disagree\,\1\,1698180271586,1698180271586,1359,1359,1742,buq,qns-item-noham,115,476216,0.0-1.0-0.114
"<b>Unfortunately, when people are wrong, it?s usually because they?re bad.",Highly disagree,116/150,Highly disagree,1,1698180271970,1698180275081,\Highly disagree\,\Highly disagree\,\1\,1698180274477,1698180274477,2507,2507,3111,buq,qns-item-noham,116,479328,0.0-1.0-0.115
<b>I think a lot about arguments against my views.,Highly disagree,117/150,Highly agree,4,1698180275082,1698180278162,\Highly agree\,\Highly agree\,\4\,1698180277830,1698180277830,2748,2748,3080,buq,qns-item-noham,117,482409,0.0-1.0-0.116
<b>Details tend to matter a lot for knowing whether a policy is good.,Highly disagree,118/150,Highly agree,4,1698180278163,1698180280781,\Highly agree\,\Highly agree\,\4\,1698180280468,1698180280468,2305,2305,2618,buq,qns-item-noham,118,485028,0.0-1.0-0.117
<b>Personal experience is usually more important than facts and figures.,Highly disagree,119/150,Highly disagree,1,1698180280782,1698180283442,\Highly disagree\,\Highly disagree\,\1\,1698180283140,1698180283140,2358,2358,2660,buq,qns-item-noham,119,487689,0.0-1.0-0.118
<b>I?ve been tricked before about important matters.,Highly disagree,120/150,Somewhat disagree,2,1698180283443,1698180285475,\Somewhat disagree\,\Somewhat disagree\,\2\,1698180285203,1698180285203,1760,1760,2032,buq,qns-item-noham,120,489722,0.0-1.0-0.119
<b>I would need to be totally wowed if I were to change my opinion of a restaurant I don?t like.,Highly disagree,121/150,Somewhat agree,3,1698180285476,1698180290153,\Somewhat agree\,\Somewhat agree\,\3\,1698180289906,1698180289906,4430,4430,4677,buq,qns-item-noham,121,494400,0.0-1.0-0.120
<b>I care a lot about politics.,Highly disagree,122/150,Highly agree,4,1698180290154,1698180291692,\Highly agree\,\Highly agree\,\4\,1698180291405,1698180291405,1251,1251,1538,buq,qns-item-noham,122,495939,0.0-1.0-0.121
<b>People with conflicting beliefs usually have some facts they disagree on.,Highly disagree,123/150,Somewhat agree,3,1698180291693,1698180295517,\Somewhat agree\,\Somewhat agree\,\3\,1698180295254,1698180295254,3561,3561,3824,buq,qns-item-noham,123,499764,0.0-1.0-0.122
<b>There are some topics I?ve been really wrong about.,Highly disagree,124/150,Highly agree,4,1698180295518,1698180297903,\Highly agree\,\Highly agree\,\4\,1698180297649,1698180297649,2131,2131,2385,buq,qns-item-noham,124,502150,0.0-1.0-0.123
<b>Most beliefs can be supported with at least some evidence.,Highly disagree,125/150,Somewhat disagree,2,1698180297905,1698180301060,\Somewhat disagree\,\Somewhat disagree\,\2\,1698180300771,1698180300771,2866,2866,3155,buq,qns-item-noham,125,505307,0.0-1.0-0.124
<b>Other people make life out to be more complicated than it really is.,Highly disagree,126/150,Somewhat agree,3,1698180301061,1698180304143,\Somewhat agree\,\Somewhat agree\,\3\,1698180303851,1698180303851,2790,2790,3082,buq,qns-item-noham,126,508390,0.0-1.0-0.125
"<b>My political views are being shaped continuously as I gather more information, rather than relying on what I?ve known to be true of my party in the past. ",Highly disagree,127/150,Highly agree,4,1698180304144,1698180310087,\Highly agree\,\Highly agree\,\4\,1698180309462,1698180309462,5318,5318,5943,buq,qns-item-noham,127,514334,0.0-1.0-0.126
<b>It?s pretty unusual for true things to seem false.,Highly disagree,128/150,Highly disagree,1,1698180310088,1698180314815,\Highly disagree\,\Highly disagree\,\1\,1698180314541,1698180314541,4453,4453,4727,buq,qns-item-noham,128,519062,0.0-1.0-0.127
"<b>Policy details don?t matter much, just the big picture.",Highly disagree,129/150,Highly disagree,1,1698180314816,1698180317293,\Highly disagree\,\Highly disagree\,\1\,1698180316989,1698180316989,2173,2173,2477,buq,qns-item-noham,129,521541,0.0-1.0-0.128
<b>I know my friends so well they can hardly ever surprise me.,Highly disagree,130/150,Somewhat agree,3,1698180317295,1698180320316,\Somewhat agree\,\Somewhat agree\,\3\,1698180320017,1698180320017,2722,2722,3021,buq,qns-item-noham,130,524563,0.0-1.0-0.129
"<b>When I talk to people, I often think about why they have the beliefs they do.",Highly disagree,131/150,Highly agree,4,1698180320317,1698180323743,\Highly agree\,\Highly agree\,\4\,1698180323294,1698180323294,2977,2977,3426,buq,qns-item-noham,131,527990,0.0-1.0-0.130
<b>I do not often change my views on people.,Highly disagree,132/150,Somewhat disagree,2,1698180323744,1698180327004,\Somewhat disagree\,\Somewhat disagree\,\2\,1698180326387,1698180326387,2643,2643,3260,buq,qns-item-noham,132,531251,0.0-1.0-0.131
<b>I often wish I had more time to spend figuring out what?s true and what?s false in life.,Highly disagree,133/150,Somewhat disagree,2,1698180327005,1698180329399,\Somewhat disagree\,\Somewhat disagree\,\2\,1698180329085,1698180329085,2080,2080,2394,buq,qns-item-noham,133,533646,0.0-1.0-0.132
<b>I?m more certain about my beliefs than I used to be.,Highly disagree,134/150,Somewhat disagree,2,1698180329400,1698180331959,\Somewhat disagree\,\Somewhat disagree\,\2\,1698180331620,1698180331620,2220,2220,2559,buq,qns-item-noham,134,536206,0.0-1.0-0.133
"<b>Whenever I find out new information, I update my views on politics accordingly.",Highly disagree,135/150,Highly agree,4,1698180331960,1698180335210,\Highly agree\,\Highly agree\,\4\,1698180334871,1698180334871,2911,2911,3250,buq,qns-item-noham,135,539457,0.0-1.0-0.134
<b>People often tell falsehoods unintentionally.,Highly disagree,136/150,Highly agree,4,1698180335211,1698180338680,\Highly agree\,\Highly agree\,\4\,1698180338407,1698180338407,3196,3196,3469,buq,qns-item-noham,136,542927,0.0-1.0-0.135
<b>Most people don?t know much about most things.,Highly disagree,137/150,Somewhat agree,3,1698180338681,1698180341562,\Somewhat agree\,\Somewhat agree\,\3\,1698180341268,1698180341268,2587,2587,2881,buq,qns-item-noham,137,545809,0.0-1.0-0.136
"<b>If I find out something new about someone, I easily change my views about them.",Highly disagree,138/150,Somewhat disagree,2,1698180341563,1698180345193,\Somewhat disagree\,\Somewhat disagree\,\2\,1698180344923,1698180344923,3360,3360,3630,buq,qns-item-noham,138,549440,0.0-1.0-0.137
<b>Having true beliefs is difficult.,Highly disagree,139/150,Somewhat agree,3,1698180345194,1698180347006,\Somewhat agree\,\Somewhat agree\,\3\,1698180346711,1698180346711,1517,1517,1812,buq,qns-item-noham,139,551253,0.0-1.0-0.138
<b>I don?t try new foods since I know I won?t like them.,Highly disagree,140/150,Somewhat disagree,2,1698180347007,1698180349917,\Somewhat disagree\,\Somewhat disagree\,\2\,1698180349166,1698180349166,2159,2159,2910,buq,qns-item-noham,140,554164,0.0-1.0-0.139
<b>It?s easy to figure out what?s true or false based on who?s saying it.,Highly disagree,141/150,Somewhat disagree,2,1698180349918,1698180352403,\Somewhat disagree\,\Somewhat disagree\,\2\,1698180352076,1698180352076,2158,2158,2485,buq,qns-item-noham,141,556650,0.0-1.0-0.140
<b>False things have seemed true to me many times.,Highly disagree,142/150,Somewhat agree,3,1698180352405,1698180354992,\Somewhat agree\,\Somewhat agree\,\3\,1698180354714,1698180354714,2309,2309,2587,buq,qns-item-noham,142,559239,0.0-1.0-0.141
<b>It?s pretty easy to sort out what?s true and what?s false in life.,Highly disagree,143/150,Somewhat disagree,2,1698180354993,1698180357224,\Somewhat disagree\,\Somewhat disagree\,\2\,1698180356966,1698180356966,1973,1973,2231,buq,qns-item-noham,143,561471,0.0-1.0-0.142
<b>Knowing lots of statistics about something is usually important for understanding it.,Highly disagree,144/150,Somewhat agree,3,1698180357225,1698180360328,\Somewhat agree\,\Somewhat agree\,\3\,1698180360061,1698180360061,2836,2836,3103,buq,qns-item-noham,144,564575,0.0-1.0-0.143
<b>Other people trick each other a lot.,Highly disagree,145/150,Somewhat disagree,2,1698180360329,1698180362620,\Somewhat disagree\,\Somewhat disagree\,\2\,1698180361865,1698180361865,1536,1536,2291,buq,qns-item-noham,145,566867,0.0-1.0-0.144
<b>I would need to learn a lot about a person for my opinion of them to be swayed.,Highly disagree,146/150,Somewhat agree,3,1698180362621,1698180365356,\Somewhat agree\,\Somewhat agree\,\3\,1698180365086,1698180365086,2465,2465,2735,buq,qns-item-noham,146,569603,0.0-1.0-0.145
<b>People can?t usually trick me when it comes to topics I care about.,Highly disagree,147/150,Somewhat agree,3,1698180365357,1698180369063,\Somewhat agree\,\Somewhat agree\,\3\,1698180368781,1698180368781,3424,3424,3706,buq,qns-item-noham,147,573310,0.0-1.0-0.146
<b>I do not often change my views on food.,Highly disagree,148/150,Somewhat agree,3,1698180369064,1698180371306,\Somewhat agree\,\Somewhat agree\,\3\,1698180370929,1698180370929,1865,1865,2242,buq,qns-item-noham,148,575553,0.0-1.0-0.147
<b>Specific policies are often very important to me.,Highly disagree,149/150,Highly agree,4,1698180371307,1698180373610,\Highly agree\,\Highly agree\,\4\,1698180373272,1698180373272,1965,1965,2303,buq,qns-item-noham,149,577857,0.0-1.0-0.148
<b>Most people are woefully under-informed.,Highly disagree,150/150,Somewhat agree,3,1698180373611,1698180376391,\Somewhat agree\,\Somewhat agree\,\3\,1698180376121,1698180376121,2510,2510,2780,buq,qns-item-noham,150,580638,0.0-1.0-0.149
