Question,qns_options,quest_num,answer,answer_num,question_load_timestamp,next_btn_timestamp,text_selected,final_text_selected,option_num_selected,preview_timestamps,final_text_selected_time_stamp,rt_first_option_click,rt_final_option_click,rt_submit_click,questionnaire,trial_type,trial_index,time_elapsed,internal_node_id
<b>Considering other people?s perspectives can help us figure out what?s true or false.,Highly disagree,1/150,Highly agree,4,1698179532335,1698179577198,\Highly agree\,\Highly agree\,\4\,1698179575596,1698179575596,43261,43261,44863,buq,qns-item-noham,1,62575,0.0-1.0-0.0
<b>Knowing what?s true and knowing what to do about it are usually basically the same.,Highly disagree,2/150,Somewhat agree,3,1698179577235,1698179597455,\Somewhat agree\,\Somewhat agree\,\3\,1698179596346,1698179596346,19111,19111,20220,buq,qns-item-noham,2,82830,0.0-1.0-0.1
<b>Most people just believe whatever is convenient for them.,Highly disagree,3/150,Somewhat agree,3,1698179597467,1698179602862,\Somewhat agree\,\Somewhat agree\,\3\,1698179602082,1698179602082,4615,4615,5395,buq,qns-item-noham,3,88238,0.0-1.0-0.2
<b>Even people who are wrong about most things can be right sometimes.,Highly disagree,4/150,Highly agree,4,1698179602879,1698179608652,\Highly agree\,\Highly agree\,\4\,1698179607754,1698179607754,4875,4875,5773,buq,qns-item-noham,4,94028,0.0-1.0-0.3
"<b>If the political party I support does something that upsets me, then the party may have changed, and I need to re-evaluate my support.",Highly disagree,5/150,Highly agree,4,1698179608669,1698179620245,\Highly agree\,\Highly agree\,\4\,1698179619176,1698179619176,10507,10507,11576,buq,qns-item-noham,5,105620,0.0-1.0-0.4
"<b>When people disagree, one side is usually completely right.",Highly disagree,6/150,Somewhat disagree,2,1698179620254,1698179627132,\Somewhat disagree\,\Somewhat disagree\,\2\,1698179625877,1698179625877,5623,5623,6878,buq,qns-item-noham,6,112508,0.0-1.0-0.5
<b>People have lots of false beliefs.,Highly disagree,7/150,Highly agree,4,1698179627144,1698179632080,\Highly agree\,\Highly agree\,\4\,1698179631070,1698179631070,3926,3926,4936,buq,qns-item-noham,7,117456,0.0-1.0-0.6
<b>Having some big beliefs helps me sort out minor ones.,Highly disagree,8/150,Highly agree,4,1698179632094,1698179641519,\Highly agree\,\Highly agree\,\4\,1698179640487,1698179640487,8393,8393,9425,buq,qns-item-noham,8,126894,0.0-1.0-0.7
<b>Political questions are usually pretty complicated.,Highly disagree,9/150,Somewhat agree,3,1698179641531,1698179647643,\Somewhat agree\,\Somewhat agree\,\3\,1698179646881,1698179646881,5350,5350,6112,buq,qns-item-noham,9,133018,0.0-1.0-0.8
<b>Figuring out what?s important in life requires learning a lot of facts.,Highly disagree,10/150,Somewhat agree,3,1698179647655,1698179654486,\Somewhat agree\,\Somewhat agree\,\3\,1698179653712,1698179653712,6057,6057,6831,buq,qns-item-noham,10,139861,0.0-1.0-0.9
<b>It is difficult for me to remember the last time I was surprised by politics.,Highly disagree,11/150,Somewhat disagree,2,1698179654495,1698179660419,\Somewhat disagree\,\Somewhat disagree\,\2\,1698179659276,1698179659276,4781,4781,5924,buq,qns-item-noham,11,145794,0.0-1.0-0.10
<b>People?s false beliefs are understandable.,Highly disagree,12/150,Somewhat agree,3,1698179660438,1698179665061,\Somewhat agree\,\Somewhat agree\,\3\,1698179664289,1698179664289,3851,3851,4623,buq,qns-item-noham,12,150436,0.0-1.0-0.11
<b>I spend a lot of time trying to be informed about politics.,Highly disagree,13/150,Highly disagree,1,1698179665069,1698179670095,\Highly disagree\,\Highly disagree\,\1\,1698179669346,1698179669346,4277,4277,5026,buq,qns-item-noham,13,155470,0.0-1.0-0.12
<b>I think a lot about whether my beliefs are right.,Highly disagree,14/150,Somewhat disagree,2,1698179670104,1698179675243,\Somewhat disagree\,\Somewhat disagree\,\2\,1698179674540,1698179674540,4436,4436,5139,buq,qns-item-noham,14,160619,0.0-1.0-0.13
<b>Statistics can be pretty misleading sometimes.,Highly disagree,15/150,Somewhat agree,3,1698179675251,1698179678974,\Somewhat agree\,\Somewhat agree\,\3\,1698179678246,1698179678246,2995,2995,3723,buq,qns-item-noham,15,164349,0.0-1.0-0.14
<b>Figuring out what?s true and what?s false takes a lot of time and effort.,Highly disagree,16/150,Highly agree,4,1698179678984,1698179685690,\Somewhat agree\,\Highly agree\,\3\,1698179683903,1698179684851,4919,5867,6706,buq,qns-item-noham,16,171065,0.0-1.0-0.15
"<b>If a friend does something bad to me, it was likely an error on their part.",Highly disagree,17/150,Somewhat agree,3,1698179685702,1698179693305,\Somewhat agree\,\Somewhat agree\,\3\,1698179692101,1698179692101,6399,6399,7603,buq,qns-item-noham,17,178680,0.0-1.0-0.16
<b>I have lots of beliefs that I?m only sort of sure about.,Highly disagree,18/150,Somewhat agree,3,1698179693318,1698179702419,\Somewhat agree\,\Somewhat agree\,\3\,1698179701520,1698179701520,8202,8202,9101,buq,qns-item-noham,18,187794,0.0-1.0-0.17
"<b>If I go to my favorite restaurant and the food is surprisingly bad, it reminds me there are many disappointments in life.",Highly disagree,19/150,Highly agree,4,1698179702429,1698179709753,\Somewhat agree\,\Highly agree\,\3\,1698179708346,1698179708962,5917,6533,7324,buq,qns-item-noham,19,195129,0.0-1.0-0.18
<b>Sometimes my beliefs are inconvenient for me.,Highly disagree,20/150,Somewhat agree,3,1698179709765,1698179715249,\Somewhat agree\,\Somewhat agree\,\3\,1698179714346,1698179714346,4581,4581,5484,buq,qns-item-noham,20,200625,0.0-1.0-0.19
<b>Paying attention to multiple news sources is important.,Highly disagree,21/150,Somewhat agree,3,1698179715257,1698179719404,\Somewhat agree\,\Somewhat agree\,\3\,1698179718581,1698179718581,3324,3324,4147,buq,qns-item-noham,21,204779,0.0-1.0-0.20
"<b>If you are paying attention, please select ?Somewhat agree?",Highly disagree,22/150,Somewhat agree,3,1698179719414,1698179724862,\Somewhat agree\,\Somewhat agree\,\3\,1698179723184,1698179723184,3770,3770,5448,buq,qns-item-noham,22,210237,0.0-1.0-0.21
"<b>When I talk to others, I often worry I?ll convince them of something I didn?t mean to.",Highly disagree,23/150,Highly agree,4,1698179724874,1698179735882,\Highly agree\,\Highly agree\,\4\,1698179731196,1698179731196,6322,6322,11008,buq,qns-item-noham,23,221257,0.0-1.0-0.22
<b>I would need to learn something utterly shocking about my party in order to change my political views.,Highly disagree,24/150,Somewhat disagree,2,1698179735895,1698179742763,\Somewhat disagree\,\Somewhat disagree\,\2\,1698179741918,1698179741918,6023,6023,6868,buq,qns-item-noham,24,228138,0.0-1.0-0.23
"<b>When I have new experiences, I tend to think of them as unique.",Highly disagree,25/150,Highly agree,4,1698179742777,1698179748864,\Highly agree\,\Highly agree\,\4\,1698179747397,1698179747397,4620,4620,6087,buq,qns-item-noham,25,234239,0.0-1.0-0.24
<b>Reading lots of things is important for understanding the world.,Highly disagree,26/150,Somewhat agree,3,1698179748875,1698179757761,\Highly agree\,\Somewhat agree\,\4\,1698179756047,1698179757040,7172,8165,8886,buq,qns-item-noham,26,243136,0.0-1.0-0.25
<b>The world is complicated.,Highly disagree,27/150,Somewhat agree,3,1698179757772,1698179760958,\Somewhat agree\,\Somewhat agree\,\3\,1698179760217,1698179760217,2445,2445,3186,buq,qns-item-noham,27,246334,0.0-1.0-0.26
<b>I change my mind about specific policies pretty frequently.,Highly disagree,28/150,Somewhat disagree,2,1698179760967,1698179764778,\Somewhat disagree\,\Somewhat disagree\,\2\,1698179763997,1698179763997,3030,3030,3811,buq,qns-item-noham,28,250153,0.0-1.0-0.27
"<b>If a politician in my political party supports something I disagree with, I give them the benefit of the doubt, as such issues often involve hidden complexities that aren?t obvious.   ",Highly disagree,29/150,Somewhat disagree,2,1698179764788,1698179771938,\Somewhat disagree\,\Somewhat disagree\,\2\,1698179770104,1698179770104,5316,5316,7150,buq,qns-item-noham,29,257313,0.0-1.0-0.28
<b>People?s bad politics are usually motivated by hatefulness.,Highly disagree,30/150,Somewhat agree,3,1698179771960,1698179778216,\Somewhat agree\,\Somewhat agree\,\3\,1698179777498,1698179777498,5538,5538,6256,buq,qns-item-noham,30,263591,0.0-1.0-0.29
"<b>Most new experiences are just like old ones, but a little bit different.",Highly disagree,31/150,Somewhat disagree,2,1698179778231,1698179786882,\Somewhat disagree\,\Somewhat disagree\,\2\,1698179786070,1698179786070,7839,7839,8651,buq,qns-item-noham,31,272257,0.0-1.0-0.30
<b>I think a lot about how to reconcile my beliefs with one another.,Highly disagree,32/150,Somewhat agree,3,1698179786897,1698179793789,\Somewhat agree\,\Somewhat agree\,\3\,1698179793055,1698179793055,6158,6158,6892,buq,qns-item-noham,32,279164,0.0-1.0-0.31
<b>Personal experience rarely leads people astray.,Highly disagree,33/150,Somewhat disagree,2,1698179793803,1698179800443,\Somewhat disagree\,\Somewhat disagree\,\2\,1698179799633,1698179799633,5830,5830,6640,buq,qns-item-noham,33,285818,0.0-1.0-0.32
<b>I might have false beliefs about important topics.,Highly disagree,34/150,Somewhat agree,3,1698179800455,1698179807221,\Somewhat agree\,\Somewhat agree\,\3\,1698179806472,1698179806472,6017,6017,6766,buq,qns-item-noham,34,292596,0.0-1.0-0.33
"<b>If a good friend of mine does something unexpected that upsets me, I feel like I don?t know them anymore.",Highly disagree,35/150,Somewhat agree,3,1698179807229,1698179813499,\Somewhat agree\,\Somewhat agree\,\3\,1698179812850,1698179812850,5621,5621,6270,buq,qns-item-noham,35,298874,0.0-1.0-0.34
<b>Other people?s beliefs are often incoherent.,Highly disagree,36/150,Somewhat disagree,2,1698179813507,1698179817992,\Somewhat disagree\,\Somewhat disagree\,\2\,1698179817239,1698179817239,3732,3732,4485,buq,qns-item-noham,36,303368,0.0-1.0-0.35
<b>It?s important to have friends who think about things differently than I do.,Highly disagree,37/150,Highly agree,4,1698179818001,1698179823567,\Somewhat agree\,\Highly agree\,\3\,1698179821892,1698179822793,3891,4792,5566,buq,qns-item-noham,37,308942,0.0-1.0-0.36
"<b>Every now and then, a new experience will unsettle beliefs I?ve had for a while.",Highly disagree,38/150,Somewhat agree,3,1698179823580,1698179830872,\Somewhat agree\,\Somewhat agree\,\3\,1698179830214,1698179830214,6634,6634,7292,buq,qns-item-noham,38,316247,0.0-1.0-0.37
<b>Some policies I agree with in principle are so bad I don?t support them. ,Highly disagree,39/150,Somewhat agree,3,1698179830881,1698179840696,\Somewhat agree\,\Somewhat agree\,\3\,1698179839887,1698179839887,9006,9006,9815,buq,qns-item-noham,39,326071,0.0-1.0-0.38
<b>I?m pretty sure I?ve accidentally spread false information.,Highly disagree,40/150,Somewhat agree,3,1698179840705,1698179845248,\Somewhat agree\,\Somewhat agree\,\3\,1698179844471,1698179844471,3766,3766,4543,buq,qns-item-noham,40,330623,0.0-1.0-0.39
"<b>If I go to my favorite restaurant and the food is unexpectedly bad, then they have changed owners.",Highly disagree,41/150,Somewhat disagree,2,1698179845255,1698179854572,\Somewhat disagree\,\Somewhat disagree\,\2\,1698179853654,1698179853654,8399,8399,9317,buq,qns-item-noham,41,339947,0.0-1.0-0.40
"<b>In politics, it?s important to trust your friends and family.",Highly disagree,42/150,Somewhat disagree,2,1698179854582,1698179860722,\Somewhat agree\,\Somewhat disagree\,\3\,1698179858138,1698179859667,3556,5085,6140,buq,qns-item-noham,42,346097,0.0-1.0-0.41
<b>It?s OK to have some conflicting beliefs.,Highly disagree,43/150,Somewhat agree,3,1698179860734,1698179864162,\Somewhat agree\,\Somewhat agree\,\3\,1698179863410,1698179863410,2676,2676,3428,buq,qns-item-noham,43,349538,0.0-1.0-0.42
<b>Sometimes the details of a matter seem to conflict with the big picture.,Highly disagree,44/150,Somewhat agree,3,1698179864175,1698179881748,\Somewhat agree\,\Somewhat agree\,\3\,1698179873432,1698179873432,9257,9257,17573,buq,qns-item-noham,44,367124,0.0-1.0-0.43
<b>Listening to people I disagree with makes my opinions better.,Highly disagree,45/150,Somewhat agree,3,1698179881771,1698179888619,\Somewhat agree\,\Somewhat agree\,\3\,1698179887597,1698179887597,5826,5826,6848,buq,qns-item-noham,45,373994,0.0-1.0-0.44
<b>Policies that sound bad are sometimes fine when you find out about their details.,Highly disagree,46/150,Somewhat agree,3,1698179888631,1698179894323,\Somewhat agree\,\Somewhat agree\,\3\,1698179893351,1698179893351,4720,4720,5692,buq,qns-item-noham,46,379698,0.0-1.0-0.45
"<b>The world is always changing, so my beliefs are sometimes out-dated.",Highly disagree,47/150,Highly agree,4,1698179894337,1698179903255,\Somewhat agree\,\Highly agree\,\3\,1698179901607,1698179902313,7270,7976,8918,buq,qns-item-noham,47,388631,0.0-1.0-0.46
"<b>If I receive a bad meal at my favorite restaurant and the food is surprisingly bad, I do not think much of it, and assume the chef is just having an ?off? day.",Highly disagree,48/150,Highly disagree,1,1698179903267,1698179917373,\Highly disagree\,\Highly disagree\,\1\,1698179916159,1698179916159,12892,12892,14106,buq,qns-item-noham,48,402748,0.0-1.0-0.47
"<b>False information is unavoidable, to some extent.",Highly disagree,49/150,Somewhat agree,3,1698179917384,1698179925924,\Somewhat agree\,\Somewhat agree\,\3\,1698179924807,1698179924807,7423,7423,8540,buq,qns-item-noham,49,411300,0.0-1.0-0.48
<b>My moral compass sometimes makes it harder to determine what?s true.,Highly disagree,50/150,Somewhat disagree,2,1698179925934,1698179931798,\Somewhat disagree\,\Somewhat disagree\,\2\,1698179930697,1698179930697,4763,4763,5864,buq,qns-item-noham,50,417174,0.0-1.0-0.49
"<b>When you disagree with someone, it?s important to listen to them carefully.",Highly disagree,51/150,Somewhat agree,3,1698179931810,1698179937455,\Somewhat agree\,\Somewhat agree\,\3\,1698179936084,1698179936084,4274,4274,5645,buq,qns-item-noham,51,422830,0.0-1.0-0.50
<b>Evidence pointing in the wrong direction isn?t really evidence at all.,Highly disagree,52/150,Highly agree,4,1698179937468,1698179953337,\Somewhat agree\,\Highly agree\,\3\,1698179946307,1698179952273,8839,14805,15869,buq,qns-item-noham,52,438712,0.0-1.0-0.51
"<b>If the political party I support messes up, it makes me think politics is rotten.",Highly disagree,53/150,Somewhat agree,3,1698179953353,1698179962297,\Somewhat agree\,\Somewhat agree\,\3\,1698179961491,1698179961491,8138,8138,8944,buq,qns-item-noham,53,447672,0.0-1.0-0.52
<b>Lots of important topics can only really be understood by some groups of people.,Highly disagree,54/150,Somewhat agree,3,1698179962307,1698179967969,\Somewhat agree\,\Somewhat agree\,\3\,1698179967137,1698179967137,4830,4830,5662,buq,qns-item-noham,54,453344,0.0-1.0-0.53
<b>Details almost always matter for being right about something.,Highly disagree,55/150,Highly agree,4,1698179967979,1698179972227,\Highly agree\,\Highly agree\,\4\,1698179971175,1698179971175,3196,3196,4248,buq,qns-item-noham,55,457602,0.0-1.0-0.54
"<b>The most important thing in politics is winning, not convincing people.",Highly disagree,56/150,Somewhat disagree,2,1698179972238,1698179977924,\Somewhat disagree\,\Somewhat disagree\,\2\,1698179976906,1698179976906,4668,4668,5686,buq,qns-item-noham,56,463300,0.0-1.0-0.55
<b>Having conflicting beliefs means you haven?t thought about them enough.,Highly disagree,57/150,Somewhat disagree,2,1698179977934,1698179984833,\Somewhat disagree\,\Somewhat disagree\,\2\,1698179984052,1698179984052,6118,6118,6899,buq,qns-item-noham,57,470208,0.0-1.0-0.56
<b>Other people have sometimes convinced me to change my mind on important topics.,Highly disagree,58/150,Somewhat agree,3,1698179984847,1698179989355,\Somewhat agree\,\Somewhat agree\,\3\,1698179988617,1698179988617,3770,3770,4508,buq,qns-item-noham,58,474731,0.0-1.0-0.57
<b>I do not often change my political opinions.,Highly disagree,59/150,Somewhat disagree,2,1698179989364,1698179992323,\Somewhat disagree\,\Somewhat disagree\,\2\,1698179991644,1698179991644,2280,2280,2959,buq,qns-item-noham,59,477698,0.0-1.0-0.58
<b>Thinking about how different things relate to one another is critical in life.,Highly disagree,60/150,Somewhat agree,3,1698179992331,1698179997135,\Somewhat agree\,\Somewhat agree\,\3\,1698179996436,1698179996436,4105,4105,4804,buq,qns-item-noham,60,482510,0.0-1.0-0.59
<b>True beliefs can have unfortunate implications.,Highly disagree,61/150,Somewhat agree,3,1698179997145,1698180000654,\Somewhat agree\,\Somewhat agree\,\3\,1698180000103,1698180000103,2958,2958,3509,buq,qns-item-noham,61,486029,0.0-1.0-0.60
<b>It?s difficult to not have at least some conflicting beliefs.,Highly disagree,62/150,Somewhat agree,3,1698180000664,1698180003810,\Somewhat agree\,\Somewhat agree\,\3\,1698180003265,1698180003265,2601,2601,3146,buq,qns-item-noham,62,489185,0.0-1.0-0.61
"<b>When I learn new things, I think deeply about how my opinions should change.",Highly disagree,63/150,Somewhat agree,3,1698180003818,1698180007355,\Somewhat agree\,\Somewhat agree\,\3\,1698180006760,1698180006760,2942,2942,3537,buq,qns-item-noham,63,492730,0.0-1.0-0.62
<b>I think a lot about how to interpret different sorts of evidence.,Highly disagree,64/150,Somewhat agree,3,1698180007363,1698180010627,\Somewhat agree\,\Somewhat agree\,\3\,1698180010122,1698180010122,2759,2759,3264,buq,qns-item-noham,64,496003,0.0-1.0-0.63
<b>Politics is about thinking together and finding compromises.,Highly disagree,65/150,Somewhat disagree,2,1698180010636,1698180015186,\Somewhat disagree\,\Somewhat disagree\,\2\,1698180014580,1698180014580,3944,3944,4550,buq,qns-item-noham,65,500561,0.0-1.0-0.64
<b>Wishful thinking causes a lot of problems.,Highly disagree,66/150,Somewhat disagree,2,1698180015195,1698180021853,\Somewhat agree\,\Somewhat disagree\,\3\,1698180019301,1698180021135,4106,5940,6658,buq,qns-item-noham,66,507228,0.0-1.0-0.65
<b>I judge a food item only once I try it many times.,Highly disagree,67/150,Somewhat disagree,2,1698180021864,1698180027631,\Somewhat disagree\,\Somewhat disagree\,\2\,1698180026905,1698180026905,5041,5041,5767,buq,qns-item-noham,67,513007,0.0-1.0-0.66
"<b>When a person holds conflicting beliefs, they should really try to figure out what?s wrong.",Highly disagree,68/150,Somewhat agree,3,1698180027640,1698180032460,\Somewhat agree\,\Somewhat agree\,\3\,1698180031822,1698180031822,4182,4182,4820,buq,qns-item-noham,68,517835,0.0-1.0-0.67
<b>Knowing what?s important in life is easy.,Highly disagree,69/150,Somewhat agree,3,1698180032471,1698180065689,\Somewhat agree\,\Somewhat agree\,\3\,1698180064931,1698180064931,32460,32460,33218,buq,qns-item-noham,69,551064,0.0-1.0-0.68
<b>Lots of smart people disagree about basic political questions.,Highly disagree,70/150,Somewhat agree,3,1698180065697,1698180074566,\Somewhat agree\,\Somewhat agree\,\3\,1698180073755,1698180073755,8058,8058,8869,buq,qns-item-noham,70,559941,0.0-1.0-0.69
<b>I swim across the Atlantic Ocean to get to work every day.,Highly disagree,71/150,Highly disagree,1,1698180074574,1698180078541,\Highly disagree\,\Highly disagree\,\1\,1698180077046,1698180077046,2472,2472,3967,buq,qns-item-noham,71,563916,0.0-1.0-0.70
"<b>Sometimes, you just have to ignore evidence that you know is wrong.",Highly disagree,72/150,Somewhat agree,3,1698180078556,1698180083218,\Somewhat agree\,\Somewhat agree\,\3\,1698180082076,1698180082076,3520,3520,4662,buq,qns-item-noham,72,568594,0.0-1.0-0.71
<b>I have had some false beliefs.,Highly disagree,73/150,Somewhat agree,3,1698180083229,1698180087177,\Somewhat agree\,\Somewhat agree\,\3\,1698180086286,1698180086286,3057,3057,3948,buq,qns-item-noham,73,572552,0.0-1.0-0.72
"<b>If one friend does something that upsets me, I sometimes start to distrust people in general.",Highly disagree,74/150,Somewhat agree,3,1698180087194,1698180094592,\Somewhat agree\,\Somewhat agree\,\3\,1698180092653,1698180092653,5459,5459,7398,buq,qns-item-noham,74,579967,0.0-1.0-0.73
<b>I easily apply what I learn in one situation to another.,Highly disagree,75/150,Somewhat agree,3,1698180094604,1698180098261,\Somewhat agree\,\Somewhat agree\,\3\,1698180097548,1698180097548,2944,2944,3657,buq,qns-item-noham,75,583636,0.0-1.0-0.74
<b>The facts about most important matters are easy to find.,Highly disagree,76/150,Somewhat disagree,2,1698180098269,1698180104289,\Somewhat disagree\,\Somewhat disagree\,\2\,1698180103207,1698180103207,4938,4938,6020,buq,qns-item-noham,76,589664,0.0-1.0-0.75
<b>It?s better to know what?s true than to know what?s moral.,Highly disagree,77/150,Somewhat agree,3,1698180104299,1698180115102,\Somewhat disagree\,\Somewhat agree\,\2\,1698180111566,1698180113980,7267,9681,10803,buq,qns-item-noham,77,600478,0.0-1.0-0.76
<b>It?s good to be skeptical of people you agree with.,Highly disagree,78/150,Somewhat disagree,2,1698180115122,1698180123931,\Somewhat agree\,\Somewhat disagree\,\3\,1698180117718,1698180123159,2596,8037,8809,buq,qns-item-noham,78,609307,0.0-1.0-0.77
<b>Sometimes reasonable beliefs are wrong.,Highly disagree,79/150,Highly agree,4,1698180123942,1698180128380,\Somewhat agree\,\Highly agree\,\3\,1698180126595,1698180127551,2653,3609,4438,buq,qns-item-noham,79,613756,0.0-1.0-0.78
<b>I used to think the world was less complicated than I do now.,Highly disagree,80/150,Highly agree,4,1698180128398,1698180132202,\Highly agree\,\Highly agree\,\4\,1698180131332,1698180131332,2934,2934,3804,buq,qns-item-noham,80,617577,0.0-1.0-0.79
<b>People are usually completely right or completely wrong.,Highly disagree,81/150,Somewhat disagree,2,1698180132214,1698180140300,\Somewhat disagree\,\Somewhat disagree\,\2\,1698180139623,1698180139623,7409,7409,8086,buq,qns-item-noham,81,625676,0.0-1.0-0.80
<b>I spend a lot of time considering alternatives to my beliefs.,Highly disagree,82/150,Somewhat agree,3,1698180140309,1698180151752,\Somewhat agree\,\Somewhat agree\,\3\,1698180147681,1698180147681,7372,7372,11443,buq,qns-item-noham,82,637128,0.0-1.0-0.81
"<b>Political enemies need to be defeated, not convinced.",Highly disagree,83/150,Somewhat disagree,2,1698180151766,1698180156442,\Somewhat disagree\,\Somewhat disagree\,\2\,1698180155667,1698180155667,3901,3901,4676,buq,qns-item-noham,83,641817,0.0-1.0-0.82
"<b>When forming an opinion about a restaurant, I am more swayed by my  latest meal there than  previous meals I?ve had there.",Highly disagree,84/150,Somewhat agree,3,1698180156451,1698180164542,\Somewhat agree\,\Somewhat agree\,\3\,1698180162861,1698180162861,6410,6410,8091,buq,qns-item-noham,84,649917,0.0-1.0-0.83
<b>I try to remain skeptical about most topics.,Highly disagree,85/150,Somewhat agree,3,1698180164554,1698180168030,\Somewhat agree\,\Somewhat agree\,\3\,1698180167246,1698180167246,2692,2692,3476,buq,qns-item-noham,85,653405,0.0-1.0-0.84
<b>Being wrong is usually obvious in retrospect.,Highly disagree,86/150,Somewhat disagree,2,1698180168039,1698180174493,\Somewhat disagree\,\Somewhat disagree\,\2\,1698180173794,1698180173794,5755,5755,6454,buq,qns-item-noham,86,659868,0.0-1.0-0.85
<b>It can be hard to realize that my beliefs are in conflict.,Highly disagree,87/150,Somewhat disagree,2,1698180174501,1698180179817,\Somewhat disagree\,\Somewhat disagree\,\2\,1698180179047,1698180179047,4546,4546,5316,buq,qns-item-noham,87,665192,0.0-1.0-0.86
<b>I form my political views only after meticulously gathering historical and present information about their policies.,Highly disagree,88/150,Somewhat agree,3,1698180179828,1698180186820,\Somewhat agree\,\Somewhat agree\,\3\,1698180186138,1698180186138,6310,6310,6992,buq,qns-item-noham,88,672195,0.0-1.0-0.87
<b>Skeptical people are usually just bad-tempered.,Highly disagree,89/150,Somewhat disagree,2,1698180186828,1698180192268,\Somewhat disagree\,\Somewhat disagree\,\2\,1698180191376,1698180191376,4548,4548,5440,buq,qns-item-noham,89,677643,0.0-1.0-0.88
<b>It is difficult for me to remember the last time I was surprised by politics.,Highly disagree,90/150,Somewhat disagree,2,1698180192287,1698180196311,\Somewhat disagree\,\Somewhat disagree\,\2\,1698180195632,1698180195632,3345,3345,4024,buq,qns-item-noham,90,681687,0.0-1.0-0.89
"<b>When I find out I?m wrong, I think a lot about my related beliefs.",Highly disagree,91/150,Somewhat agree,3,1698180196320,1698180200787,\Somewhat agree\,\Somewhat agree\,\3\,1698180199695,1698180199695,3375,3375,4467,buq,qns-item-noham,91,686163,0.0-1.0-0.90
"<b>If the political party I support messes up, it makes me think you can?t trust anyone these days",Highly disagree,92/150,Somewhat agree,3,1698180200799,1698180205458,\Somewhat agree\,\Somewhat agree\,\3\,1698180204804,1698180204804,4005,4005,4659,buq,qns-item-noham,92,690833,0.0-1.0-0.91
<b>People?s brains turn off when they talk about politics.,Highly disagree,93/150,Somewhat disagree,2,1698180205465,1698180210180,\Somewhat disagree\,\Somewhat disagree\,\2\,1698180208929,1698180208929,3464,3464,4715,buq,qns-item-noham,93,695555,0.0-1.0-0.92
<b>People who are wrong are usually just ignoring the obvious.,Highly disagree,94/150,Somewhat disagree,2,1698180210199,1698180215557,\Somewhat disagree\,\Somewhat disagree\,\2\,1698180214897,1698180214897,4698,4698,5358,buq,qns-item-noham,94,700932,0.0-1.0-0.93
"<b>The world isn?t that complicated, but it?s still hard to figure out how it works.",Highly disagree,95/150,Somewhat agree,3,1698180215574,1698180222558,\Highly agree\,\Somewhat agree\,\4\,1698180220537,1698180221185,4963,5611,6984,buq,qns-item-noham,95,707933,0.0-1.0-0.94
"<b>When forming my views on people, I rely more on what they are like now rather than rely on my past experience with them.",Highly disagree,96/150,Somewhat disagree,2,1698180222569,1698180237835,\Somewhat disagree\,\Somewhat disagree\,\2\,1698180237052,1698180237052,14483,14483,15266,buq,qns-item-noham,96,723210,0.0-1.0-0.95
"<b>When people contradict my beliefs, I usually know about their evidence already.",Highly disagree,97/150,Somewhat disagree,2,1698180237843,1698180244124,\Somewhat disagree\,\Somewhat disagree\,\2\,1698180243283,1698180243283,5440,5440,6281,buq,qns-item-noham,97,729499,0.0-1.0-0.96
<b>Being wrong is a matter of degree.,Highly disagree,98/150,Somewhat agree,3,1698180244133,1698180249735,\Somewhat agree\,\Somewhat agree\,\3\,1698180248994,1698180248994,4861,4861,5602,buq,qns-item-noham,98,735110,0.0-1.0-0.97
<b>Figuring out what?s true and what?s false mainly requires a strong moral compass.,Highly disagree,99/150,Somewhat agree,3,1698180249746,1698180254830,\Somewhat agree\,\Somewhat agree\,\3\,1698180254022,1698180254022,4276,4276,5084,buq,qns-item-noham,99,740205,0.0-1.0-0.98
<b>Most of the beliefs people have are at least somewhat understandable.,Highly disagree,100/150,Somewhat disagree,2,1698180254849,1698180259663,\Somewhat agree\,\Somewhat disagree\,\3\,1698180258459,1698180259055,3610,4206,4814,buq,qns-item-noham,100,745038,0.0-1.0-0.99
"<b>Usually I?m wrong about simple things, not complicated ones.",Highly disagree,101/150,Somewhat disagree,2,1698180259676,1698180267882,\Somewhat disagree\,\Somewhat disagree\,\2\,1698180267274,1698180267274,7598,7598,8206,buq,qns-item-noham,101,753257,0.0-1.0-0.100
<b>Getting all the information I want about important things is hard.,Highly disagree,102/150,Somewhat agree,3,1698180267891,1698180271969,\Somewhat agree\,\Somewhat agree\,\3\,1698180271352,1698180271352,3461,3461,4078,buq,qns-item-noham,102,757344,0.0-1.0-0.101
<b>Most false beliefs spread because people try to deceive one another.,Highly disagree,103/150,Somewhat disagree,2,1698180271978,1698180278772,\Somewhat disagree\,\Somewhat disagree\,\2\,1698180278006,1698180278006,6028,6028,6794,buq,qns-item-noham,103,764147,0.0-1.0-0.102
<b>I can usually find something to agree with in most people?s beliefs.,Highly disagree,104/150,Somewhat agree,3,1698180278782,1698180283888,\Somewhat agree\,\Somewhat agree\,\3\,1698180283260,1698180283260,4478,4478,5106,buq,qns-item-noham,104,769263,0.0-1.0-0.103
<b>I only form my views of people once I get to know them very well.,Highly disagree,105/150,Somewhat disagree,2,1698180283897,1698180290274,\Somewhat disagree\,\Somewhat disagree\,\2\,1698180289605,1698180289605,5708,5708,6377,buq,qns-item-noham,105,775649,0.0-1.0-0.104
"<b>When people tell me important things about the world, I usually believe them.",Highly disagree,106/150,Somewhat agree,3,1698180290288,1698180295754,\Somewhat agree\,\Somewhat agree\,\3\,1698180295092,1698180295092,4804,4804,5466,buq,qns-item-noham,106,781129,0.0-1.0-0.105
"<b>If a friend does something that upsets me, it reminds me what an unpredictable place the world is.",Highly disagree,107/150,Somewhat agree,3,1698180295762,1698180307576,\Somewhat agree\,\Somewhat agree\,\3\,1698180306511,1698180306511,10749,10749,11814,buq,qns-item-noham,107,792951,0.0-1.0-0.106
<b>Having some conflicting beliefs is inevitable.,Highly disagree,108/150,Somewhat agree,3,1698180307585,1698180322413,\Somewhat agree\,\Somewhat agree\,\3\,1698180321565,1698180321565,13980,13980,14828,buq,qns-item-noham,108,807789,0.0-1.0-0.107
<b>People are wrong because they haven?t thought much about things.,Highly disagree,109/150,Somewhat agree,3,1698180322421,1698180334512,\Somewhat agree\,\Somewhat agree\,\3\,1698180333860,1698180333860,11439,11439,12091,buq,qns-item-noham,109,819887,0.0-1.0-0.108
<b>People tend to believe whatever is good for their friends.,Highly disagree,110/150,Somewhat agree,3,1698180334521,1698180339651,\Somewhat agree\,\Somewhat agree\,\3\,1698180338888,1698180338888,4367,4367,5130,buq,qns-item-noham,110,825026,0.0-1.0-0.109
"<b>When I talk about important topics, I try to make sure people know I?m not always right.",Highly disagree,111/150,Highly agree,4,1698180339659,1698180345453,\Somewhat agree\,\Highly agree\,\3\,1698180343993,1698180344683,4334,5024,5794,buq,qns-item-noham,111,830828,0.0-1.0-0.110
<b>I used to be more certain my beliefs were true.,Highly disagree,112/150,Somewhat agree,3,1698180345465,1698180349094,\Somewhat agree\,\Somewhat agree\,\3\,1698180348466,1698180348466,3001,3001,3629,buq,qns-item-noham,112,834469,0.0-1.0-0.111
<b>It?s often pretty easy to figure out whether something is true based on who said it.,Highly disagree,113/150,Somewhat agree,3,1698180349102,1698180354292,\Somewhat agree\,\Somewhat agree\,\3\,1698180353649,1698180353649,4547,4547,5190,buq,qns-item-noham,113,839667,0.0-1.0-0.112
<b>Having bad food in my favorite restaurant will make me think the restaurant is no longer good.,Highly disagree,114/150,Somewhat agree,3,1698180354301,1698180360092,\Somewhat agree\,\Somewhat agree\,\3\,1698180359552,1698180359552,5251,5251,5791,buq,qns-item-noham,114,845467,0.0-1.0-0.113
<b>I transform into a hummingbird every day.,Highly disagree,115/150,Highly disagree,1,1698180360100,1698180363797,\Highly disagree\,\Highly disagree\,\1\,1698180362811,1698180362811,2711,2711,3697,buq,qns-item-noham,115,849172,0.0-1.0-0.114
"<b>Unfortunately, when people are wrong, it?s usually because they?re bad.",Highly disagree,116/150,Somewhat disagree,2,1698180363813,1698180367925,\Somewhat disagree\,\Somewhat disagree\,\2\,1698180367263,1698180367263,3450,3450,4112,buq,qns-item-noham,116,853301,0.0-1.0-0.115
<b>I think a lot about arguments against my views.,Highly disagree,117/150,Somewhat agree,3,1698180367934,1698180373288,\Somewhat agree\,\Somewhat agree\,\3\,1698180372337,1698180372337,4403,4403,5354,buq,qns-item-noham,117,858663,0.0-1.0-0.116
<b>Details tend to matter a lot for knowing whether a policy is good.,Highly disagree,118/150,Somewhat agree,3,1698180373296,1698180378750,\Somewhat agree\,\Somewhat agree\,\3\,1698180377940,1698180377940,4644,4644,5454,buq,qns-item-noham,118,864126,0.0-1.0-0.117
<b>Personal experience is usually more important than facts and figures.,Highly disagree,119/150,Somewhat agree,3,1698180378762,1698180385807,\Somewhat agree\,\Somewhat agree\,\3\,1698180385103,1698180385103,6341,6341,7045,buq,qns-item-noham,119,871182,0.0-1.0-0.118
<b>I?ve been tricked before about important matters.,Highly disagree,120/150,Somewhat agree,3,1698180385817,1698180388967,\Somewhat agree\,\Somewhat agree\,\3\,1698180388418,1698180388418,2601,2601,3150,buq,qns-item-noham,120,874342,0.0-1.0-0.119
<b>I would need to be totally wowed if I were to change my opinion of a restaurant I don?t like.,Highly disagree,121/150,Somewhat disagree,2,1698180388975,1698180395579,\Somewhat disagree\,\Somewhat disagree\,\2\,1698180393147,1698180393147,4172,4172,6604,buq,qns-item-noham,121,880955,0.0-1.0-0.120
<b>I care a lot about politics.,Highly disagree,122/150,Somewhat disagree,2,1698180395590,1698180398321,\Somewhat disagree\,\Somewhat disagree\,\2\,1698180397716,1698180397716,2126,2126,2731,buq,qns-item-noham,122,883696,0.0-1.0-0.121
<b>People with conflicting beliefs usually have some facts they disagree on.,Highly disagree,123/150,Somewhat agree,3,1698180398330,1698180404435,\Somewhat agree\,\Somewhat agree\,\3\,1698180403795,1698180403795,5465,5465,6105,buq,qns-item-noham,123,889810,0.0-1.0-0.122
<b>There are some topics I?ve been really wrong about.,Highly disagree,124/150,Somewhat agree,3,1698180404444,1698180408248,\Somewhat agree\,\Somewhat agree\,\3\,1698180407475,1698180407475,3031,3031,3804,buq,qns-item-noham,124,893624,0.0-1.0-0.123
<b>Most beliefs can be supported with at least some evidence.,Highly disagree,125/150,Somewhat agree,3,1698180408258,1698180412612,\Somewhat agree\,\Somewhat agree\,\3\,1698180411805,1698180411805,3547,3547,4354,buq,qns-item-noham,125,897987,0.0-1.0-0.124
<b>Other people make life out to be more complicated than it really is.,Highly disagree,126/150,Somewhat disagree,2,1698180412619,1698180418392,\Somewhat disagree\,\Somewhat disagree\,\2\,1698180417503,1698180417503,4884,4884,5773,buq,qns-item-noham,126,903767,0.0-1.0-0.125
"<b>My political views are being shaped continuously as I gather more information, rather than relying on what I?ve known to be true of my party in the past. ",Highly disagree,127/150,Somewhat agree,3,1698180418400,1698180425291,\Somewhat agree\,\Somewhat agree\,\3\,1698180424286,1698180424286,5886,5886,6891,buq,qns-item-noham,127,910667,0.0-1.0-0.126
<b>It?s pretty unusual for true things to seem false.,Highly disagree,128/150,Somewhat disagree,2,1698180425299,1698180431766,\Somewhat disagree\,\Somewhat disagree\,\2\,1698180431155,1698180431155,5856,5856,6467,buq,qns-item-noham,128,917142,0.0-1.0-0.127
"<b>Policy details don?t matter much, just the big picture.",Highly disagree,129/150,Somewhat disagree,2,1698180431776,1698180435834,\Somewhat disagree\,\Somewhat disagree\,\2\,1698180435067,1698180435067,3291,3291,4058,buq,qns-item-noham,129,921210,0.0-1.0-0.128
<b>I know my friends so well they can hardly ever surprise me.,Highly disagree,130/150,Somewhat agree,3,1698180435844,1698180443848,\Somewhat disagree\,\Somewhat agree\,\2\,1698180442370,1698180443110,6526,7266,8004,buq,qns-item-noham,130,929223,0.0-1.0-0.129
"<b>When I talk to people, I often think about why they have the beliefs they do.",Highly disagree,131/150,Somewhat agree,3,1698180443858,1698180449538,\Somewhat agree\,\Somewhat agree\,\3\,1698180448842,1698180448842,4984,4984,5680,buq,qns-item-noham,131,934914,0.0-1.0-0.130
<b>I do not often change my views on people.,Highly disagree,132/150,Somewhat agree,3,1698180449546,1698180455441,\Somewhat agree\,\Somewhat agree\,\3\,1698180454301,1698180454301,4755,4755,5895,buq,qns-item-noham,132,940817,0.0-1.0-0.131
<b>I often wish I had more time to spend figuring out what?s true and what?s false in life.,Highly disagree,133/150,Somewhat agree,3,1698180455460,1698180460461,\Somewhat agree\,\Somewhat agree\,\3\,1698180459819,1698180459819,4359,4359,5001,buq,qns-item-noham,133,945837,0.0-1.0-0.132
<b>I?m more certain about my beliefs than I used to be.,Highly disagree,134/150,Somewhat disagree,2,1698180460471,1698180468962,\Somewhat disagree\,\Somewhat disagree\,\2\,1698180466134,1698180468059,5663,7588,8491,buq,qns-item-noham,134,954337,0.0-1.0-0.133
"<b>Whenever I find out new information, I update my views on politics accordingly.",Highly disagree,135/150,Somewhat agree,3,1698180468973,1698180494859,\Somewhat agree\,\Somewhat agree\,\3\,1698180493820,1698180493820,24847,24847,25886,buq,qns-item-noham,135,980234,0.0-1.0-0.134
<b>People often tell falsehoods unintentionally.,Highly disagree,136/150,Somewhat agree,3,1698180494866,1698180513114,\Somewhat disagree\,\Somewhat agree\,\2\,1698180511480,1698180512383,16614,17517,18248,buq,qns-item-noham,136,998489,0.0-1.0-0.135
<b>Most people don?t know much about most things.,Highly disagree,137/150,Somewhat agree,3,1698180513125,1698180516552,\Somewhat agree\,\Somewhat agree\,\3\,1698180515858,1698180515858,2733,2733,3427,buq,qns-item-noham,137,1001927,0.0-1.0-0.136
"<b>If I find out something new about someone, I easily change my views about them.",Highly disagree,138/150,Somewhat agree,3,1698180516560,1698180520525,\Somewhat agree\,\Somewhat agree\,\3\,1698180519723,1698180519723,3163,3163,3965,buq,qns-item-noham,138,1005900,0.0-1.0-0.137
<b>Having true beliefs is difficult.,Highly disagree,139/150,Somewhat agree,3,1698180520534,1698180523588,\Somewhat agree\,\Somewhat agree\,\3\,1698180522797,1698180522797,2263,2263,3054,buq,qns-item-noham,139,1008963,0.0-1.0-0.138
<b>I don?t try new foods since I know I won?t like them.,Highly disagree,140/150,Somewhat disagree,2,1698180523595,1698180528171,\Somewhat disagree\,\Somewhat disagree\,\2\,1698180527357,1698180527357,3762,3762,4576,buq,qns-item-noham,140,1013546,0.0-1.0-0.139
<b>It?s easy to figure out what?s true or false based on who?s saying it.,Highly disagree,141/150,Somewhat agree,3,1698180528180,1698180532532,\Somewhat agree\,\Somewhat agree\,\3\,1698180531873,1698180531873,3693,3693,4352,buq,qns-item-noham,141,1017907,0.0-1.0-0.140
<b>False things have seemed true to me many times.,Highly disagree,142/150,Somewhat agree,3,1698180532542,1698180535936,\Somewhat agree\,\Somewhat agree\,\3\,1698180535229,1698180535229,2687,2687,3394,buq,qns-item-noham,142,1021311,0.0-1.0-0.141
<b>It?s pretty easy to sort out what?s true and what?s false in life.,Highly disagree,143/150,Somewhat disagree,2,1698180535946,1698180539881,\Somewhat disagree\,\Somewhat disagree\,\2\,1698180539072,1698180539072,3126,3126,3935,buq,qns-item-noham,143,1025256,0.0-1.0-0.142
<b>Knowing lots of statistics about something is usually important for understanding it.,Highly disagree,144/150,Somewhat agree,3,1698180539891,1698180543759,\Somewhat agree\,\Somewhat agree\,\3\,1698180542943,1698180542943,3052,3052,3868,buq,qns-item-noham,144,1029134,0.0-1.0-0.143
<b>Other people trick each other a lot.,Highly disagree,145/150,Somewhat agree,3,1698180543770,1698180547180,\Somewhat agree\,\Somewhat agree\,\3\,1698180546550,1698180546550,2780,2780,3410,buq,qns-item-noham,145,1032555,0.0-1.0-0.144
<b>I would need to learn a lot about a person for my opinion of them to be swayed.,Highly disagree,146/150,Somewhat agree,3,1698180547190,1698180552018,\Somewhat agree\,\Somewhat agree\,\3\,1698180550752,1698180550752,3562,3562,4828,buq,qns-item-noham,146,1037394,0.0-1.0-0.145
<b>People can?t usually trick me when it comes to topics I care about.,Highly disagree,147/150,Somewhat agree,3,1698180552035,1698180559081,\Somewhat disagree\,\Somewhat agree\,\2\,1698180557369,1698180558362,5334,6327,7046,buq,qns-item-noham,147,1044456,0.0-1.0-0.146
<b>I do not often change my views on food.,Highly disagree,148/150,Somewhat agree,3,1698180559093,1698180561715,\Somewhat agree\,\Somewhat agree\,\3\,1698180561047,1698180561047,1954,1954,2622,buq,qns-item-noham,148,1047090,0.0-1.0-0.147
<b>Specific policies are often very important to me.,Highly disagree,149/150,Somewhat disagree,2,1698180561724,1698180567733,\Somewhat agree\,\Somewhat disagree\,\3\,1698180564775,1698180566985,3051,5261,6009,buq,qns-item-noham,149,1053108,0.0-1.0-0.148
<b>Most people are woefully under-informed.,Highly disagree,150/150,Highly agree,4,1698180567744,1698180572710,\Somewhat agree\,\Highly agree\,\3\,1698180570798,1698180571901,3054,4157,4966,buq,qns-item-noham,150,1058085,0.0-1.0-0.149
