Question,qns_options,quest_num,answer,answer_num,question_load_timestamp,next_btn_timestamp,text_selected,final_text_selected,option_num_selected,preview_timestamps,final_text_selected_time_stamp,rt_first_option_click,rt_final_option_click,rt_submit_click,questionnaire,trial_type,trial_index,time_elapsed,internal_node_id
<b>Considering other people?s perspectives can help us figure out what?s true or false.,Highly disagree,1/150,Highly agree,4,1698181417020,1698181423345,\Highly agree\,\Highly agree\,\4\,1698181422447,1698181422447,5427,5427,6325,buq,qns-item-noham,1,14825,0.0-1.0-0.0
<b>Knowing what?s true and knowing what to do about it are usually basically the same.,Highly disagree,2/150,Somewhat disagree,2,1698181423382,1698181429479,\Somewhat disagree\,\Somewhat disagree\,\2\,1698181428740,1698181428740,5358,5358,6097,buq,qns-item-noham,2,20957,0.0-1.0-0.1
<b>Most people just believe whatever is convenient for them.,Highly disagree,3/150,Somewhat agree,3,1698181429487,1698181434398,\Somewhat agree\,\Somewhat agree\,\3\,1698181433318,1698181433318,3831,3831,4911,buq,qns-item-noham,3,25876,0.0-1.0-0.2
<b>Even people who are wrong about most things can be right sometimes.,Highly disagree,4/150,Highly agree,4,1698181434408,1698181438748,\Highly agree\,\Highly agree\,\4\,1698181437910,1698181437910,3502,3502,4340,buq,qns-item-noham,4,30226,0.0-1.0-0.3
"<b>If the political party I support does something that upsets me, then the party may have changed, and I need to re-evaluate my support.",Highly disagree,5/150,Highly agree,4,1698181438755,1698181445206,\Highly agree\,\Highly agree\,\4\,1698181444426,1698181444426,5671,5671,6451,buq,qns-item-noham,5,36684,0.0-1.0-0.4
"<b>When people disagree, one side is usually completely right.",Highly disagree,6/150,Highly disagree,1,1698181445213,1698181448424,\Highly disagree\,\Highly disagree\,\1\,1698181447688,1698181447688,2475,2475,3211,buq,qns-item-noham,6,39903,0.0-1.0-0.5
<b>People have lots of false beliefs.,Highly disagree,7/150,Highly agree,4,1698181448430,1698181451546,\Highly agree\,\Highly agree\,\4\,1698181450818,1698181450818,2388,2388,3116,buq,qns-item-noham,7,43024,0.0-1.0-0.6
<b>Having some big beliefs helps me sort out minor ones.,Highly disagree,8/150,Highly agree,4,1698181451553,1698181455293,\Highly agree\,\Highly agree\,\4\,1698181454676,1698181454676,3123,3123,3740,buq,qns-item-noham,8,46771,0.0-1.0-0.7
<b>Political questions are usually pretty complicated.,Highly disagree,9/150,Highly agree,4,1698181455302,1698181458991,\Highly agree\,\Highly agree\,\4\,1698181458321,1698181458321,3019,3019,3689,buq,qns-item-noham,9,50469,0.0-1.0-0.8
<b>Figuring out what?s important in life requires learning a lot of facts.,Highly disagree,10/150,Somewhat disagree,2,1698181459005,1698181476379,\Somewhat disagree\,\Somewhat disagree\,\2\,1698181475555,1698181475555,16550,16550,17374,buq,qns-item-noham,10,67857,0.0-1.0-0.9
<b>It is difficult for me to remember the last time I was surprised by politics.,Highly disagree,11/150,Highly disagree,1,1698181476389,1698181480400,\Highly disagree\,\Highly disagree\,\1\,1698181479644,1698181479644,3255,3255,4011,buq,qns-item-noham,11,71878,0.0-1.0-0.10
<b>People?s false beliefs are understandable.,Highly disagree,12/150,Somewhat agree,3,1698181480406,1698181484242,\Somewhat disagree\,\Somewhat agree\,\2\,1698181482959,1698181483681,2553,3275,3836,buq,qns-item-noham,12,75721,0.0-1.0-0.11
<b>I spend a lot of time trying to be informed about politics.,Highly disagree,13/150,Somewhat agree,3,1698181484250,1698181488391,\Somewhat disagree\,\Somewhat agree\,\2\,1698181486780,1698181487234,2530,2984,4141,buq,qns-item-noham,13,79869,0.0-1.0-0.12
<b>I think a lot about whether my beliefs are right.,Highly disagree,14/150,Somewhat agree,3,1698181488399,1698181491431,\Somewhat agree\,\Somewhat agree\,\3\,1698181490323,1698181490323,1924,1924,3032,buq,qns-item-noham,14,82909,0.0-1.0-0.13
<b>Statistics can be pretty misleading sometimes.,Highly disagree,15/150,Somewhat agree,3,1698181491438,1698181495378,\Somewhat agree\,\Somewhat agree\,\3\,1698181494557,1698181494557,3119,3119,3940,buq,qns-item-noham,15,86856,0.0-1.0-0.14
<b>Figuring out what?s true and what?s false takes a lot of time and effort.,Highly disagree,16/150,Highly agree,4,1698181495393,1698181498750,\Highly agree\,\Highly agree\,\4\,1698181497987,1698181497987,2594,2594,3357,buq,qns-item-noham,16,90228,0.0-1.0-0.15
"<b>If a friend does something bad to me, it was likely an error on their part.",Highly disagree,17/150,Highly disagree,1,1698181498757,1698181502340,\Highly disagree\,\Highly disagree\,\1\,1698181501616,1698181501616,2859,2859,3583,buq,qns-item-noham,17,93818,0.0-1.0-0.16
<b>I have lots of beliefs that I?m only sort of sure about.,Highly disagree,18/150,Highly agree,4,1698181502347,1698181506113,\Highly agree\,\Highly agree\,\4\,1698181505235,1698181505235,2888,2888,3766,buq,qns-item-noham,18,97591,0.0-1.0-0.17
"<b>If I go to my favorite restaurant and the food is surprisingly bad, it reminds me there are many disappointments in life.",Highly disagree,19/150,Somewhat agree,3,1698181506121,1698181519277,\Somewhat agree\,\Somewhat agree\,\3\,1698181518102,1698181518102,11981,11981,13156,buq,qns-item-noham,19,110755,0.0-1.0-0.18
<b>Sometimes my beliefs are inconvenient for me.,Highly disagree,20/150,Highly agree,4,1698181519284,1698181522489,\Highly agree\,\Highly agree\,\4\,1698181521691,1698181521691,2407,2407,3205,buq,qns-item-noham,20,113967,0.0-1.0-0.19
<b>Paying attention to multiple news sources is important.,Highly disagree,21/150,Highly agree,4,1698181522496,1698181525731,\Highly agree\,\Highly agree\,\4\,1698181524863,1698181524863,2367,2367,3235,buq,qns-item-noham,21,117209,0.0-1.0-0.20
"<b>If you are paying attention, please select ?Somewhat agree?",Highly disagree,22/150,Somewhat agree,3,1698181525736,1698181528690,\Somewhat agree\,\Somewhat agree\,\3\,1698181527915,1698181527915,2179,2179,2954,buq,qns-item-noham,22,120168,0.0-1.0-0.21
"<b>When I talk to others, I often worry I?ll convince them of something I didn?t mean to.",Highly disagree,23/150,Highly disagree,1,1698181528699,1698181533465,\Highly disagree\,\Highly disagree\,\1\,1698181532813,1698181532813,4114,4114,4766,buq,qns-item-noham,23,124943,0.0-1.0-0.22
<b>I would need to learn something utterly shocking about my party in order to change my political views.,Highly disagree,24/150,Somewhat agree,3,1698181533470,1698181538716,\Somewhat agree\,\Somewhat agree\,\3\,1698181538191,1698181538191,4721,4721,5246,buq,qns-item-noham,24,130194,0.0-1.0-0.23
"<b>When I have new experiences, I tend to think of them as unique.",Highly disagree,25/150,Somewhat agree,3,1698181538722,1698181544297,\Somewhat agree\,\Somewhat agree\,\3\,1698181543579,1698181543579,4857,4857,5575,buq,qns-item-noham,25,135775,0.0-1.0-0.24
<b>Reading lots of things is important for understanding the world.,Highly disagree,26/150,Highly agree,4,1698181544302,1698181547810,\Highly agree\,\Highly agree\,\4\,1698181546663,1698181546663,2361,2361,3508,buq,qns-item-noham,26,139288,0.0-1.0-0.25
<b>The world is complicated.,Highly disagree,27/150,Highly agree,4,1698181547815,1698181551201,\Highly agree\,\Highly agree\,\4\,1698181550512,1698181550512,2697,2697,3386,buq,qns-item-noham,27,142679,0.0-1.0-0.26
<b>I change my mind about specific policies pretty frequently.,Highly disagree,28/150,Somewhat disagree,2,1698181551206,1698181560450,\Somewhat disagree\,\Somewhat disagree\,\2\,1698181559764,1698181559764,8558,8558,9244,buq,qns-item-noham,28,151928,0.0-1.0-0.27
"<b>If a politician in my political party supports something I disagree with, I give them the benefit of the doubt, as such issues often involve hidden complexities that aren?t obvious.   ",Highly disagree,29/150,Somewhat disagree,2,1698181560455,1698181583496,\Somewhat disagree\,\Somewhat disagree\,\2\,1698181581600,1698181581600,21145,21145,23041,buq,qns-item-noham,29,174975,0.0-1.0-0.28
<b>People?s bad politics are usually motivated by hatefulness.,Highly disagree,30/150,Somewhat agree,3,1698181583504,1698181592570,\Somewhat agree\,\Somewhat agree\,\3\,1698181591907,1698181591907,8403,8403,9066,buq,qns-item-noham,30,184048,0.0-1.0-0.29
"<b>Most new experiences are just like old ones, but a little bit different.",Highly disagree,31/150,Highly disagree,1,1698181592577,1698181612664,\Highly disagree\,\Highly disagree\,\1\,1698181611878,1698181611878,19301,19301,20087,buq,qns-item-noham,31,204142,0.0-1.0-0.30
<b>I think a lot about how to reconcile my beliefs with one another.,Highly disagree,32/150,Somewhat agree,3,1698181612670,1698181617974,\Somewhat agree\,\Somewhat agree\,\3\,1698181617241,1698181617241,4571,4571,5304,buq,qns-item-noham,32,209452,0.0-1.0-0.31
<b>Personal experience rarely leads people astray.,Highly disagree,33/150,Highly disagree,1,1698181617980,1698181622877,\Highly disagree\,\Highly disagree\,\1\,1698181622173,1698181622173,4193,4193,4897,buq,qns-item-noham,33,214356,0.0-1.0-0.32
<b>I might have false beliefs about important topics.,Highly disagree,34/150,Highly agree,4,1698181622885,1698181626839,\Highly agree\,\Highly agree\,\4\,1698181625942,1698181625942,3057,3057,3954,buq,qns-item-noham,34,218319,0.0-1.0-0.33
"<b>If a good friend of mine does something unexpected that upsets me, I feel like I don?t know them anymore.",Highly disagree,35/150,Somewhat agree,3,1698181626847,1698181631388,\Somewhat agree\,\Somewhat agree\,\3\,1698181630775,1698181630775,3928,3928,4541,buq,qns-item-noham,35,222866,0.0-1.0-0.34
<b>Other people?s beliefs are often incoherent.,Highly disagree,36/150,Highly disagree,1,1698181631406,1698181637204,\Highly disagree\,\Highly disagree\,\1\,1698181636506,1698181636506,5100,5100,5798,buq,qns-item-noham,36,228682,0.0-1.0-0.35
<b>It?s important to have friends who think about things differently than I do.,Highly disagree,37/150,Highly agree,4,1698181637212,1698181641123,\Highly agree\,\Highly agree\,\4\,1698181639750,1698181639750,2538,2538,3911,buq,qns-item-noham,37,232602,0.0-1.0-0.36
"<b>Every now and then, a new experience will unsettle beliefs I?ve had for a while.",Highly disagree,38/150,Somewhat agree,3,1698181641130,1698181650531,\Somewhat agree\,\Somewhat agree\,\3\,1698181649770,1698181649770,8640,8640,9401,buq,qns-item-noham,38,242009,0.0-1.0-0.37
<b>Some policies I agree with in principle are so bad I don?t support them. ,Highly disagree,39/150,Highly disagree,1,1698181650540,1698181657441,\Highly disagree\,\Highly disagree\,\1\,1698181656769,1698181656769,6229,6229,6901,buq,qns-item-noham,39,248919,0.0-1.0-0.38
<b>I?m pretty sure I?ve accidentally spread false information.,Highly disagree,40/150,Highly agree,4,1698181657457,1698181660827,\Highly agree\,\Highly agree\,\4\,1698181660098,1698181660098,2641,2641,3370,buq,qns-item-noham,40,252305,0.0-1.0-0.39
"<b>If I go to my favorite restaurant and the food is unexpectedly bad, then they have changed owners.",Highly disagree,41/150,Highly disagree,1,1698181660832,1698181666486,\Highly disagree\,\Highly disagree\,\1\,1698181665812,1698181665812,4980,4980,5654,buq,qns-item-noham,41,257964,0.0-1.0-0.40
"<b>In politics, it?s important to trust your friends and family.",Highly disagree,42/150,Highly disagree,1,1698181666494,1698181669807,\Highly disagree\,\Highly disagree\,\1\,1698181669027,1698181669027,2533,2533,3313,buq,qns-item-noham,42,261285,0.0-1.0-0.41
<b>It?s OK to have some conflicting beliefs.,Highly disagree,43/150,Highly agree,4,1698181669813,1698181672794,\Highly agree\,\Highly agree\,\4\,1698181672174,1698181672174,2361,2361,2981,buq,qns-item-noham,43,264272,0.0-1.0-0.42
<b>Sometimes the details of a matter seem to conflict with the big picture.,Highly disagree,44/150,Highly agree,4,1698181672799,1698181677134,\Highly agree\,\Highly agree\,\4\,1698181675948,1698181675948,3149,3149,4335,buq,qns-item-noham,44,268612,0.0-1.0-0.43
<b>Listening to people I disagree with makes my opinions better.,Highly disagree,45/150,Somewhat agree,3,1698181677140,1698181681017,\Somewhat agree\,\Somewhat agree\,\3\,1698181680439,1698181680439,3299,3299,3877,buq,qns-item-noham,45,272495,0.0-1.0-0.44
<b>Policies that sound bad are sometimes fine when you find out about their details.,Highly disagree,46/150,Highly agree,4,1698181681026,1698181690061,\Highly agree\,\Highly agree\,\4\,1698181688974,1698181688974,7948,7948,9035,buq,qns-item-noham,46,281539,0.0-1.0-0.45
"<b>The world is always changing, so my beliefs are sometimes out-dated.",Highly disagree,47/150,Highly agree,4,1698181690066,1698181700110,\Highly agree\,\Highly agree\,\4\,1698181699341,1698181699341,9275,9275,10044,buq,qns-item-noham,47,291588,0.0-1.0-0.46
"<b>If I receive a bad meal at my favorite restaurant and the food is surprisingly bad, I do not think much of it, and assume the chef is just having an ?off? day.",Highly disagree,48/150,Highly agree,4,1698181700115,1698181706961,\Highly agree\,\Highly agree\,\4\,1698181706254,1698181706254,6139,6139,6846,buq,qns-item-noham,48,298439,0.0-1.0-0.47
"<b>False information is unavoidable, to some extent.",Highly disagree,49/150,Highly agree,4,1698181706969,1698181710306,\Highly agree\,\Highly agree\,\4\,1698181709346,1698181709346,2377,2377,3337,buq,qns-item-noham,49,301784,0.0-1.0-0.48
<b>My moral compass sometimes makes it harder to determine what?s true.,Highly disagree,50/150,Highly agree,4,1698181710310,1698181714004,\Highly agree\,\Highly agree\,\4\,1698181713230,1698181713230,2920,2920,3694,buq,qns-item-noham,50,305482,0.0-1.0-0.49
"<b>When you disagree with someone, it?s important to listen to them carefully.",Highly disagree,51/150,Somewhat agree,3,1698181714011,1698181732156,\Somewhat agree\,\Somewhat agree\,\3\,1698181731062,1698181731062,17051,17051,18145,buq,qns-item-noham,51,323634,0.0-1.0-0.50
<b>Evidence pointing in the wrong direction isn?t really evidence at all.,Highly disagree,52/150,Highly disagree,1,1698181732161,1698181741746,\Highly disagree\,\Highly disagree\,\1\,1698181740583,1698181740583,8422,8422,9585,buq,qns-item-noham,52,333224,0.0-1.0-0.51
"<b>If the political party I support messes up, it makes me think politics is rotten.",Highly disagree,53/150,Somewhat agree,3,1698181741753,1698181748499,\Highly disagree\,\Somewhat agree\,\1\,1698181745651,1698181747681,3898,5928,6746,buq,qns-item-noham,53,339978,0.0-1.0-0.52
<b>Lots of important topics can only really be understood by some groups of people.,Highly disagree,54/150,Somewhat disagree,2,1698181748506,1698181753636,\Somewhat disagree\,\Somewhat disagree\,\2\,1698181752873,1698181752873,4367,4367,5130,buq,qns-item-noham,54,345114,0.0-1.0-0.53
<b>Details almost always matter for being right about something.,Highly disagree,55/150,Somewhat agree,3,1698181753643,1698181760488,\Somewhat agree\,\Somewhat agree\,\3\,1698181759697,1698181759697,6054,6054,6845,buq,qns-item-noham,55,351966,0.0-1.0-0.54
"<b>The most important thing in politics is winning, not convincing people.",Highly disagree,56/150,Highly disagree,1,1698181760496,1698181765254,\Highly disagree\,\Highly disagree\,\1\,1698181764327,1698181764327,3831,3831,4758,buq,qns-item-noham,56,356732,0.0-1.0-0.55
<b>Having conflicting beliefs means you haven?t thought about them enough.,Highly disagree,57/150,Somewhat disagree,2,1698181765268,1698181772321,\Somewhat disagree\,\Somewhat disagree\,\2\,1698181771716,1698181771716,6448,6448,7053,buq,qns-item-noham,57,363799,0.0-1.0-0.56
<b>Other people have sometimes convinced me to change my mind on important topics.,Highly disagree,58/150,Somewhat agree,3,1698181772342,1698181776299,\Somewhat agree\,\Somewhat agree\,\3\,1698181775702,1698181775702,3360,3360,3957,buq,qns-item-noham,58,367777,0.0-1.0-0.57
<b>I do not often change my political opinions.,Highly disagree,59/150,Highly disagree,1,1698181776306,1698181779366,\Highly disagree\,\Highly disagree\,\1\,1698181778715,1698181778715,2409,2409,3060,buq,qns-item-noham,59,370844,0.0-1.0-0.58
<b>Thinking about how different things relate to one another is critical in life.,Highly disagree,60/150,Somewhat agree,3,1698181779371,1698181788168,\Somewhat agree\,\Somewhat agree\,\3\,1698181787465,1698181787465,8094,8094,8797,buq,qns-item-noham,60,379647,0.0-1.0-0.59
<b>True beliefs can have unfortunate implications.,Highly disagree,61/150,Highly agree,4,1698181788176,1698181792782,\Highly agree\,\Highly agree\,\4\,1698181791856,1698181791856,3680,3680,4606,buq,qns-item-noham,61,384260,0.0-1.0-0.60
<b>It?s difficult to not have at least some conflicting beliefs.,Highly disagree,62/150,Highly agree,4,1698181792787,1698181798039,\Highly agree\,\Highly agree\,\4\,1698181797277,1698181797277,4490,4490,5252,buq,qns-item-noham,62,389517,0.0-1.0-0.61
"<b>When I learn new things, I think deeply about how my opinions should change.",Highly disagree,63/150,Highly agree,4,1698181798049,1698181802071,\Highly agree\,\Highly agree\,\4\,1698181800935,1698181800935,2886,2886,4022,buq,qns-item-noham,63,393549,0.0-1.0-0.62
<b>I think a lot about how to interpret different sorts of evidence.,Highly disagree,64/150,Highly agree,4,1698181802078,1698181805945,\Highly agree\,\Highly agree\,\4\,1698181804965,1698181804965,2887,2887,3867,buq,qns-item-noham,64,397423,0.0-1.0-0.63
<b>Politics is about thinking together and finding compromises.,Highly disagree,65/150,Somewhat agree,3,1698181805950,1698181810538,\Highly agree\,\Somewhat agree\,\4\,1698181808639,1698181809891,2689,3941,4588,buq,qns-item-noham,65,402017,0.0-1.0-0.64
<b>Wishful thinking causes a lot of problems.,Highly disagree,66/150,Somewhat agree,3,1698181810545,1698181814135,\Somewhat agree\,\Somewhat agree\,\3\,1698181813495,1698181813495,2950,2950,3590,buq,qns-item-noham,66,405613,0.0-1.0-0.65
<b>I judge a food item only once I try it many times.,Highly disagree,67/150,Highly disagree,1,1698181814147,1698181820241,\Highly disagree\,\Highly disagree\,\1\,1698181819566,1698181819566,5419,5419,6094,buq,qns-item-noham,67,411719,0.0-1.0-0.66
"<b>When a person holds conflicting beliefs, they should really try to figure out what?s wrong.",Highly disagree,68/150,Somewhat agree,3,1698181820251,1698181832313,\Somewhat agree\,\Somewhat agree\,\3\,1698181831217,1698181831217,10966,10966,12062,buq,qns-item-noham,68,423791,0.0-1.0-0.67
<b>Knowing what?s important in life is easy.,Highly disagree,69/150,Highly disagree,1,1698181832319,1698181836006,\Highly disagree\,\Highly disagree\,\1\,1698181835043,1698181835043,2724,2724,3687,buq,qns-item-noham,69,427484,0.0-1.0-0.68
<b>Lots of smart people disagree about basic political questions.,Highly disagree,70/150,Highly agree,4,1698181836014,1698181841456,\Highly agree\,\Highly agree\,\4\,1698181839920,1698181839920,3906,3906,5442,buq,qns-item-noham,70,432934,0.0-1.0-0.69
<b>I swim across the Atlantic Ocean to get to work every day.,Highly disagree,71/150,Highly disagree,1,1698181841464,1698181844483,\Highly disagree\,\Highly disagree\,\1\,1698181843505,1698181843505,2041,2041,3019,buq,qns-item-noham,71,435961,0.0-1.0-0.70
"<b>Sometimes, you just have to ignore evidence that you know is wrong.",Highly disagree,72/150,Somewhat agree,3,1698181844488,1698181855702,\Somewhat agree\,\Somewhat agree\,\3\,1698181854841,1698181854841,10353,10353,11214,buq,qns-item-noham,72,447180,0.0-1.0-0.71
<b>I have had some false beliefs.,Highly disagree,73/150,Highly agree,4,1698181855712,1698181858935,\Highly agree\,\Highly agree\,\4\,1698181858191,1698181858191,2479,2479,3223,buq,qns-item-noham,73,450413,0.0-1.0-0.72
"<b>If one friend does something that upsets me, I sometimes start to distrust people in general.",Highly disagree,74/150,Somewhat agree,3,1698181858941,1698181864205,\Somewhat agree\,\Somewhat agree\,\3\,1698181863573,1698181863573,4632,4632,5264,buq,qns-item-noham,74,455683,0.0-1.0-0.73
<b>I easily apply what I learn in one situation to another.,Highly disagree,75/150,Highly agree,4,1698181864214,1698181868739,\Highly agree\,\Highly agree\,\4\,1698181867943,1698181867943,3729,3729,4525,buq,qns-item-noham,75,460217,0.0-1.0-0.74
<b>The facts about most important matters are easy to find.,Highly disagree,76/150,Highly disagree,1,1698181868746,1698181873966,\Highly disagree\,\Highly disagree\,\1\,1698181873309,1698181873309,4563,4563,5220,buq,qns-item-noham,76,465444,0.0-1.0-0.75
<b>It?s better to know what?s true than to know what?s moral.,Highly disagree,77/150,Somewhat agree,3,1698181873972,1698181879452,\Somewhat agree\,\Somewhat agree\,\3\,1698181878606,1698181878606,4634,4634,5480,buq,qns-item-noham,77,470930,0.0-1.0-0.76
<b>It?s good to be skeptical of people you agree with.,Highly disagree,78/150,Highly agree,4,1698181879457,1698181887943,\Highly agree\,\Highly agree\,\4\,1698181887192,1698181887192,7735,7735,8486,buq,qns-item-noham,78,479422,0.0-1.0-0.77
<b>Sometimes reasonable beliefs are wrong.,Highly disagree,79/150,Somewhat agree,3,1698181887950,1698181892698,\Somewhat agree\,\Somewhat agree\,\3\,1698181890901,1698181890901,2951,2951,4748,buq,qns-item-noham,79,484176,0.0-1.0-0.78
<b>I used to think the world was less complicated than I do now.,Highly disagree,80/150,Highly agree,4,1698181892704,1698181898339,\Highly agree\,\Highly agree\,\4\,1698181897624,1698181897624,4920,4920,5635,buq,qns-item-noham,80,489817,0.0-1.0-0.79
<b>People are usually completely right or completely wrong.,Highly disagree,81/150,Highly disagree,1,1698181898360,1698181901869,\Highly disagree\,\Highly disagree\,\1\,1698181900844,1698181900844,2484,2484,3509,buq,qns-item-noham,81,493347,0.0-1.0-0.80
<b>I spend a lot of time considering alternatives to my beliefs.,Highly disagree,82/150,Highly agree,4,1698181901876,1698181904889,\Highly agree\,\Highly agree\,\4\,1698181904215,1698181904215,2339,2339,3013,buq,qns-item-noham,82,496367,0.0-1.0-0.81
"<b>Political enemies need to be defeated, not convinced.",Highly disagree,83/150,Somewhat agree,3,1698181904896,1698181910683,\Somewhat agree\,\Somewhat agree\,\3\,1698181909664,1698181909664,4768,4768,5787,buq,qns-item-noham,83,502161,0.0-1.0-0.82
"<b>When forming an opinion about a restaurant, I am more swayed by my  latest meal there than  previous meals I?ve had there.",Highly disagree,84/150,Highly agree,4,1698181910688,1698181921345,\Highly agree\,\Highly agree\,\4\,1698181920301,1698181920301,9613,9613,10657,buq,qns-item-noham,84,512823,0.0-1.0-0.83
<b>I try to remain skeptical about most topics.,Highly disagree,85/150,Highly agree,4,1698181921351,1698181932175,\Highly agree\,\Highly agree\,\4\,1698181930585,1698181930585,9234,9234,10824,buq,qns-item-noham,85,523653,0.0-1.0-0.84
<b>Being wrong is usually obvious in retrospect.,Highly disagree,86/150,Highly disagree,1,1698181932181,1698181940995,\Highly disagree\,\Highly disagree\,\1\,1698181940107,1698181940107,7926,7926,8814,buq,qns-item-noham,86,532473,0.0-1.0-0.85
<b>It can be hard to realize that my beliefs are in conflict.,Highly disagree,87/150,Highly agree,4,1698181941000,1698181945885,\Highly agree\,\Highly agree\,\4\,1698181944130,1698181944130,3130,3130,4885,buq,qns-item-noham,87,537363,0.0-1.0-0.86
<b>I form my political views only after meticulously gathering historical and present information about their policies.,Highly disagree,88/150,Somewhat disagree,2,1698181945892,1698181953433,\Somewhat disagree\,\Somewhat disagree\,\2\,1698181952862,1698181952862,6970,6970,7541,buq,qns-item-noham,88,544911,0.0-1.0-0.87
<b>Skeptical people are usually just bad-tempered.,Highly disagree,89/150,Highly disagree,1,1698181953441,1698181956969,\Highly disagree\,\Highly disagree\,\1\,1698181956247,1698181956247,2806,2806,3528,buq,qns-item-noham,89,548447,0.0-1.0-0.88
<b>It is difficult for me to remember the last time I was surprised by politics.,Highly disagree,90/150,Highly disagree,1,1698181956977,1698181961939,\Highly disagree\,\Highly disagree\,\1\,1698181960396,1698181960396,3419,3419,4962,buq,qns-item-noham,90,553417,0.0-1.0-0.89
"<b>When I find out I?m wrong, I think a lot about my related beliefs.",Highly disagree,91/150,Highly agree,4,1698181961945,1698181966165,\Highly agree\,\Highly agree\,\4\,1698181964828,1698181964828,2883,2883,4220,buq,qns-item-noham,91,557643,0.0-1.0-0.90
"<b>If the political party I support messes up, it makes me think you can?t trust anyone these days",Highly disagree,92/150,Somewhat disagree,2,1698181966173,1698181971318,\Somewhat disagree\,\Somewhat disagree\,\2\,1698181970678,1698181970678,4505,4505,5145,buq,qns-item-noham,92,562796,0.0-1.0-0.91
<b>People?s brains turn off when they talk about politics.,Highly disagree,93/150,Highly disagree,1,1698181971324,1698181974746,\Highly disagree\,\Highly disagree\,\1\,1698181974125,1698181974125,2801,2801,3422,buq,qns-item-noham,93,566225,0.0-1.0-0.92
<b>People who are wrong are usually just ignoring the obvious.,Highly disagree,94/150,Highly disagree,1,1698181974755,1698181980623,\Highly disagree\,\Highly disagree\,\1\,1698181979947,1698181979947,5192,5192,5868,buq,qns-item-noham,94,572101,0.0-1.0-0.93
"<b>The world isn?t that complicated, but it?s still hard to figure out how it works.",Highly disagree,95/150,Somewhat agree,3,1698181980634,1698181986650,\Somewhat agree\,\Somewhat agree\,\3\,1698181985423,1698181985423,4789,4789,6016,buq,qns-item-noham,95,578128,0.0-1.0-0.94
"<b>When forming my views on people, I rely more on what they are like now rather than rely on my past experience with them.",Highly disagree,96/150,Highly agree,4,1698181986655,1698181992775,\Highly agree\,\Highly agree\,\4\,1698181991775,1698181991775,5120,5120,6120,buq,qns-item-noham,96,584253,0.0-1.0-0.95
"<b>When people contradict my beliefs, I usually know about their evidence already.",Highly disagree,97/150,Highly disagree,1,1698181992781,1698182004373,\Highly disagree\,\Highly disagree\,\1\,1698182003306,1698182003306,10525,10525,11592,buq,qns-item-noham,97,595851,0.0-1.0-0.96
<b>Being wrong is a matter of degree.,Highly disagree,98/150,Somewhat agree,3,1698182004378,1698182008076,\Somewhat agree\,\Somewhat agree\,\3\,1698182007388,1698182007388,3010,3010,3698,buq,qns-item-noham,98,599554,0.0-1.0-0.97
<b>Figuring out what?s true and what?s false mainly requires a strong moral compass.,Highly disagree,99/150,Somewhat agree,3,1698182008082,1698182014629,\Somewhat agree\,\Somewhat agree\,\3\,1698182013950,1698182013950,5868,5868,6547,buq,qns-item-noham,99,606107,0.0-1.0-0.98
<b>Most of the beliefs people have are at least somewhat understandable.,Highly disagree,100/150,Somewhat agree,3,1698182014639,1698182020325,\Somewhat agree\,\Somewhat agree\,\3\,1698182019160,1698182019160,4521,4521,5686,buq,qns-item-noham,100,611803,0.0-1.0-0.99
"<b>Usually I?m wrong about simple things, not complicated ones.",Highly disagree,101/150,Highly disagree,1,1698182020331,1698182023496,\Highly disagree\,\Highly disagree\,\1\,1698182022761,1698182022761,2430,2430,3165,buq,qns-item-noham,101,614974,0.0-1.0-0.100
<b>Getting all the information I want about important things is hard.,Highly disagree,102/150,Highly agree,4,1698182023507,1698182027592,\Highly agree\,\Highly agree\,\4\,1698182026807,1698182026807,3300,3300,4085,buq,qns-item-noham,102,619070,0.0-1.0-0.101
<b>Most false beliefs spread because people try to deceive one another.,Highly disagree,103/150,Somewhat agree,3,1698182027612,1698182033792,\Somewhat agree\,\Somewhat agree\,\3\,1698182032958,1698182032958,5346,5346,6180,buq,qns-item-noham,103,625270,0.0-1.0-0.102
<b>I can usually find something to agree with in most people?s beliefs.,Highly disagree,104/150,Highly disagree,1,1698182033796,1698182037689,\Highly disagree\,\Highly disagree\,\1\,1698182037075,1698182037075,3279,3279,3893,buq,qns-item-noham,104,629167,0.0-1.0-0.103
<b>I only form my views of people once I get to know them very well.,Highly disagree,105/150,Somewhat agree,3,1698182037696,1698182041560,\Somewhat agree\,\Somewhat agree\,\3\,1698182040929,1698182040929,3233,3233,3864,buq,qns-item-noham,105,633039,0.0-1.0-0.104
"<b>When people tell me important things about the world, I usually believe them.",Highly disagree,106/150,Somewhat disagree,2,1698182041570,1698182046237,\Somewhat disagree\,\Somewhat disagree\,\2\,1698182045590,1698182045590,4020,4020,4667,buq,qns-item-noham,106,637715,0.0-1.0-0.105
"<b>If a friend does something that upsets me, it reminds me what an unpredictable place the world is.",Highly disagree,107/150,Highly agree,4,1698182046249,1698182050686,\Highly agree\,\Highly agree\,\4\,1698182050042,1698182050042,3793,3793,4437,buq,qns-item-noham,107,642164,0.0-1.0-0.106
<b>Having some conflicting beliefs is inevitable.,Highly disagree,108/150,Highly agree,4,1698182050695,1698182055274,\Highly agree\,\Highly agree\,\4\,1698182054467,1698182054467,3772,3772,4579,buq,qns-item-noham,108,646752,0.0-1.0-0.107
<b>People are wrong because they haven?t thought much about things.,Highly disagree,109/150,Somewhat disagree,2,1698182055288,1698182059141,\Somewhat disagree\,\Somewhat disagree\,\2\,1698182058584,1698182058584,3296,3296,3853,buq,qns-item-noham,109,650619,0.0-1.0-0.108
<b>People tend to believe whatever is good for their friends.,Highly disagree,110/150,Somewhat agree,3,1698182059151,1698182062626,\Somewhat agree\,\Somewhat agree\,\3\,1698182061900,1698182061900,2749,2749,3475,buq,qns-item-noham,110,654104,0.0-1.0-0.109
"<b>When I talk about important topics, I try to make sure people know I?m not always right.",Highly disagree,111/150,Somewhat disagree,2,1698182062631,1698182068128,\Somewhat disagree\,\Somewhat disagree\,\2\,1698182067523,1698182067523,4892,4892,5497,buq,qns-item-noham,111,659606,0.0-1.0-0.110
<b>I used to be more certain my beliefs were true.,Highly disagree,112/150,Somewhat disagree,2,1698182068135,1698182072094,\Somewhat disagree\,\Somewhat disagree\,\2\,1698182071535,1698182071535,3400,3400,3959,buq,qns-item-noham,112,663572,0.0-1.0-0.111
<b>It?s often pretty easy to figure out whether something is true based on who said it.,Highly disagree,113/150,Highly agree,4,1698182072103,1698182079139,\Highly agree\,\Highly agree\,\4\,1698182078133,1698182078133,6030,6030,7036,buq,qns-item-noham,113,670617,0.0-1.0-0.112
<b>Having bad food in my favorite restaurant will make me think the restaurant is no longer good.,Highly disagree,114/150,Highly disagree,1,1698182079145,1698182086612,\Highly disagree\,\Highly disagree\,\1\,1698182084981,1698182084981,5836,5836,7467,buq,qns-item-noham,114,678090,0.0-1.0-0.113
<b>I transform into a hummingbird every day.,Highly disagree,115/150,Highly disagree,1,1698182086620,1698182092289,\Highly disagree\,\Highly disagree\,\1\,1698182091256,1698182091256,4636,4636,5669,buq,qns-item-noham,115,683767,0.0-1.0-0.114
"<b>Unfortunately, when people are wrong, it?s usually because they?re bad.",Highly disagree,116/150,Highly disagree,1,1698182092294,1698182096722,\Highly disagree\,\Highly disagree\,\1\,1698182095972,1698182095972,3678,3678,4428,buq,qns-item-noham,116,688200,0.0-1.0-0.115
<b>I think a lot about arguments against my views.,Highly disagree,117/150,Highly disagree,1,1698182096729,1698182100874,\Highly disagree\,\Highly disagree\,\1\,1698182100341,1698182100341,3612,3612,4145,buq,qns-item-noham,117,692352,0.0-1.0-0.116
<b>Details tend to matter a lot for knowing whether a policy is good.,Highly disagree,118/150,Highly agree,4,1698182100879,1698182109236,\Highly agree\,\Highly agree\,\4\,1698182108442,1698182108442,7563,7563,8357,buq,qns-item-noham,118,700714,0.0-1.0-0.117
<b>Personal experience is usually more important than facts and figures.,Highly disagree,119/150,Somewhat agree,3,1698182109241,1698182114336,\Somewhat agree\,\Somewhat agree\,\3\,1698182113626,1698182113626,4385,4385,5095,buq,qns-item-noham,119,705814,0.0-1.0-0.118
<b>I?ve been tricked before about important matters.,Highly disagree,120/150,Somewhat agree,3,1698182114344,1698182117926,\Somewhat agree\,\Somewhat agree\,\3\,1698182117301,1698182117301,2957,2957,3582,buq,qns-item-noham,120,709404,0.0-1.0-0.119
<b>I would need to be totally wowed if I were to change my opinion of a restaurant I don?t like.,Highly disagree,121/150,Highly agree,4,1698182117937,1698182123718,\Highly agree\,\Highly agree\,\4\,1698182122981,1698182122981,5044,5044,5781,buq,qns-item-noham,121,715196,0.0-1.0-0.120
<b>I care a lot about politics.,Highly disagree,122/150,Somewhat agree,3,1698182123724,1698182127103,\Somewhat agree\,\Somewhat agree\,\3\,1698182126469,1698182126469,2745,2745,3379,buq,qns-item-noham,122,718581,0.0-1.0-0.121
<b>People with conflicting beliefs usually have some facts they disagree on.,Highly disagree,123/150,Somewhat agree,3,1698182127110,1698182132832,\Somewhat agree\,\Somewhat agree\,\3\,1698182131648,1698182131648,4538,4538,5722,buq,qns-item-noham,123,724310,0.0-1.0-0.122
<b>There are some topics I?ve been really wrong about.,Highly disagree,124/150,Highly agree,4,1698182132838,1698182138560,\Highly agree\,\Highly agree\,\4\,1698182136866,1698182136866,4028,4028,5722,buq,qns-item-noham,124,730038,0.0-1.0-0.123
<b>Most beliefs can be supported with at least some evidence.,Highly disagree,125/150,Somewhat disagree,2,1698182138565,1698182144564,\Somewhat agree\,\Somewhat disagree\,\3\,1698182142472,1698182143882,3907,5317,5999,buq,qns-item-noham,125,736042,0.0-1.0-0.124
<b>Other people make life out to be more complicated than it really is.,Highly disagree,126/150,Somewhat disagree,2,1698182144570,1698182149786,\Somewhat disagree\,\Somewhat disagree\,\2\,1698182149194,1698182149194,4624,4624,5216,buq,qns-item-noham,126,741264,0.0-1.0-0.125
"<b>My political views are being shaped continuously as I gather more information, rather than relying on what I?ve known to be true of my party in the past. ",Highly disagree,127/150,Highly agree,4,1698182149804,1698182157301,\Highly agree\,\Highly agree\,\4\,1698182154437,1698182154437,4633,4633,7497,buq,qns-item-noham,127,748780,0.0-1.0-0.126
<b>It?s pretty unusual for true things to seem false.,Highly disagree,128/150,Somewhat disagree,2,1698182157309,1698182162862,\Somewhat disagree\,\Somewhat disagree\,\2\,1698182162205,1698182162205,4896,4896,5553,buq,qns-item-noham,128,754340,0.0-1.0-0.127
"<b>Policy details don?t matter much, just the big picture.",Highly disagree,129/150,Highly disagree,1,1698182162867,1698182166150,\Highly disagree\,\Highly disagree\,\1\,1698182165487,1698182165487,2620,2620,3283,buq,qns-item-noham,129,757628,0.0-1.0-0.128
<b>I know my friends so well they can hardly ever surprise me.,Highly disagree,130/150,Highly disagree,1,1698182166155,1698182170480,\Highly disagree\,\Highly disagree\,\1\,1698182169490,1698182169490,3335,3335,4325,buq,qns-item-noham,130,761958,0.0-1.0-0.129
"<b>When I talk to people, I often think about why they have the beliefs they do.",Highly disagree,131/150,Somewhat agree,3,1698182170485,1698182176195,\Somewhat agree\,\Somewhat agree\,\3\,1698182175513,1698182175513,5028,5028,5710,buq,qns-item-noham,131,767673,0.0-1.0-0.130
<b>I do not often change my views on people.,Highly disagree,132/150,Highly agree,4,1698182176203,1698182181252,\Highly agree\,\Highly agree\,\4\,1698182180268,1698182180268,4065,4065,5049,buq,qns-item-noham,132,772730,0.0-1.0-0.131
<b>I often wish I had more time to spend figuring out what?s true and what?s false in life.,Highly disagree,133/150,Somewhat disagree,2,1698182181259,1698182185976,\Somewhat disagree\,\Somewhat disagree\,\2\,1698182185231,1698182185231,3972,3972,4717,buq,qns-item-noham,133,777455,0.0-1.0-0.132
<b>I?m more certain about my beliefs than I used to be.,Highly disagree,134/150,Somewhat agree,3,1698182185983,1698182195352,\Somewhat agree\,\Somewhat agree\,\3\,1698182194713,1698182194713,8730,8730,9369,buq,qns-item-noham,134,786830,0.0-1.0-0.133
"<b>Whenever I find out new information, I update my views on politics accordingly.",Highly disagree,135/150,Somewhat agree,3,1698182195361,1698182202998,\Somewhat agree\,\Somewhat agree\,\3\,1698182202358,1698182202358,6997,6997,7637,buq,qns-item-noham,135,794477,0.0-1.0-0.134
<b>People often tell falsehoods unintentionally.,Highly disagree,136/150,Somewhat agree,3,1698182203004,1698182208800,\Somewhat agree\,\Somewhat agree\,\3\,1698182208058,1698182208058,5054,5054,5796,buq,qns-item-noham,136,800278,0.0-1.0-0.135
<b>Most people don?t know much about most things.,Highly disagree,137/150,Highly agree,4,1698182208808,1698182213468,\Highly agree\,\Highly agree\,\4\,1698182212701,1698182212701,3893,3893,4660,buq,qns-item-noham,137,804946,0.0-1.0-0.136
"<b>If I find out something new about someone, I easily change my views about them.",Highly disagree,138/150,Somewhat agree,3,1698182213478,1698182218165,\Somewhat agree\,\Somewhat agree\,\3\,1698182217587,1698182217587,4109,4109,4687,buq,qns-item-noham,138,809643,0.0-1.0-0.137
<b>Having true beliefs is difficult.,Highly disagree,139/150,Highly agree,4,1698182218171,1698182225617,\Highly agree\,\Highly agree\,\4\,1698182224928,1698182224928,6757,6757,7446,buq,qns-item-noham,139,817095,0.0-1.0-0.138
<b>I don?t try new foods since I know I won?t like them.,Highly disagree,140/150,Highly disagree,1,1698182225636,1698182231696,\Highly disagree\,\Highly disagree\,\1\,1698182230680,1698182230680,5044,5044,6060,buq,qns-item-noham,140,823174,0.0-1.0-0.139
<b>It?s easy to figure out what?s true or false based on who?s saying it.,Highly disagree,141/150,Somewhat agree,3,1698182231703,1698182237560,\Somewhat agree\,\Somewhat agree\,\3\,1698182236921,1698182236921,5218,5218,5857,buq,qns-item-noham,141,829038,0.0-1.0-0.140
<b>False things have seemed true to me many times.,Highly disagree,142/150,Somewhat agree,3,1698182237576,1698182242029,\Somewhat agree\,\Somewhat agree\,\3\,1698182241377,1698182241377,3801,3801,4453,buq,qns-item-noham,142,833507,0.0-1.0-0.141
<b>It?s pretty easy to sort out what?s true and what?s false in life.,Highly disagree,143/150,Somewhat disagree,2,1698182242035,1698182246625,\Somewhat disagree\,\Somewhat disagree\,\2\,1698182245956,1698182245956,3921,3921,4590,buq,qns-item-noham,143,838103,0.0-1.0-0.142
<b>Knowing lots of statistics about something is usually important for understanding it.,Highly disagree,144/150,Somewhat disagree,2,1698182246632,1698182250974,\Somewhat disagree\,\Somewhat disagree\,\2\,1698182250318,1698182250318,3686,3686,4342,buq,qns-item-noham,144,842452,0.0-1.0-0.143
<b>Other people trick each other a lot.,Highly disagree,145/150,Highly agree,4,1698182250982,1698182254549,\Highly agree\,\Highly agree\,\4\,1698182253758,1698182253758,2776,2776,3567,buq,qns-item-noham,145,846027,0.0-1.0-0.144
<b>I would need to learn a lot about a person for my opinion of them to be swayed.,Highly disagree,146/150,Somewhat agree,3,1698182254557,1698182259176,\Somewhat agree\,\Somewhat agree\,\3\,1698182258548,1698182258548,3991,3991,4619,buq,qns-item-noham,146,850654,0.0-1.0-0.145
<b>People can?t usually trick me when it comes to topics I care about.,Highly disagree,147/150,Somewhat agree,3,1698182259182,1698182263113,\Somewhat agree\,\Somewhat agree\,\3\,1698182262367,1698182262367,3185,3185,3931,buq,qns-item-noham,147,854591,0.0-1.0-0.146
<b>I do not often change my views on food.,Highly disagree,148/150,Somewhat agree,3,1698182263118,1698182267131,\Somewhat agree\,\Somewhat agree\,\3\,1698182266139,1698182266139,3021,3021,4013,buq,qns-item-noham,148,858609,0.0-1.0-0.147
<b>Specific policies are often very important to me.,Highly disagree,149/150,Somewhat agree,3,1698182267139,1698182273127,\Somewhat agree\,\Somewhat agree\,\3\,1698182272068,1698182272068,4929,4929,5988,buq,qns-item-noham,149,864605,0.0-1.0-0.148
<b>Most people are woefully under-informed.,Highly disagree,150/150,Highly agree,4,1698182273131,1698182277259,\Highly agree\,\Highly agree\,\4\,1698182276485,1698182276485,3354,3354,4128,buq,qns-item-noham,150,868737,0.0-1.0-0.149
