Question,qns_options,quest_num,answer,answer_num,question_load_timestamp,next_btn_timestamp,text_selected,final_text_selected,option_num_selected,preview_timestamps,final_text_selected_time_stamp,rt_first_option_click,rt_final_option_click,rt_submit_click,questionnaire,trial_type,trial_index,time_elapsed,internal_node_id
<b>Considering other people?s perspectives can help us figure out what?s true or false.,Highly disagree,1/150,Highly agree,4,1698180846955,1698180852923,\Highly agree\,\Highly agree\,\4\,1698180851984,1698180851984,5029,5029,5968,buq,qns-item-noham,1,9860,0.0-1.0-0.0
<b>Knowing what?s true and knowing what to do about it are usually basically the same.,Highly disagree,2/150,Somewhat disagree,2,1698180852926,1698180858250,\Somewhat disagree\,\Somewhat disagree\,\2\,1698180857768,1698180857768,4842,4842,5324,buq,qns-item-noham,2,15187,0.0-1.0-0.1
<b>Most people just believe whatever is convenient for them.,Highly disagree,3/150,Somewhat agree,3,1698180858251,1698180861576,\Somewhat agree\,\Somewhat agree\,\3\,1698180860891,1698180860891,2640,2640,3325,buq,qns-item-noham,3,18513,0.0-1.0-0.2
<b>Even people who are wrong about most things can be right sometimes.,Highly disagree,4/150,Somewhat agree,3,1698180861577,1698180865254,\Somewhat agree\,\Somewhat agree\,\3\,1698180864820,1698180864820,3243,3243,3677,buq,qns-item-noham,4,22191,0.0-1.0-0.3
"<b>If the political party I support does something that upsets me, then the party may have changed, and I need to re-evaluate my support.",Highly disagree,5/150,Somewhat agree,3,1698180865255,1698181442277,\Somewhat agree\,\Somewhat agree\,\3\,1698181441505,1698181441505,576250,576250,577022,buq,qns-item-noham,5,599214,0.0-1.0-0.4
"<b>When people disagree, one side is usually completely right.",Highly disagree,6/150,Somewhat disagree,2,1698181442280,1698181445943,\Somewhat disagree\,\Somewhat disagree\,\2\,1698181445419,1698181445419,3139,3139,3663,buq,qns-item-noham,6,602880,0.0-1.0-0.5
<b>People have lots of false beliefs.,Highly disagree,7/150,Somewhat agree,3,1698181445946,1698181448625,\Somewhat agree\,\Somewhat agree\,\3\,1698181448268,1698181448268,2322,2322,2679,buq,qns-item-noham,7,605562,0.0-1.0-0.6
<b>Having some big beliefs helps me sort out minor ones.,Highly disagree,8/150,Somewhat agree,3,1698181448626,1698181453160,\Somewhat agree\,\Somewhat agree\,\3\,1698181452726,1698181452726,4100,4100,4534,buq,qns-item-noham,8,610097,0.0-1.0-0.7
<b>Political questions are usually pretty complicated.,Highly disagree,9/150,Highly agree,4,1698181453161,1698181455733,\Highly agree\,\Highly agree\,\4\,1698181455113,1698181455113,1952,1952,2572,buq,qns-item-noham,9,612670,0.0-1.0-0.8
<b>Figuring out what?s important in life requires learning a lot of facts.,Highly disagree,10/150,Highly agree,4,1698181455735,1698181459339,\Highly agree\,\Highly agree\,\4\,1698181458876,1698181458876,3141,3141,3604,buq,qns-item-noham,10,616276,0.0-1.0-0.9
<b>It is difficult for me to remember the last time I was surprised by politics.,Highly disagree,11/150,Highly disagree,1,1698181459340,1698181463490,\Highly disagree\,\Highly disagree\,\1\,1698181462955,1698181462955,3615,3615,4150,buq,qns-item-noham,11,620427,0.0-1.0-0.10
<b>People?s false beliefs are understandable.,Highly disagree,12/150,Somewhat agree,3,1698181463491,1698181465954,\Somewhat agree\,\Somewhat agree\,\3\,1698181465506,1698181465506,2015,2015,2463,buq,qns-item-noham,12,622891,0.0-1.0-0.11
<b>I spend a lot of time trying to be informed about politics.,Highly disagree,13/150,Somewhat agree,3,1698181465955,1698181468663,\Somewhat agree\,\Somewhat agree\,\3\,1698181468166,1698181468166,2211,2211,2708,buq,qns-item-noham,13,625600,0.0-1.0-0.12
<b>I think a lot about whether my beliefs are right.,Highly disagree,14/150,Somewhat agree,3,1698181468664,1698181472220,\Somewhat agree\,\Somewhat agree\,\3\,1698181471846,1698181471846,3182,3182,3556,buq,qns-item-noham,14,629157,0.0-1.0-0.13
<b>Statistics can be pretty misleading sometimes.,Highly disagree,15/150,Highly disagree,1,1698181472221,1698181475941,\Highly disagree\,\Highly disagree\,\1\,1698181474471,1698181474471,2250,2250,3720,buq,qns-item-noham,15,632878,0.0-1.0-0.14
<b>Figuring out what?s true and what?s false takes a lot of time and effort.,Highly disagree,16/150,Somewhat agree,3,1698181475942,1698181480894,\Somewhat agree\,\Somewhat agree\,\3\,1698181480397,1698181480397,4455,4455,4952,buq,qns-item-noham,16,637831,0.0-1.0-0.15
"<b>If a friend does something bad to me, it was likely an error on their part.",Highly disagree,17/150,Somewhat disagree,2,1698181480895,1698181484541,\Somewhat disagree\,\Somewhat disagree\,\2\,1698181483657,1698181483657,2762,2762,3646,buq,qns-item-noham,17,641478,0.0-1.0-0.16
<b>I have lots of beliefs that I?m only sort of sure about.,Highly disagree,18/150,Somewhat disagree,2,1698181484542,1698181489206,\Somewhat disagree\,\Somewhat disagree\,\2\,1698181487967,1698181487967,3425,3425,4664,buq,qns-item-noham,18,646143,0.0-1.0-0.17
"<b>If I go to my favorite restaurant and the food is surprisingly bad, it reminds me there are many disappointments in life.",Highly disagree,19/150,Somewhat agree,3,1698181489207,1698181492718,\Somewhat agree\,\Somewhat agree\,\3\,1698181492275,1698181492275,3068,3068,3511,buq,qns-item-noham,19,649655,0.0-1.0-0.18
<b>Sometimes my beliefs are inconvenient for me.,Highly disagree,20/150,Somewhat disagree,2,1698181492719,1698181496952,\Somewhat disagree\,\Somewhat disagree\,\2\,1698181496466,1698181496466,3747,3747,4233,buq,qns-item-noham,20,653889,0.0-1.0-0.19
<b>Paying attention to multiple news sources is important.,Highly disagree,21/150,Highly agree,4,1698181496953,1698181499549,\Highly agree\,\Highly agree\,\4\,1698181499125,1698181499125,2172,2172,2596,buq,qns-item-noham,21,656486,0.0-1.0-0.20
"<b>If you are paying attention, please select ?Somewhat agree?",Highly disagree,22/150,Somewhat agree,3,1698181499550,1698181504901,\Somewhat agree\,\Somewhat agree\,\3\,1698181504423,1698181504423,4873,4873,5351,buq,qns-item-noham,22,661838,0.0-1.0-0.21
"<b>When I talk to others, I often worry I?ll convince them of something I didn?t mean to.",Highly disagree,23/150,Highly disagree,1,1698181504902,1698181508351,\Highly disagree\,\Highly disagree\,\1\,1698181507846,1698181507846,2944,2944,3449,buq,qns-item-noham,23,665288,0.0-1.0-0.22
<b>I would need to learn something utterly shocking about my party in order to change my political views.,Highly disagree,24/150,Somewhat disagree,2,1698181508352,1698181512123,\Somewhat disagree\,\Somewhat disagree\,\2\,1698181511518,1698181511518,3166,3166,3771,buq,qns-item-noham,24,669061,0.0-1.0-0.23
"<b>When I have new experiences, I tend to think of them as unique.",Highly disagree,25/150,Somewhat disagree,2,1698181512125,1698181517356,\Somewhat disagree\,\Somewhat disagree\,\2\,1698181516850,1698181516850,4725,4725,5231,buq,qns-item-noham,25,674293,0.0-1.0-0.24
<b>Reading lots of things is important for understanding the world.,Highly disagree,26/150,Highly agree,4,1698181517357,1698181521630,\Highly agree\,\Highly agree\,\4\,1698181520978,1698181520978,3621,3621,4273,buq,qns-item-noham,26,678567,0.0-1.0-0.25
<b>The world is complicated.,Highly disagree,27/150,Highly agree,4,1698181521631,1698181523692,\Highly agree\,\Highly agree\,\4\,1698181523182,1698181523182,1551,1551,2061,buq,qns-item-noham,27,680629,0.0-1.0-0.26
<b>I change my mind about specific policies pretty frequently.,Highly disagree,28/150,Highly disagree,1,1698181523692,1698181537010,\Highly disagree\,\Highly disagree\,\1\,1698181535319,1698181535319,11627,11627,13318,buq,qns-item-noham,28,693947,0.0-1.0-0.27
"<b>If a politician in my political party supports something I disagree with, I give them the benefit of the doubt, as such issues often involve hidden complexities that aren?t obvious.   ",Highly disagree,29/150,Somewhat disagree,2,1698181537011,1698181542411,\Somewhat disagree\,\Somewhat disagree\,\2\,1698181541613,1698181541613,4602,4602,5400,buq,qns-item-noham,29,699348,0.0-1.0-0.28
<b>People?s bad politics are usually motivated by hatefulness.,Highly disagree,30/150,Somewhat disagree,2,1698181542412,1698181545548,\Somewhat disagree\,\Somewhat disagree\,\2\,1698181544985,1698181544985,2573,2573,3136,buq,qns-item-noham,30,702485,0.0-1.0-0.29
"<b>Most new experiences are just like old ones, but a little bit different.",Highly disagree,31/150,Somewhat disagree,2,1698181545549,1698181554786,\Somewhat disagree\,\Somewhat disagree\,\2\,1698181554224,1698181554224,8675,8675,9237,buq,qns-item-noham,31,711723,0.0-1.0-0.30
<b>I think a lot about how to reconcile my beliefs with one another.,Highly disagree,32/150,Somewhat agree,3,1698181554787,1698181559885,\Somewhat agree\,\Somewhat agree\,\3\,1698181559221,1698181559221,4434,4434,5098,buq,qns-item-noham,32,716822,0.0-1.0-0.31
<b>Personal experience rarely leads people astray.,Highly disagree,33/150,Somewhat agree,3,1698181559886,1698181563238,\Somewhat agree\,\Somewhat agree\,\3\,1698181562493,1698181562493,2607,2607,3352,buq,qns-item-noham,33,720175,0.0-1.0-0.32
<b>I might have false beliefs about important topics.,Highly disagree,34/150,Somewhat disagree,2,1698181563239,1698181566189,\Somewhat disagree\,\Somewhat disagree\,\2\,1698181565192,1698181565192,1953,1953,2950,buq,qns-item-noham,34,723126,0.0-1.0-0.33
"<b>If a good friend of mine does something unexpected that upsets me, I feel like I don?t know them anymore.",Highly disagree,35/150,Somewhat disagree,2,1698181566190,1698181569632,\Somewhat disagree\,\Somewhat disagree\,\2\,1698181569209,1698181569209,3019,3019,3442,buq,qns-item-noham,35,726569,0.0-1.0-0.34
<b>Other people?s beliefs are often incoherent.,Highly disagree,36/150,Somewhat disagree,2,1698181569633,1698181572192,\Somewhat disagree\,\Somewhat disagree\,\2\,1698181571648,1698181571648,2015,2015,2559,buq,qns-item-noham,36,729129,0.0-1.0-0.35
<b>It?s important to have friends who think about things differently than I do.,Highly disagree,37/150,Somewhat agree,3,1698181572193,1698181574928,\Somewhat agree\,\Somewhat agree\,\3\,1698181574394,1698181574394,2201,2201,2735,buq,qns-item-noham,37,731865,0.0-1.0-0.36
"<b>Every now and then, a new experience will unsettle beliefs I?ve had for a while.",Highly disagree,38/150,Somewhat agree,3,1698181574929,1698181578687,\Somewhat agree\,\Somewhat agree\,\3\,1698181578261,1698181578261,3332,3332,3758,buq,qns-item-noham,38,735624,0.0-1.0-0.37
<b>Some policies I agree with in principle are so bad I don?t support them. ,Highly disagree,39/150,Somewhat disagree,2,1698181578688,1698181583429,\Somewhat disagree\,\Somewhat disagree\,\2\,1698181582910,1698181582910,4222,4222,4741,buq,qns-item-noham,39,740366,0.0-1.0-0.38
<b>I?m pretty sure I?ve accidentally spread false information.,Highly disagree,40/150,Highly disagree,1,1698181583430,1698181585627,\Highly disagree\,\Highly disagree\,\1\,1698181585150,1698181585150,1720,1720,2197,buq,qns-item-noham,40,742564,0.0-1.0-0.39
"<b>If I go to my favorite restaurant and the food is unexpectedly bad, then they have changed owners.",Highly disagree,41/150,Somewhat disagree,2,1698181585628,1698181589385,\Somewhat disagree\,\Somewhat disagree\,\2\,1698181588735,1698181588735,3107,3107,3757,buq,qns-item-noham,41,746322,0.0-1.0-0.40
"<b>In politics, it?s important to trust your friends and family.",Highly disagree,42/150,Somewhat agree,3,1698181589386,1698181595834,\Somewhat agree\,\Somewhat agree\,\3\,1698181591973,1698181591973,2587,2587,6448,buq,qns-item-noham,42,752771,0.0-1.0-0.41
<b>It?s OK to have some conflicting beliefs.,Highly disagree,43/150,Somewhat agree,3,1698181595835,1698181598256,\Somewhat agree\,\Somewhat agree\,\3\,1698181597658,1698181597658,1823,1823,2421,buq,qns-item-noham,43,755193,0.0-1.0-0.42
<b>Sometimes the details of a matter seem to conflict with the big picture.,Highly disagree,44/150,Somewhat agree,3,1698181598257,1698181602545,\Somewhat agree\,\Somewhat agree\,\3\,1698181602113,1698181602113,3856,3856,4288,buq,qns-item-noham,44,759482,0.0-1.0-0.43
<b>Listening to people I disagree with makes my opinions better.,Highly disagree,45/150,Highly agree,4,1698181602546,1698181605166,\Highly agree\,\Highly agree\,\4\,1698181604485,1698181604485,1939,1939,2620,buq,qns-item-noham,45,762103,0.0-1.0-0.44
<b>Policies that sound bad are sometimes fine when you find out about their details.,Highly disagree,46/150,Somewhat agree,3,1698181605167,1698181611300,\Somewhat agree\,\Somewhat agree\,\3\,1698181610710,1698181610710,5543,5543,6133,buq,qns-item-noham,46,768237,0.0-1.0-0.45
"<b>The world is always changing, so my beliefs are sometimes out-dated.",Highly disagree,47/150,Highly disagree,1,1698181611301,1698181615748,\Highly disagree\,\Highly disagree\,\1\,1698181614736,1698181614736,3435,3435,4447,buq,qns-item-noham,47,772685,0.0-1.0-0.46
"<b>If I receive a bad meal at my favorite restaurant and the food is surprisingly bad, I do not think much of it, and assume the chef is just having an ?off? day.",Highly disagree,48/150,Somewhat agree,3,1698181615749,1698181622280,\Somewhat agree\,\Somewhat agree\,\3\,1698181621529,1698181621529,5780,5780,6531,buq,qns-item-noham,48,779217,0.0-1.0-0.47
"<b>False information is unavoidable, to some extent.",Highly disagree,49/150,Somewhat disagree,2,1698181622281,1698181626597,\Somewhat disagree\,\Somewhat disagree\,\2\,1698181625018,1698181625018,2737,2737,4316,buq,qns-item-noham,49,783534,0.0-1.0-0.48
<b>My moral compass sometimes makes it harder to determine what?s true.,Highly disagree,50/150,Highly disagree,1,1698181626598,1698181630389,\Highly disagree\,\Highly disagree\,\1\,1698181629695,1698181629695,3097,3097,3791,buq,qns-item-noham,50,787326,0.0-1.0-0.49
"<b>When you disagree with someone, it?s important to listen to them carefully.",Highly disagree,51/150,Highly agree,4,1698181630390,1698181633031,\Highly agree\,\Highly agree\,\4\,1698181632426,1698181632426,2036,2036,2641,buq,qns-item-noham,51,789968,0.0-1.0-0.50
<b>Evidence pointing in the wrong direction isn?t really evidence at all.,Highly disagree,52/150,Highly disagree,1,1698181633032,1698181637120,\Highly disagree\,\Highly disagree\,\1\,1698181636446,1698181636446,3414,3414,4088,buq,qns-item-noham,52,794057,0.0-1.0-0.51
"<b>If the political party I support messes up, it makes me think politics is rotten.",Highly disagree,53/150,Somewhat disagree,2,1698181637121,1698181658781,\Somewhat disagree\,\Somewhat disagree\,\2\,1698181658044,1698181658044,20923,20923,21660,buq,qns-item-noham,53,815718,0.0-1.0-0.52
<b>Lots of important topics can only really be understood by some groups of people.,Highly disagree,54/150,Somewhat disagree,2,1698181658782,1698181662392,\Somewhat disagree\,\Somewhat disagree\,\2\,1698181661862,1698181661862,3080,3080,3610,buq,qns-item-noham,54,819329,0.0-1.0-0.53
<b>Details almost always matter for being right about something.,Highly disagree,55/150,Somewhat agree,3,1698181662393,1698181665834,\Somewhat agree\,\Somewhat agree\,\3\,1698181665170,1698181665170,2777,2777,3441,buq,qns-item-noham,55,822771,0.0-1.0-0.54
"<b>The most important thing in politics is winning, not convincing people.",Highly disagree,56/150,Highly disagree,1,1698181665835,1698181669808,\Highly disagree\,\Highly disagree\,\1\,1698181669321,1698181669321,3486,3486,3973,buq,qns-item-noham,56,826745,0.0-1.0-0.55
<b>Having conflicting beliefs means you haven?t thought about them enough.,Highly disagree,57/150,Somewhat disagree,2,1698181669809,1698182050428,\Somewhat disagree\,\Somewhat disagree\,\2\,1698182049398,1698182049398,379589,379589,380619,buq,qns-item-noham,57,1207365,0.0-1.0-0.56
<b>Other people have sometimes convinced me to change my mind on important topics.,Highly disagree,58/150,Somewhat agree,3,1698182050429,1698182057110,\Highly agree\,\Somewhat agree\,\4\,1698182055509,1698182056574,5080,6145,6681,buq,qns-item-noham,58,1214047,0.0-1.0-0.57
<b>I do not often change my political opinions.,Highly disagree,59/150,Somewhat agree,3,1698182057111,1698182059479,\Somewhat agree\,\Somewhat agree\,\3\,1698182059078,1698182059078,1967,1967,2368,buq,qns-item-noham,59,1216416,0.0-1.0-0.58
<b>Thinking about how different things relate to one another is critical in life.,Highly disagree,60/150,Highly agree,4,1698182059480,1698182062376,\Highly agree\,\Highly agree\,\4\,1698182061725,1698182061725,2245,2245,2896,buq,qns-item-noham,60,1219313,0.0-1.0-0.59
<b>True beliefs can have unfortunate implications.,Highly disagree,61/150,Somewhat disagree,2,1698182062377,1698182067696,\Somewhat disagree\,\Somewhat disagree\,\2\,1698182066918,1698182066918,4541,4541,5319,buq,qns-item-noham,61,1224633,0.0-1.0-0.60
<b>It?s difficult to not have at least some conflicting beliefs.,Highly disagree,62/150,Somewhat disagree,2,1698182067697,1698182070244,\Somewhat disagree\,\Somewhat disagree\,\2\,1698182069811,1698182069811,2114,2114,2547,buq,qns-item-noham,62,1227181,0.0-1.0-0.61
"<b>When I learn new things, I think deeply about how my opinions should change.",Highly disagree,63/150,Highly agree,4,1698182070245,1698182073025,\Highly agree\,\Highly agree\,\4\,1698182072347,1698182072347,2102,2102,2780,buq,qns-item-noham,63,1229962,0.0-1.0-0.62
<b>I think a lot about how to interpret different sorts of evidence.,Highly disagree,64/150,Highly agree,4,1698182073026,1698182075820,\Highly agree\,\Highly agree\,\4\,1698182075320,1698182075320,2294,2294,2794,buq,qns-item-noham,64,1232757,0.0-1.0-0.63
<b>Politics is about thinking together and finding compromises.,Highly disagree,65/150,Highly agree,4,1698182075821,1698182081350,\Somewhat agree\,\Highly agree\,\3\,1698182078594,1698182080883,2773,5062,5529,buq,qns-item-noham,65,1238287,0.0-1.0-0.64
<b>Wishful thinking causes a lot of problems.,Highly disagree,66/150,Somewhat disagree,2,1698182081351,1698182083868,\Somewhat disagree\,\Somewhat disagree\,\2\,1698182083246,1698182083246,1895,1895,2517,buq,qns-item-noham,66,1240805,0.0-1.0-0.65
<b>I judge a food item only once I try it many times.,Highly disagree,67/150,Somewhat disagree,2,1698182083869,1698182088278,\Somewhat agree\,\Somewhat disagree\,\3\,1698182087001,1698182087639,3132,3770,4409,buq,qns-item-noham,67,1245215,0.0-1.0-0.66
"<b>When a person holds conflicting beliefs, they should really try to figure out what?s wrong.",Highly disagree,68/150,Somewhat agree,3,1698182088279,1698182092245,\Somewhat agree\,\Somewhat agree\,\3\,1698182091759,1698182091759,3480,3480,3966,buq,qns-item-noham,68,1249182,0.0-1.0-0.67
<b>Knowing what?s important in life is easy.,Highly disagree,69/150,Somewhat disagree,2,1698182092246,1698182094942,\Somewhat disagree\,\Somewhat disagree\,\2\,1698182094422,1698182094422,2176,2176,2696,buq,qns-item-noham,69,1251879,0.0-1.0-0.68
<b>Lots of smart people disagree about basic political questions.,Highly disagree,70/150,Highly agree,4,1698182094943,1698182097591,\Highly agree\,\Highly agree\,\4\,1698182097047,1698182097047,2104,2104,2648,buq,qns-item-noham,70,1254528,0.0-1.0-0.69
<b>I swim across the Atlantic Ocean to get to work every day.,Highly disagree,71/150,Highly disagree,1,1698182097592,1698182099840,\Highly disagree\,\Highly disagree\,\1\,1698182099262,1698182099262,1670,1670,2248,buq,qns-item-noham,71,1256777,0.0-1.0-0.70
"<b>Sometimes, you just have to ignore evidence that you know is wrong.",Highly disagree,72/150,Highly disagree,1,1698182099841,1698182105160,\Somewhat disagree\,\Highly disagree\,\2\,1698182103846,1698182104591,4005,4750,5319,buq,qns-item-noham,72,1262097,0.0-1.0-0.71
<b>I have had some false beliefs.,Highly disagree,73/150,Highly disagree,1,1698182105161,1698182108169,\Somewhat disagree\,\Highly disagree\,\2\,1698182106775,1698182107627,1614,2466,3008,buq,qns-item-noham,73,1265106,0.0-1.0-0.72
"<b>If one friend does something that upsets me, I sometimes start to distrust people in general.",Highly disagree,74/150,Somewhat disagree,2,1698182108170,1698182112089,\Somewhat disagree\,\Somewhat disagree\,\2\,1698182111535,1698182111535,3365,3365,3919,buq,qns-item-noham,74,1269026,0.0-1.0-0.73
<b>I easily apply what I learn in one situation to another.,Highly disagree,75/150,Highly agree,4,1698182112090,1698182115162,\Highly agree\,\Highly agree\,\4\,1698182114670,1698182114670,2580,2580,3072,buq,qns-item-noham,75,1272099,0.0-1.0-0.74
<b>The facts about most important matters are easy to find.,Highly disagree,76/150,Somewhat disagree,2,1698182115163,1698182119662,\Somewhat agree\,\Somewhat disagree\,\3\,1698182117756,1698182118287,2593,3124,4499,buq,qns-item-noham,76,1276599,0.0-1.0-0.75
<b>It?s better to know what?s true than to know what?s moral.,Highly disagree,77/150,Somewhat agree,3,1698182119663,1698182125144,\Somewhat agree\,\Somewhat agree\,\3\,1698182124505,1698182124505,4842,4842,5481,buq,qns-item-noham,77,1282081,0.0-1.0-0.76
<b>It?s good to be skeptical of people you agree with.,Highly disagree,78/150,Highly agree,4,1698182125145,1698182128766,\Somewhat agree\,\Highly agree\,\3\,1698182127584,1698182128162,2439,3017,3621,buq,qns-item-noham,78,1285703,0.0-1.0-0.77
<b>Sometimes reasonable beliefs are wrong.,Highly disagree,79/150,Somewhat agree,3,1698182128767,1698182132824,\Somewhat agree\,\Somewhat agree\,\3\,1698182131915,1698182131915,3148,3148,4057,buq,qns-item-noham,79,1289761,0.0-1.0-0.78
<b>I used to think the world was less complicated than I do now.,Highly disagree,80/150,Highly agree,4,1698182132825,1698182136190,\Highly agree\,\Highly agree\,\4\,1698182135404,1698182135404,2579,2579,3365,buq,qns-item-noham,80,1293127,0.0-1.0-0.79
<b>People are usually completely right or completely wrong.,Highly disagree,81/150,Highly disagree,1,1698182136191,1698182139550,\Somewhat disagree\,\Highly disagree\,\2\,1698182138359,1698182139091,2168,2900,3359,buq,qns-item-noham,81,1296487,0.0-1.0-0.80
<b>I spend a lot of time considering alternatives to my beliefs.,Highly disagree,82/150,Highly disagree,1,1698182139551,1698182143367,\Highly disagree\,\Highly disagree\,\1\,1698182142722,1698182142722,3171,3171,3816,buq,qns-item-noham,82,1300304,0.0-1.0-0.81
"<b>Political enemies need to be defeated, not convinced.",Highly disagree,83/150,Highly disagree,1,1698182143368,1698182146790,\Highly disagree\,\Highly disagree\,\1\,1698182145686,1698182145686,2318,2318,3422,buq,qns-item-noham,83,1303727,0.0-1.0-0.82
"<b>When forming an opinion about a restaurant, I am more swayed by my  latest meal there than  previous meals I?ve had there.",Highly disagree,84/150,Somewhat disagree,2,1698182146791,1698182153242,\Somewhat disagree\,\Somewhat disagree\,\2\,1698182152694,1698182152694,5903,5903,6451,buq,qns-item-noham,84,1310179,0.0-1.0-0.83
<b>I try to remain skeptical about most topics.,Highly disagree,85/150,Highly agree,4,1698182153242,1698182156615,\Somewhat agree\,\Highly agree\,\3\,1698182155044,1698182155986,1802,2744,3373,buq,qns-item-noham,85,1313552,0.0-1.0-0.84
<b>Being wrong is usually obvious in retrospect.,Highly disagree,86/150,Highly disagree,1,1698182156616,1698182159559,\Highly disagree\,\Highly disagree\,\1\,1698182158960,1698182158960,2344,2344,2943,buq,qns-item-noham,86,1316496,0.0-1.0-0.85
<b>It can be hard to realize that my beliefs are in conflict.,Highly disagree,87/150,Somewhat agree,3,1698182159560,1698182162302,\Somewhat agree\,\Somewhat agree\,\3\,1698182161807,1698182161807,2247,2247,2742,buq,qns-item-noham,87,1319239,0.0-1.0-0.86
<b>I form my political views only after meticulously gathering historical and present information about their policies.,Highly disagree,88/150,Highly agree,4,1698182162303,1698182165182,\Highly agree\,\Highly agree\,\4\,1698182164543,1698182164543,2240,2240,2879,buq,qns-item-noham,88,1322119,0.0-1.0-0.87
<b>Skeptical people are usually just bad-tempered.,Highly disagree,89/150,Highly disagree,1,1698182165183,1698182167691,\Highly disagree\,\Highly disagree\,\1\,1698182167164,1698182167164,1981,1981,2508,buq,qns-item-noham,89,1324628,0.0-1.0-0.88
<b>It is difficult for me to remember the last time I was surprised by politics.,Highly disagree,90/150,Highly disagree,1,1698182167692,1698182171401,\Somewhat disagree\,\Highly disagree\,\2\,1698182170383,1698182170878,2691,3186,3709,buq,qns-item-noham,90,1328338,0.0-1.0-0.89
"<b>When I find out I?m wrong, I think a lot about my related beliefs.",Highly disagree,91/150,Somewhat agree,3,1698182171402,1698182174099,\Somewhat agree\,\Somewhat agree\,\3\,1698182173621,1698182173621,2219,2219,2697,buq,qns-item-noham,91,1331036,0.0-1.0-0.90
"<b>If the political party I support messes up, it makes me think you can?t trust anyone these days",Highly disagree,92/150,Somewhat disagree,2,1698182174100,1698182177473,\Somewhat disagree\,\Somewhat disagree\,\2\,1698182177040,1698182177040,2940,2940,3373,buq,qns-item-noham,92,1334410,0.0-1.0-0.91
<b>People?s brains turn off when they talk about politics.,Highly disagree,93/150,Highly disagree,1,1698182177474,1698182180718,\Highly disagree\,\Highly disagree\,\1\,1698182180244,1698182180244,2770,2770,3244,buq,qns-item-noham,93,1337655,0.0-1.0-0.92
<b>People who are wrong are usually just ignoring the obvious.,Highly disagree,94/150,Highly disagree,1,1698182180719,1698182186448,\Highly disagree\,\Highly disagree\,\1\,1698182185794,1698182185794,5075,5075,5729,buq,qns-item-noham,94,1343385,0.0-1.0-0.93
"<b>The world isn?t that complicated, but it?s still hard to figure out how it works.",Highly disagree,95/150,Somewhat disagree,2,1698182186449,1698182192392,\Somewhat disagree\,\Somewhat disagree\,\2\,1698182189588,1698182189588,3139,3139,5943,buq,qns-item-noham,95,1349329,0.0-1.0-0.94
"<b>When forming my views on people, I rely more on what they are like now rather than rely on my past experience with them.",Highly disagree,96/150,Somewhat disagree,2,1698182192393,1698182197198,\Somewhat disagree\,\Somewhat disagree\,\2\,1698182196102,1698182196102,3709,3709,4805,buq,qns-item-noham,96,1354135,0.0-1.0-0.95
"<b>When people contradict my beliefs, I usually know about their evidence already.",Highly disagree,97/150,Somewhat disagree,2,1698182197199,1698182201169,\Somewhat disagree\,\Somewhat disagree\,\2\,1698182200643,1698182200643,3444,3444,3970,buq,qns-item-noham,97,1358106,0.0-1.0-0.96
<b>Being wrong is a matter of degree.,Highly disagree,98/150,Somewhat disagree,2,1698182201170,1698182204136,\Somewhat disagree\,\Somewhat disagree\,\2\,1698182203393,1698182203393,2223,2223,2966,buq,qns-item-noham,98,1361073,0.0-1.0-0.97
<b>Figuring out what?s true and what?s false mainly requires a strong moral compass.,Highly disagree,99/150,Somewhat disagree,2,1698182204137,1698182213578,\Somewhat disagree\,\Somewhat disagree\,\2\,1698182213022,1698182213022,8885,8885,9441,buq,qns-item-noham,99,1370515,0.0-1.0-0.98
<b>Most of the beliefs people have are at least somewhat understandable.,Highly disagree,100/150,Somewhat agree,3,1698182213579,1698182217016,\Somewhat agree\,\Somewhat agree\,\3\,1698182216400,1698182216400,2821,2821,3437,buq,qns-item-noham,100,1373953,0.0-1.0-0.99
"<b>Usually I?m wrong about simple things, not complicated ones.",Highly disagree,101/150,Highly disagree,1,1698182217017,1698182224191,\Somewhat disagree\,\Highly disagree\,\2\,1698182221296,1698182223270,4279,6253,7174,buq,qns-item-noham,101,1381128,0.0-1.0-0.100
<b>Getting all the information I want about important things is hard.,Highly disagree,102/150,Highly agree,4,1698182224192,1698182226873,\Highly agree\,\Highly agree\,\4\,1698182226259,1698182226259,2067,2067,2681,buq,qns-item-noham,102,1383810,0.0-1.0-0.101
<b>Most false beliefs spread because people try to deceive one another.,Highly disagree,103/150,Somewhat disagree,2,1698182226874,1698182230125,\Somewhat disagree\,\Somewhat disagree\,\2\,1698182229572,1698182229572,2698,2698,3251,buq,qns-item-noham,103,1387062,0.0-1.0-0.102
<b>I can usually find something to agree with in most people?s beliefs.,Highly disagree,104/150,Somewhat agree,3,1698182230126,1698182232853,\Somewhat agree\,\Somewhat agree\,\3\,1698182232340,1698182232340,2214,2214,2727,buq,qns-item-noham,104,1389790,0.0-1.0-0.103
<b>I only form my views of people once I get to know them very well.,Highly disagree,105/150,Somewhat agree,3,1698182232854,1698182235393,\Somewhat agree\,\Somewhat agree\,\3\,1698182234921,1698182234921,2067,2067,2539,buq,qns-item-noham,105,1392330,0.0-1.0-0.104
"<b>When people tell me important things about the world, I usually believe them.",Highly disagree,106/150,Somewhat agree,3,1698182235394,1698182239527,\Somewhat agree\,\Somewhat agree\,\3\,1698182239058,1698182239058,3664,3664,4133,buq,qns-item-noham,106,1396464,0.0-1.0-0.105
"<b>If a friend does something that upsets me, it reminds me what an unpredictable place the world is.",Highly disagree,107/150,Somewhat agree,3,1698182239528,1698182243403,\Somewhat agree\,\Somewhat agree\,\3\,1698182242971,1698182242971,3443,3443,3875,buq,qns-item-noham,107,1400340,0.0-1.0-0.106
<b>Having some conflicting beliefs is inevitable.,Highly disagree,108/150,Somewhat disagree,2,1698182243404,1698182247410,\Somewhat disagree\,\Somewhat disagree\,\2\,1698182246792,1698182246792,3388,3388,4006,buq,qns-item-noham,108,1404347,0.0-1.0-0.107
<b>People are wrong because they haven?t thought much about things.,Highly disagree,109/150,Somewhat disagree,2,1698182247411,1698182250225,\Somewhat disagree\,\Somewhat disagree\,\2\,1698182249714,1698182249714,2303,2303,2814,buq,qns-item-noham,109,1407162,0.0-1.0-0.108
<b>People tend to believe whatever is good for their friends.,Highly disagree,110/150,Somewhat agree,3,1698182250226,1698182252963,\Somewhat agree\,\Somewhat agree\,\3\,1698182252411,1698182252411,2185,2185,2737,buq,qns-item-noham,110,1409900,0.0-1.0-0.109
"<b>When I talk about important topics, I try to make sure people know I?m not always right.",Highly disagree,111/150,Somewhat agree,3,1698182252964,1698182257281,\Somewhat agree\,\Somewhat agree\,\3\,1698182256794,1698182256794,3830,3830,4317,buq,qns-item-noham,111,1414218,0.0-1.0-0.110
<b>I used to be more certain my beliefs were true.,Highly disagree,112/150,Somewhat disagree,2,1698182257282,1698182259838,\Somewhat disagree\,\Somewhat disagree\,\2\,1698182259318,1698182259318,2036,2036,2556,buq,qns-item-noham,112,1416775,0.0-1.0-0.111
<b>It?s often pretty easy to figure out whether something is true based on who said it.,Highly disagree,113/150,Highly disagree,1,1698182259839,1698182264915,\Highly disagree\,\Highly disagree\,\1\,1698182264383,1698182264383,4544,4544,5076,buq,qns-item-noham,113,1421852,0.0-1.0-0.112
<b>Having bad food in my favorite restaurant will make me think the restaurant is no longer good.,Highly disagree,114/150,Somewhat disagree,2,1698182264916,1698182268750,\Somewhat disagree\,\Somewhat disagree\,\2\,1698182268141,1698182268141,3225,3225,3834,buq,qns-item-noham,114,1425687,0.0-1.0-0.113
<b>I transform into a hummingbird every day.,Highly disagree,115/150,Highly disagree,1,1698182268751,1698182270727,\Highly disagree\,\Highly disagree\,\1\,1698182270276,1698182270276,1525,1525,1976,buq,qns-item-noham,115,1427664,0.0-1.0-0.114
"<b>Unfortunately, when people are wrong, it?s usually because they?re bad.",Highly disagree,116/150,Highly disagree,1,1698182270728,1698182273478,\Highly disagree\,\Highly disagree\,\1\,1698182273045,1698182273045,2317,2317,2750,buq,qns-item-noham,116,1430415,0.0-1.0-0.115
<b>I think a lot about arguments against my views.,Highly disagree,117/150,Somewhat agree,3,1698182273479,1698182276697,\Somewhat agree\,\Somewhat agree\,\3\,1698182276100,1698182276100,2621,2621,3218,buq,qns-item-noham,117,1433634,0.0-1.0-0.116
<b>Details tend to matter a lot for knowing whether a policy is good.,Highly disagree,118/150,Highly agree,4,1698182276698,1698182280714,\Somewhat agree\,\Highly agree\,\3\,1698182279678,1698182280186,2980,3488,4016,buq,qns-item-noham,118,1437651,0.0-1.0-0.117
<b>Personal experience is usually more important than facts and figures.,Highly disagree,119/150,Highly disagree,1,1698182280715,1698182283970,\Highly disagree\,\Highly disagree\,\1\,1698182283304,1698182283304,2589,2589,3255,buq,qns-item-noham,119,1440907,0.0-1.0-0.118
<b>I?ve been tricked before about important matters.,Highly disagree,120/150,Highly disagree,1,1698182283971,1698182286236,\Highly disagree\,\Highly disagree\,\1\,1698182285533,1698182285533,1562,1562,2265,buq,qns-item-noham,120,1443173,0.0-1.0-0.119
<b>I would need to be totally wowed if I were to change my opinion of a restaurant I don?t like.,Highly disagree,121/150,Somewhat disagree,2,1698182286237,1698182290284,\Somewhat disagree\,\Somewhat disagree\,\2\,1698182289722,1698182289722,3485,3485,4047,buq,qns-item-noham,121,1447221,0.0-1.0-0.120
<b>I care a lot about politics.,Highly disagree,122/150,Highly agree,4,1698182290285,1698182291863,\Highly agree\,\Highly agree\,\4\,1698182291318,1698182291318,1033,1033,1578,buq,qns-item-noham,122,1448800,0.0-1.0-0.121
<b>People with conflicting beliefs usually have some facts they disagree on.,Highly disagree,123/150,Somewhat agree,3,1698182291865,1698182297783,\Somewhat agree\,\Somewhat agree\,\3\,1698182297231,1698182297231,5366,5366,5918,buq,qns-item-noham,123,1454720,0.0-1.0-0.122
<b>There are some topics I?ve been really wrong about.,Highly disagree,124/150,Highly disagree,1,1698182297784,1698182300922,\Highly disagree\,\Highly disagree\,\1\,1698182299886,1698182299886,2102,2102,3138,buq,qns-item-noham,124,1457859,0.0-1.0-0.123
<b>Most beliefs can be supported with at least some evidence.,Highly disagree,125/150,Somewhat agree,3,1698182300923,1698182306964,\Somewhat agree\,\Somewhat agree\,\3\,1698182306362,1698182306362,5439,5439,6041,buq,qns-item-noham,125,1463901,0.0-1.0-0.124
<b>Other people make life out to be more complicated than it really is.,Highly disagree,126/150,Somewhat disagree,2,1698182306965,1698182311032,\Somewhat disagree\,\Somewhat disagree\,\2\,1698182310593,1698182310593,3628,3628,4067,buq,qns-item-noham,126,1467969,0.0-1.0-0.125
"<b>My political views are being shaped continuously as I gather more information, rather than relying on what I?ve known to be true of my party in the past. ",Highly disagree,127/150,Somewhat agree,3,1698182311033,1698182315781,\Somewhat agree\,\Somewhat agree\,\3\,1698182315294,1698182315294,4261,4261,4748,buq,qns-item-noham,127,1472719,0.0-1.0-0.126
<b>It?s pretty unusual for true things to seem false.,Highly disagree,128/150,Somewhat disagree,2,1698182315782,1698182319668,\Somewhat disagree\,\Somewhat disagree\,\2\,1698182319185,1698182319185,3403,3403,3886,buq,qns-item-noham,128,1476605,0.0-1.0-0.127
"<b>Policy details don?t matter much, just the big picture.",Highly disagree,129/150,Highly disagree,1,1698182319669,1698182322674,\Highly disagree\,\Highly disagree\,\1\,1698182322256,1698182322256,2587,2587,3005,buq,qns-item-noham,129,1479611,0.0-1.0-0.128
<b>I know my friends so well they can hardly ever surprise me.,Highly disagree,130/150,Somewhat disagree,2,1698182322675,1698182325771,\Somewhat disagree\,\Somewhat disagree\,\2\,1698182325249,1698182325249,2574,2574,3096,buq,qns-item-noham,130,1482708,0.0-1.0-0.129
"<b>When I talk to people, I often think about why they have the beliefs they do.",Highly disagree,131/150,Somewhat disagree,2,1698182325772,1698182329783,\Somewhat disagree\,\Somewhat disagree\,\2\,1698182329315,1698182329315,3543,3543,4011,buq,qns-item-noham,131,1486721,0.0-1.0-0.130
<b>I do not often change my views on people.,Highly disagree,132/150,Somewhat agree,3,1698182329784,1698182332445,\Somewhat agree\,\Somewhat agree\,\3\,1698182331986,1698182331986,2202,2202,2661,buq,qns-item-noham,132,1489382,0.0-1.0-0.131
<b>I often wish I had more time to spend figuring out what?s true and what?s false in life.,Highly disagree,133/150,Somewhat agree,3,1698182332446,1698182352596,\Somewhat agree\,\Somewhat agree\,\3\,1698182351995,1698182351995,19549,19549,20150,buq,qns-item-noham,133,1509533,0.0-1.0-0.132
<b>I?m more certain about my beliefs than I used to be.,Highly disagree,134/150,Somewhat disagree,2,1698182352597,1698182355113,\Somewhat disagree\,\Somewhat disagree\,\2\,1698182354561,1698182354561,1964,1964,2516,buq,qns-item-noham,134,1512050,0.0-1.0-0.133
"<b>Whenever I find out new information, I update my views on politics accordingly.",Highly disagree,135/150,Somewhat agree,3,1698182355114,1698182358427,\Somewhat agree\,\Somewhat agree\,\3\,1698182357023,1698182357023,1909,1909,3313,buq,qns-item-noham,135,1515364,0.0-1.0-0.134
<b>People often tell falsehoods unintentionally.,Highly disagree,136/150,Somewhat agree,3,1698182358428,1698182364313,\Somewhat agree\,\Somewhat agree\,\3\,1698182363739,1698182363739,5311,5311,5885,buq,qns-item-noham,136,1521250,0.0-1.0-0.135
<b>Most people don?t know much about most things.,Highly disagree,137/150,Somewhat disagree,2,1698182364314,1698182367808,\Somewhat disagree\,\Somewhat disagree\,\2\,1698182367265,1698182367265,2951,2951,3494,buq,qns-item-noham,137,1524745,0.0-1.0-0.136
"<b>If I find out something new about someone, I easily change my views about them.",Highly disagree,138/150,Somewhat agree,3,1698182367809,1698182371951,\Somewhat disagree\,\Somewhat agree\,\2\,1698182370874,1698182371485,3065,3676,4142,buq,qns-item-noham,138,1528888,0.0-1.0-0.137
<b>Having true beliefs is difficult.,Highly disagree,139/150,Somewhat agree,3,1698182371952,1698182376996,\Somewhat agree\,\Somewhat agree\,\3\,1698182376505,1698182376505,4553,4553,5044,buq,qns-item-noham,139,1533933,0.0-1.0-0.138
<b>I don?t try new foods since I know I won?t like them.,Highly disagree,140/150,Somewhat disagree,2,1698182376997,1698182379963,\Somewhat disagree\,\Somewhat disagree\,\2\,1698182379284,1698182379284,2287,2287,2966,buq,qns-item-noham,140,1536900,0.0-1.0-0.139
<b>It?s easy to figure out what?s true or false based on who?s saying it.,Highly disagree,141/150,Highly disagree,1,1698182379964,1698182382905,\Highly disagree\,\Highly disagree\,\1\,1698182382398,1698182382398,2434,2434,2941,buq,qns-item-noham,141,1539842,0.0-1.0-0.140
<b>False things have seemed true to me many times.,Highly disagree,142/150,Somewhat disagree,2,1698182382906,1698182385929,\Somewhat disagree\,\Somewhat disagree\,\2\,1698182384658,1698182384658,1752,1752,3023,buq,qns-item-noham,142,1542866,0.0-1.0-0.141
<b>It?s pretty easy to sort out what?s true and what?s false in life.,Highly disagree,143/150,Somewhat disagree,2,1698182385931,1698182388383,\Somewhat disagree\,\Somewhat disagree\,\2\,1698182387928,1698182387928,1997,1997,2452,buq,qns-item-noham,143,1545320,0.0-1.0-0.142
<b>Knowing lots of statistics about something is usually important for understanding it.,Highly disagree,144/150,Somewhat agree,3,1698182388384,1698182391121,\Somewhat agree\,\Somewhat agree\,\3\,1698182390455,1698182390455,2071,2071,2737,buq,qns-item-noham,144,1548058,0.0-1.0-0.143
<b>Other people trick each other a lot.,Highly disagree,145/150,Somewhat disagree,2,1698182391122,1698182393775,\Somewhat disagree\,\Somewhat disagree\,\2\,1698182392857,1698182392857,1735,1735,2653,buq,qns-item-noham,145,1550712,0.0-1.0-0.144
<b>I would need to learn a lot about a person for my opinion of them to be swayed.,Highly disagree,146/150,Somewhat agree,3,1698182393776,1698182397751,\Somewhat agree\,\Somewhat agree\,\3\,1698182396703,1698182396703,2927,2927,3975,buq,qns-item-noham,146,1554689,0.0-1.0-0.145
<b>People can?t usually trick me when it comes to topics I care about.,Highly disagree,147/150,Somewhat agree,3,1698182397753,1698182402003,\Somewhat agree\,\Somewhat agree\,\3\,1698182401425,1698182401425,3672,3672,4250,buq,qns-item-noham,147,1558940,0.0-1.0-0.146
<b>I do not often change my views on food.,Highly disagree,148/150,Somewhat agree,3,1698182402003,1698182405343,\Somewhat agree\,\Somewhat agree\,\3\,1698182404823,1698182404823,2820,2820,3340,buq,qns-item-noham,148,1562280,0.0-1.0-0.147
<b>Specific policies are often very important to me.,Highly disagree,149/150,Highly agree,4,1698182405344,1698182409950,\Highly agree\,\Highly agree\,\4\,1698182409410,1698182409410,4066,4066,4606,buq,qns-item-noham,149,1566887,0.0-1.0-0.148
<b>Most people are woefully under-informed.,Highly disagree,150/150,Somewhat agree,3,1698182409951,1698182412681,\Somewhat agree\,\Somewhat agree\,\3\,1698182412265,1698182412265,2314,2314,2730,buq,qns-item-noham,150,1569618,0.0-1.0-0.149
