Question,qns_options,quest_num,answer,answer_num,question_load_timestamp,next_btn_timestamp,text_selected,final_text_selected,option_num_selected,preview_timestamps,final_text_selected_time_stamp,rt_first_option_click,rt_final_option_click,rt_submit_click,questionnaire,trial_type,trial_index,time_elapsed,internal_node_id
<b>Considering other people?s perspectives can help us figure out what?s true or false.,Highly disagree,1/150,Somewhat agree,3,1698240948216,1698240958149,\Somewhat agree\,\Somewhat agree\,\3\,1698240957385,1698240957385,9169,9169,9933,buq,qns-item-noham,1,16636,0.0-1.0-0.0
<b>Knowing what?s true and knowing what to do about it are usually basically the same.,Highly disagree,2/150,Somewhat agree,3,1698240958153,1698240964353,\Somewhat agree\,\Somewhat agree\,\3\,1698240963780,1698240963780,5627,5627,6200,buq,qns-item-noham,2,22840,0.0-1.0-0.1
<b>Most people just believe whatever is convenient for them.,Highly disagree,3/150,Somewhat agree,3,1698240964355,1698240968726,\Somewhat agree\,\Somewhat agree\,\3\,1698240968076,1698240968076,3721,3721,4371,buq,qns-item-noham,3,27213,0.0-1.0-0.2
<b>Even people who are wrong about most things can be right sometimes.,Highly disagree,4/150,Somewhat agree,3,1698240968727,1698240972687,\Somewhat agree\,\Somewhat agree\,\3\,1698240972194,1698240972194,3467,3467,3960,buq,qns-item-noham,4,31174,0.0-1.0-0.3
"<b>If the political party I support does something that upsets me, then the party may have changed, and I need to re-evaluate my support.",Highly disagree,5/150,Somewhat disagree,2,1698240972688,1698240980114,\Somewhat disagree\,\Somewhat disagree\,\2\,1698240979404,1698240979404,6716,6716,7426,buq,qns-item-noham,5,38602,0.0-1.0-0.4
"<b>When people disagree, one side is usually completely right.",Highly disagree,6/150,Somewhat agree,3,1698240980116,1698240985174,\Somewhat agree\,\Somewhat agree\,\3\,1698240984425,1698240984425,4309,4309,5058,buq,qns-item-noham,6,43661,0.0-1.0-0.5
<b>People have lots of false beliefs.,Highly disagree,7/150,Somewhat agree,3,1698240985176,1698240988845,\Somewhat agree\,\Somewhat agree\,\3\,1698240988126,1698240988126,2950,2950,3669,buq,qns-item-noham,7,47332,0.0-1.0-0.6
<b>Having some big beliefs helps me sort out minor ones.,Highly disagree,8/150,Somewhat disagree,2,1698240988846,1698240992624,\Somewhat disagree\,\Somewhat disagree\,\2\,1698240992098,1698240992098,3252,3252,3778,buq,qns-item-noham,8,51111,0.0-1.0-0.7
<b>Political questions are usually pretty complicated.,Highly disagree,9/150,Somewhat agree,3,1698240992625,1698240995529,\Somewhat agree\,\Somewhat agree\,\3\,1698240995081,1698240995081,2456,2456,2904,buq,qns-item-noham,9,54016,0.0-1.0-0.8
<b>Figuring out what?s important in life requires learning a lot of facts.,Highly disagree,10/150,Somewhat agree,3,1698240995530,1698240998982,\Somewhat agree\,\Somewhat agree\,\3\,1698240998478,1698240998478,2948,2948,3452,buq,qns-item-noham,10,57469,0.0-1.0-0.9
<b>It is difficult for me to remember the last time I was surprised by politics.,Highly disagree,11/150,Somewhat disagree,2,1698240998983,1698241004798,\Somewhat disagree\,\Somewhat disagree\,\2\,1698241004126,1698241004126,5143,5143,5815,buq,qns-item-noham,11,63285,0.0-1.0-0.10
<b>People?s false beliefs are understandable.,Highly disagree,12/150,Somewhat agree,3,1698241004799,1698241007906,\Somewhat agree\,\Somewhat agree\,\3\,1698241007418,1698241007418,2619,2619,3107,buq,qns-item-noham,12,66393,0.0-1.0-0.11
<b>I spend a lot of time trying to be informed about politics.,Highly disagree,13/150,Highly disagree,1,1698241007907,1698241010570,\Highly disagree\,\Highly disagree\,\1\,1698241009971,1698241009971,2064,2064,2663,buq,qns-item-noham,13,69057,0.0-1.0-0.12
<b>I think a lot about whether my beliefs are right.,Highly disagree,14/150,Somewhat disagree,2,1698241010572,1698241014206,\Somewhat disagree\,\Somewhat disagree\,\2\,1698241013654,1698241013654,3082,3082,3634,buq,qns-item-noham,14,72693,0.0-1.0-0.13
<b>Statistics can be pretty misleading sometimes.,Highly disagree,15/150,Somewhat disagree,2,1698241014207,1698241020344,\Somewhat agree\,\Somewhat disagree\,\3\,1698241016196,1698241019827,1989,5620,6137,buq,qns-item-noham,15,78831,0.0-1.0-0.14
<b>Figuring out what?s true and what?s false takes a lot of time and effort.,Highly disagree,16/150,Somewhat disagree,2,1698241020345,1698241024014,\Somewhat disagree\,\Somewhat disagree\,\2\,1698241023003,1698241023003,2658,2658,3669,buq,qns-item-noham,16,82502,0.0-1.0-0.15
"<b>If a friend does something bad to me, it was likely an error on their part.",Highly disagree,17/150,Somewhat agree,3,1698241024015,1698241031622,\Somewhat agree\,\Somewhat agree\,\3\,1698241027793,1698241027793,3778,3778,7607,buq,qns-item-noham,17,90109,0.0-1.0-0.16
<b>I have lots of beliefs that I?m only sort of sure about.,Highly disagree,18/150,Somewhat agree,3,1698241031623,1698241034566,\Somewhat agree\,\Somewhat agree\,\3\,1698241034027,1698241034027,2404,2404,2943,buq,qns-item-noham,18,93053,0.0-1.0-0.17
"<b>If I go to my favorite restaurant and the food is surprisingly bad, it reminds me there are many disappointments in life.",Highly disagree,19/150,Somewhat disagree,2,1698241034567,1698241039279,\Somewhat disagree\,\Somewhat disagree\,\2\,1698241038801,1698241038801,4234,4234,4712,buq,qns-item-noham,19,97766,0.0-1.0-0.18
<b>Sometimes my beliefs are inconvenient for me.,Highly disagree,20/150,Somewhat disagree,2,1698241039280,1698241041621,\Somewhat disagree\,\Somewhat disagree\,\2\,1698241041173,1698241041173,1893,1893,2341,buq,qns-item-noham,20,100108,0.0-1.0-0.19
<b>Paying attention to multiple news sources is important.,Highly disagree,21/150,Somewhat agree,3,1698241041622,1698241045004,\Somewhat agree\,\Somewhat agree\,\3\,1698241044479,1698241044479,2857,2857,3382,buq,qns-item-noham,21,103491,0.0-1.0-0.20
"<b>If you are paying attention, please select ?Somewhat agree?",Highly disagree,22/150,Somewhat agree,3,1698241045006,1698241048373,\Somewhat agree\,\Somewhat agree\,\3\,1698241047855,1698241047855,2849,2849,3367,buq,qns-item-noham,22,106860,0.0-1.0-0.21
"<b>When I talk to others, I often worry I?ll convince them of something I didn?t mean to.",Highly disagree,23/150,Somewhat disagree,2,1698241048374,1698241051840,\Somewhat disagree\,\Somewhat disagree\,\2\,1698241051231,1698241051231,2857,2857,3466,buq,qns-item-noham,23,110327,0.0-1.0-0.22
<b>I would need to learn something utterly shocking about my party in order to change my political views.,Highly disagree,24/150,Somewhat agree,3,1698241051842,1698241055565,\Somewhat agree\,\Somewhat agree\,\3\,1698241055041,1698241055041,3199,3199,3723,buq,qns-item-noham,24,114052,0.0-1.0-0.23
"<b>When I have new experiences, I tend to think of them as unique.",Highly disagree,25/150,Somewhat agree,3,1698241055566,1698241059466,\Somewhat agree\,\Somewhat agree\,\3\,1698241058803,1698241058803,3237,3237,3900,buq,qns-item-noham,25,117953,0.0-1.0-0.24
<b>Reading lots of things is important for understanding the world.,Highly disagree,26/150,Somewhat agree,3,1698241059467,1698241062696,\Somewhat agree\,\Somewhat agree\,\3\,1698241062132,1698241062132,2665,2665,3229,buq,qns-item-noham,26,121183,0.0-1.0-0.25
<b>The world is complicated.,Highly disagree,27/150,Highly agree,4,1698241062698,1698241064581,\Highly agree\,\Highly agree\,\4\,1698241064132,1698241064132,1434,1434,1883,buq,qns-item-noham,27,123068,0.0-1.0-0.26
<b>I change my mind about specific policies pretty frequently.,Highly disagree,28/150,Somewhat disagree,2,1698241064582,1698241067719,\Somewhat disagree\,\Somewhat disagree\,\2\,1698241067209,1698241067209,2627,2627,3137,buq,qns-item-noham,28,126206,0.0-1.0-0.27
"<b>If a politician in my political party supports something I disagree with, I give them the benefit of the doubt, as such issues often involve hidden complexities that aren?t obvious.   ",Highly disagree,29/150,Somewhat agree,3,1698241067720,1698241075008,\Somewhat agree\,\Somewhat agree\,\3\,1698241074320,1698241074320,6600,6600,7288,buq,qns-item-noham,29,133495,0.0-1.0-0.28
<b>People?s bad politics are usually motivated by hatefulness.,Highly disagree,30/150,Somewhat disagree,2,1698241075009,1698241081163,\Somewhat agree\,\Somewhat disagree\,\3\,1698241078749,1698241080531,3740,5522,6154,buq,qns-item-noham,30,139650,0.0-1.0-0.29
"<b>Most new experiences are just like old ones, but a little bit different.",Highly disagree,31/150,Somewhat disagree,2,1698241081164,1698241083745,\Somewhat disagree\,\Somewhat disagree\,\2\,1698241083119,1698241083119,1955,1955,2581,buq,qns-item-noham,31,142232,0.0-1.0-0.30
<b>I think a lot about how to reconcile my beliefs with one another.,Highly disagree,32/150,Somewhat disagree,2,1698241083747,1698241086178,\Somewhat disagree\,\Somewhat disagree\,\2\,1698241085691,1698241085691,1944,1944,2431,buq,qns-item-noham,32,144665,0.0-1.0-0.31
<b>Personal experience rarely leads people astray.,Highly disagree,33/150,Somewhat disagree,2,1698241086179,1698241090537,\Somewhat agree\,\Somewhat disagree\,\3\,1698241089151,1698241090047,2972,3868,4358,buq,qns-item-noham,33,149024,0.0-1.0-0.32
<b>I might have false beliefs about important topics.,Highly disagree,34/150,Somewhat disagree,2,1698241090538,1698241094933,\Somewhat disagree\,\Somewhat disagree\,\2\,1698241094405,1698241094405,3867,3867,4395,buq,qns-item-noham,34,153420,0.0-1.0-0.33
"<b>If a good friend of mine does something unexpected that upsets me, I feel like I don?t know them anymore.",Highly disagree,35/150,Somewhat disagree,2,1698241094934,1698241098972,\Somewhat disagree\,\Somewhat disagree\,\2\,1698241098501,1698241098501,3567,3567,4038,buq,qns-item-noham,35,157459,0.0-1.0-0.34
<b>Other people?s beliefs are often incoherent.,Highly disagree,36/150,Somewhat disagree,2,1698241098973,1698241102193,\Somewhat disagree\,\Somewhat disagree\,\2\,1698241101730,1698241101730,2757,2757,3220,buq,qns-item-noham,36,160680,0.0-1.0-0.35
<b>It?s important to have friends who think about things differently than I do.,Highly disagree,37/150,Somewhat agree,3,1698241102194,1698241105355,\Somewhat agree\,\Somewhat agree\,\3\,1698241104889,1698241104889,2695,2695,3161,buq,qns-item-noham,37,163842,0.0-1.0-0.36
"<b>Every now and then, a new experience will unsettle beliefs I?ve had for a while.",Highly disagree,38/150,Somewhat disagree,2,1698241105356,1698241108683,\Somewhat disagree\,\Somewhat disagree\,\2\,1698241108243,1698241108243,2887,2887,3327,buq,qns-item-noham,38,167170,0.0-1.0-0.37
<b>Some policies I agree with in principle are so bad I don?t support them. ,Highly disagree,39/150,Somewhat disagree,2,1698241108684,1698241113707,\Somewhat disagree\,\Somewhat disagree\,\2\,1698241113163,1698241113163,4479,4479,5023,buq,qns-item-noham,39,172194,0.0-1.0-0.38
<b>I?m pretty sure I?ve accidentally spread false information.,Highly disagree,40/150,Somewhat agree,3,1698241113708,1698241116355,\Somewhat agree\,\Somewhat agree\,\3\,1698241115907,1698241115907,2199,2199,2647,buq,qns-item-noham,40,174842,0.0-1.0-0.39
"<b>If I go to my favorite restaurant and the food is unexpectedly bad, then they have changed owners.",Highly disagree,41/150,Somewhat disagree,2,1698241116356,1698241122968,\Somewhat disagree\,\Somewhat disagree\,\2\,1698241120829,1698241122511,4473,6155,6612,buq,qns-item-noham,41,181455,0.0-1.0-0.40
"<b>In politics, it?s important to trust your friends and family.",Highly disagree,42/150,Somewhat agree,3,1698241122969,1698241127131,\Somewhat agree\,\Somewhat agree\,\3\,1698241126661,1698241126661,3692,3692,4162,buq,qns-item-noham,42,185618,0.0-1.0-0.41
<b>It?s OK to have some conflicting beliefs.,Highly disagree,43/150,Highly agree,4,1698241127133,1698241129692,\Highly agree\,\Highly agree\,\4\,1698241129171,1698241129171,2038,2038,2559,buq,qns-item-noham,43,188179,0.0-1.0-0.42
<b>Sometimes the details of a matter seem to conflict with the big picture.,Highly disagree,44/150,Somewhat disagree,2,1698241129693,1698241134239,\Somewhat disagree\,\Somewhat disagree\,\2\,1698241133783,1698241133783,4090,4090,4546,buq,qns-item-noham,44,192726,0.0-1.0-0.43
<b>Listening to people I disagree with makes my opinions better.,Highly disagree,45/150,Somewhat agree,3,1698241134240,1698241138225,\Somewhat agree\,\Somewhat agree\,\3\,1698241136735,1698241136735,2495,2495,3985,buq,qns-item-noham,45,196712,0.0-1.0-0.44
<b>Policies that sound bad are sometimes fine when you find out about their details.,Highly disagree,46/150,Somewhat agree,3,1698241138226,1698241141936,\Somewhat agree\,\Somewhat agree\,\3\,1698241141501,1698241141501,3275,3275,3710,buq,qns-item-noham,46,200423,0.0-1.0-0.45
"<b>The world is always changing, so my beliefs are sometimes out-dated.",Highly disagree,47/150,Highly agree,4,1698241141937,1698241146245,\Highly agree\,\Highly agree\,\4\,1698241145827,1698241145827,3890,3890,4308,buq,qns-item-noham,47,204732,0.0-1.0-0.46
"<b>If I receive a bad meal at my favorite restaurant and the food is surprisingly bad, I do not think much of it, and assume the chef is just having an ?off? day.",Highly disagree,48/150,Highly agree,4,1698241146246,1698241152093,\Highly agree\,\Highly agree\,\4\,1698241151399,1698241151399,5153,5153,5847,buq,qns-item-noham,48,210580,0.0-1.0-0.47
"<b>False information is unavoidable, to some extent.",Highly disagree,49/150,Somewhat agree,3,1698241152094,1698241155113,\Somewhat agree\,\Somewhat agree\,\3\,1698241154715,1698241154715,2621,2621,3019,buq,qns-item-noham,49,213600,0.0-1.0-0.48
<b>My moral compass sometimes makes it harder to determine what?s true.,Highly disagree,50/150,Somewhat disagree,2,1698241155114,1698241158535,\Somewhat disagree\,\Somewhat disagree\,\2\,1698241158065,1698241158065,2951,2951,3421,buq,qns-item-noham,50,217022,0.0-1.0-0.49
"<b>When you disagree with someone, it?s important to listen to them carefully.",Highly disagree,51/150,Highly agree,4,1698241158536,1698241161488,\Highly agree\,\Highly agree\,\4\,1698241160971,1698241160971,2435,2435,2952,buq,qns-item-noham,51,219975,0.0-1.0-0.50
<b>Evidence pointing in the wrong direction isn?t really evidence at all.,Highly disagree,52/150,Somewhat disagree,2,1698241161489,1698241165511,\Somewhat disagree\,\Somewhat disagree\,\2\,1698241165025,1698241165025,3536,3536,4022,buq,qns-item-noham,52,223998,0.0-1.0-0.51
"<b>If the political party I support messes up, it makes me think politics is rotten.",Highly disagree,53/150,Somewhat disagree,2,1698241165512,1698241169204,\Somewhat disagree\,\Somewhat disagree\,\2\,1698241168593,1698241168593,3081,3081,3692,buq,qns-item-noham,53,227691,0.0-1.0-0.52
<b>Lots of important topics can only really be understood by some groups of people.,Highly disagree,54/150,Somewhat agree,3,1698241169205,1698241174709,\Somewhat agree\,\Somewhat agree\,\3\,1698241174277,1698241174277,5072,5072,5504,buq,qns-item-noham,54,233196,0.0-1.0-0.53
<b>Details almost always matter for being right about something.,Highly disagree,55/150,Highly agree,4,1698241174710,1698241177405,\Highly agree\,\Highly agree\,\4\,1698241177011,1698241177011,2301,2301,2695,buq,qns-item-noham,55,235892,0.0-1.0-0.54
"<b>The most important thing in politics is winning, not convincing people.",Highly disagree,56/150,Highly disagree,1,1698241177406,1698241180239,\Highly disagree\,\Highly disagree\,\1\,1698241179754,1698241179754,2348,2348,2833,buq,qns-item-noham,56,238726,0.0-1.0-0.55
<b>Having conflicting beliefs means you haven?t thought about them enough.,Highly disagree,57/150,Somewhat disagree,2,1698241180240,1698241184681,\Somewhat disagree\,\Somewhat disagree\,\2\,1698241184219,1698241184219,3979,3979,4441,buq,qns-item-noham,57,243168,0.0-1.0-0.56
<b>Other people have sometimes convinced me to change my mind on important topics.,Highly disagree,58/150,Somewhat agree,3,1698241184682,1698241188683,\Somewhat agree\,\Somewhat agree\,\3\,1698241188244,1698241188244,3562,3562,4001,buq,qns-item-noham,58,247170,0.0-1.0-0.57
<b>I do not often change my political opinions.,Highly disagree,59/150,Somewhat disagree,2,1698241188684,1698241191611,\Somewhat disagree\,\Somewhat disagree\,\2\,1698241191125,1698241191125,2441,2441,2927,buq,qns-item-noham,59,250098,0.0-1.0-0.58
<b>Thinking about how different things relate to one another is critical in life.,Highly disagree,60/150,Somewhat agree,3,1698241191612,1698241195237,\Somewhat agree\,\Somewhat agree\,\3\,1698241194084,1698241194084,2472,2472,3625,buq,qns-item-noham,60,253724,0.0-1.0-0.59
<b>True beliefs can have unfortunate implications.,Highly disagree,61/150,Somewhat disagree,2,1698241195238,1698241198186,\Somewhat disagree\,\Somewhat disagree\,\2\,1698241197676,1698241197676,2438,2438,2948,buq,qns-item-noham,61,256673,0.0-1.0-0.60
<b>It?s difficult to not have at least some conflicting beliefs.,Highly disagree,62/150,Somewhat agree,3,1698241198187,1698241202568,\Somewhat agree\,\Somewhat agree\,\3\,1698241202048,1698241202048,3861,3861,4381,buq,qns-item-noham,62,261055,0.0-1.0-0.61
"<b>When I learn new things, I think deeply about how my opinions should change.",Highly disagree,63/150,Somewhat disagree,2,1698241202569,1698241205864,\Somewhat disagree\,\Somewhat disagree\,\2\,1698241205370,1698241205370,2801,2801,3295,buq,qns-item-noham,63,264351,0.0-1.0-0.62
<b>I think a lot about how to interpret different sorts of evidence.,Highly disagree,64/150,Somewhat agree,3,1698241205865,1698241209110,\Somewhat agree\,\Somewhat agree\,\3\,1698241208630,1698241208630,2765,2765,3245,buq,qns-item-noham,64,267597,0.0-1.0-0.63
<b>Politics is about thinking together and finding compromises.,Highly disagree,65/150,Somewhat agree,3,1698241209111,1698241212060,\Somewhat agree\,\Somewhat agree\,\3\,1698241211450,1698241211450,2339,2339,2949,buq,qns-item-noham,65,270547,0.0-1.0-0.64
<b>Wishful thinking causes a lot of problems.,Highly disagree,66/150,Somewhat disagree,2,1698241212061,1698241214362,\Somewhat disagree\,\Somewhat disagree\,\2\,1698241213844,1698241213844,1783,1783,2301,buq,qns-item-noham,66,272849,0.0-1.0-0.65
<b>I judge a food item only once I try it many times.,Highly disagree,67/150,Somewhat agree,3,1698241214363,1698241220186,\Somewhat agree\,\Somewhat agree\,\3\,1698241219747,1698241219747,5384,5384,5823,buq,qns-item-noham,67,278673,0.0-1.0-0.66
"<b>When a person holds conflicting beliefs, they should really try to figure out what?s wrong.",Highly disagree,68/150,Somewhat disagree,2,1698241220187,1698241223662,\Somewhat disagree\,\Somewhat disagree\,\2\,1698241222883,1698241222883,2696,2696,3475,buq,qns-item-noham,68,282149,0.0-1.0-0.67
<b>Knowing what?s important in life is easy.,Highly disagree,69/150,Somewhat disagree,2,1698241223662,1698241226179,\Somewhat disagree\,\Somewhat disagree\,\2\,1698241225670,1698241225670,2008,2008,2517,buq,qns-item-noham,69,284666,0.0-1.0-0.68
<b>Lots of smart people disagree about basic political questions.,Highly disagree,70/150,Highly agree,4,1698241226180,1698241229232,\Highly agree\,\Highly agree\,\4\,1698241228412,1698241228412,2232,2232,3052,buq,qns-item-noham,70,287719,0.0-1.0-0.69
<b>I swim across the Atlantic Ocean to get to work every day.,Highly disagree,71/150,Highly disagree,1,1698241229233,1698241232730,\Highly disagree\,\Highly disagree\,\1\,1698241231733,1698241231733,2500,2500,3497,buq,qns-item-noham,71,291217,0.0-1.0-0.70
"<b>Sometimes, you just have to ignore evidence that you know is wrong.",Highly disagree,72/150,Somewhat disagree,2,1698241232731,1698241238370,\Somewhat disagree\,\Somewhat disagree\,\2\,1698241237505,1698241237505,4774,4774,5639,buq,qns-item-noham,72,296857,0.0-1.0-0.71
<b>I have had some false beliefs.,Highly disagree,73/150,Somewhat agree,3,1698241238372,1698241241350,\Somewhat agree\,\Somewhat agree\,\3\,1698241240789,1698241240789,2417,2417,2978,buq,qns-item-noham,73,299837,0.0-1.0-0.72
"<b>If one friend does something that upsets me, I sometimes start to distrust people in general.",Highly disagree,74/150,Somewhat disagree,2,1698241241351,1698241244726,\Somewhat disagree\,\Somewhat disagree\,\2\,1698241244202,1698241244202,2851,2851,3375,buq,qns-item-noham,74,303213,0.0-1.0-0.73
<b>I easily apply what I learn in one situation to another.,Highly disagree,75/150,Somewhat agree,3,1698241244727,1698241247507,\Somewhat agree\,\Somewhat agree\,\3\,1698241246965,1698241246965,2238,2238,2780,buq,qns-item-noham,75,305994,0.0-1.0-0.74
<b>The facts about most important matters are easy to find.,Highly disagree,76/150,Somewhat agree,3,1698241247508,1698241250815,\Somewhat disagree\,\Somewhat agree\,\2\,1698241249910,1698241250296,2402,2788,3307,buq,qns-item-noham,76,309302,0.0-1.0-0.75
<b>It?s better to know what?s true than to know what?s moral.,Highly disagree,77/150,Somewhat disagree,2,1698241250816,1698241254323,\Somewhat disagree\,\Somewhat disagree\,\2\,1698241253896,1698241253896,3080,3080,3507,buq,qns-item-noham,77,312810,0.0-1.0-0.76
<b>It?s good to be skeptical of people you agree with.,Highly disagree,78/150,Somewhat disagree,2,1698241254324,1698241257402,\Somewhat disagree\,\Somewhat disagree\,\2\,1698241256568,1698241256568,2244,2244,3078,buq,qns-item-noham,78,315889,0.0-1.0-0.77
<b>Sometimes reasonable beliefs are wrong.,Highly disagree,79/150,Somewhat agree,3,1698241257403,1698241260012,\Somewhat agree\,\Somewhat agree\,\3\,1698241259456,1698241259456,2053,2053,2609,buq,qns-item-noham,79,318499,0.0-1.0-0.78
<b>I used to think the world was less complicated than I do now.,Highly disagree,80/150,Somewhat agree,3,1698241260013,1698241263405,\Somewhat disagree\,\Somewhat agree\,\2\,1698241262123,1698241262932,2110,2919,3392,buq,qns-item-noham,80,321892,0.0-1.0-0.79
<b>People are usually completely right or completely wrong.,Highly disagree,81/150,Somewhat disagree,2,1698241263406,1698241269590,\Somewhat agree\,\Somewhat disagree\,\3\,1698241266556,1698241268896,3150,5490,6184,buq,qns-item-noham,81,328077,0.0-1.0-0.80
<b>I spend a lot of time considering alternatives to my beliefs.,Highly disagree,82/150,Somewhat disagree,2,1698241269591,1698241275723,\Somewhat disagree\,\Somewhat disagree\,\2\,1698241275180,1698241275180,5589,5589,6132,buq,qns-item-noham,82,334210,0.0-1.0-0.81
"<b>Political enemies need to be defeated, not convinced.",Highly disagree,83/150,Highly disagree,1,1698241275724,1698241278316,\Highly disagree\,\Highly disagree\,\1\,1698241277785,1698241277785,2061,2061,2592,buq,qns-item-noham,83,336803,0.0-1.0-0.82
"<b>When forming an opinion about a restaurant, I am more swayed by my  latest meal there than  previous meals I?ve had there.",Highly disagree,84/150,Somewhat agree,3,1698241278317,1698241288158,\Somewhat agree\,\Somewhat agree\,\3\,1698241287726,1698241287726,9409,9409,9841,buq,qns-item-noham,84,346645,0.0-1.0-0.83
<b>I try to remain skeptical about most topics.,Highly disagree,85/150,Somewhat agree,3,1698241288159,1698241291880,\Somewhat agree\,\Somewhat agree\,\3\,1698241291000,1698241291000,2841,2841,3721,buq,qns-item-noham,85,350367,0.0-1.0-0.84
<b>Being wrong is usually obvious in retrospect.,Highly disagree,86/150,Somewhat disagree,2,1698241291881,1698241294330,\Somewhat disagree\,\Somewhat disagree\,\2\,1698241293883,1698241293883,2002,2002,2449,buq,qns-item-noham,86,352817,0.0-1.0-0.85
<b>It can be hard to realize that my beliefs are in conflict.,Highly disagree,87/150,Somewhat disagree,2,1698241294331,1698241297650,\Somewhat disagree\,\Somewhat disagree\,\2\,1698241297210,1698241297210,2879,2879,3319,buq,qns-item-noham,87,356137,0.0-1.0-0.86
<b>I form my political views only after meticulously gathering historical and present information about their policies.,Highly disagree,88/150,Highly disagree,1,1698241297652,1698241302594,\Highly disagree\,\Highly disagree\,\1\,1698241301784,1698241301784,4132,4132,4942,buq,qns-item-noham,88,361081,0.0-1.0-0.87
<b>Skeptical people are usually just bad-tempered.,Highly disagree,89/150,Somewhat disagree,2,1698241302595,1698241305105,\Somewhat disagree\,\Somewhat disagree\,\2\,1698241304602,1698241304602,2007,2007,2510,buq,qns-item-noham,89,363592,0.0-1.0-0.88
<b>It is difficult for me to remember the last time I was surprised by politics.,Highly disagree,90/150,Somewhat agree,3,1698241305107,1698241309006,\Somewhat agree\,\Somewhat agree\,\3\,1698241308574,1698241308574,3467,3467,3899,buq,qns-item-noham,90,367493,0.0-1.0-0.89
"<b>When I find out I?m wrong, I think a lot about my related beliefs.",Highly disagree,91/150,Somewhat disagree,2,1698241309007,1698241312018,\Somewhat disagree\,\Somewhat disagree\,\2\,1698241311470,1698241311470,2463,2463,3011,buq,qns-item-noham,91,370505,0.0-1.0-0.90
"<b>If the political party I support messes up, it makes me think you can?t trust anyone these days",Highly disagree,92/150,Somewhat disagree,2,1698241312019,1698241316931,\Somewhat disagree\,\Somewhat disagree\,\2\,1698241316276,1698241316276,4257,4257,4912,buq,qns-item-noham,92,375418,0.0-1.0-0.91
<b>People?s brains turn off when they talk about politics.,Highly disagree,93/150,Somewhat disagree,2,1698241316932,1698241321290,\Somewhat disagree\,\Somewhat disagree\,\2\,1698241320679,1698241320679,3747,3747,4358,buq,qns-item-noham,93,379778,0.0-1.0-0.92
<b>People who are wrong are usually just ignoring the obvious.,Highly disagree,94/150,Somewhat agree,3,1698241321292,1698241324618,\Somewhat agree\,\Somewhat agree\,\3\,1698241324215,1698241324215,2923,2923,3326,buq,qns-item-noham,94,383105,0.0-1.0-0.93
"<b>The world isn?t that complicated, but it?s still hard to figure out how it works.",Highly disagree,95/150,Somewhat disagree,2,1698241324619,1698241327227,\Somewhat disagree\,\Somewhat disagree\,\2\,1698241326718,1698241326718,2099,2099,2608,buq,qns-item-noham,95,385714,0.0-1.0-0.94
"<b>When forming my views on people, I rely more on what they are like now rather than rely on my past experience with them.",Highly disagree,96/150,Somewhat agree,3,1698241327229,1698241332852,\Somewhat agree\,\Somewhat agree\,\3\,1698241331977,1698241331977,4748,4748,5623,buq,qns-item-noham,96,391339,0.0-1.0-0.95
"<b>When people contradict my beliefs, I usually know about their evidence already.",Highly disagree,97/150,Somewhat disagree,2,1698241332853,1698241336883,\Somewhat disagree\,\Somewhat disagree\,\2\,1698241335647,1698241335647,2794,2794,4030,buq,qns-item-noham,97,395370,0.0-1.0-0.96
<b>Being wrong is a matter of degree.,Highly disagree,98/150,Somewhat agree,3,1698241336884,1698241339547,\Somewhat agree\,\Somewhat agree\,\3\,1698241338759,1698241338759,1875,1875,2663,buq,qns-item-noham,98,398034,0.0-1.0-0.97
<b>Figuring out what?s true and what?s false mainly requires a strong moral compass.,Highly disagree,99/150,Somewhat agree,3,1698241339548,1698241343911,\Somewhat disagree\,\Somewhat agree\,\2\,1698241342381,1698241343447,2833,3899,4363,buq,qns-item-noham,99,402398,0.0-1.0-0.98
<b>Most of the beliefs people have are at least somewhat understandable.,Highly disagree,100/150,Somewhat agree,3,1698241343912,1698241348802,\Somewhat agree\,\Somewhat agree\,\3\,1698241348338,1698241348338,4426,4426,4890,buq,qns-item-noham,100,407289,0.0-1.0-0.99
"<b>Usually I?m wrong about simple things, not complicated ones.",Highly disagree,101/150,Somewhat disagree,2,1698241348803,1698241351242,\Somewhat disagree\,\Somewhat disagree\,\2\,1698241350540,1698241350540,1737,1737,2439,buq,qns-item-noham,101,409729,0.0-1.0-0.100
<b>Getting all the information I want about important things is hard.,Highly disagree,102/150,Somewhat disagree,2,1698241351244,1698241354801,\Somewhat agree\,\Somewhat disagree\,\3\,1698241353775,1698241354393,2531,3149,3557,buq,qns-item-noham,102,413288,0.0-1.0-0.101
<b>Most false beliefs spread because people try to deceive one another.,Highly disagree,103/150,Somewhat disagree,2,1698241354803,1698241359006,\Somewhat disagree\,\Somewhat disagree\,\2\,1698241357322,1698241358607,2519,3804,4203,buq,qns-item-noham,103,417493,0.0-1.0-0.102
<b>I can usually find something to agree with in most people?s beliefs.,Highly disagree,104/150,Somewhat agree,3,1698241359007,1698241361869,\Somewhat agree\,\Somewhat agree\,\3\,1698241361143,1698241361143,2136,2136,2862,buq,qns-item-noham,104,420356,0.0-1.0-0.103
<b>I only form my views of people once I get to know them very well.,Highly disagree,105/150,Somewhat agree,3,1698241361871,1698241365091,\Somewhat agree\,\Somewhat agree\,\3\,1698241364620,1698241364620,2749,2749,3220,buq,qns-item-noham,105,423578,0.0-1.0-0.104
"<b>When people tell me important things about the world, I usually believe them.",Highly disagree,106/150,Somewhat agree,3,1698241365092,1698241368488,\Somewhat agree\,\Somewhat agree\,\3\,1698241368101,1698241368101,3009,3009,3396,buq,qns-item-noham,106,426975,0.0-1.0-0.105
"<b>If a friend does something that upsets me, it reminds me what an unpredictable place the world is.",Highly disagree,107/150,Somewhat agree,3,1698241368489,1698241373277,\Somewhat agree\,\Somewhat agree\,\3\,1698241372660,1698241372660,4171,4171,4788,buq,qns-item-noham,107,431764,0.0-1.0-0.106
<b>Having some conflicting beliefs is inevitable.,Highly disagree,108/150,Somewhat agree,3,1698241373278,1698241375917,\Somewhat agree\,\Somewhat agree\,\3\,1698241375363,1698241375363,2085,2085,2639,buq,qns-item-noham,108,434404,0.0-1.0-0.107
<b>People are wrong because they haven?t thought much about things.,Highly disagree,109/150,Somewhat disagree,2,1698241375918,1698241378397,\Somewhat disagree\,\Somewhat disagree\,\2\,1698241377942,1698241377942,2024,2024,2479,buq,qns-item-noham,109,436884,0.0-1.0-0.108
<b>People tend to believe whatever is good for their friends.,Highly disagree,110/150,Somewhat disagree,2,1698241378399,1698241381433,\Somewhat disagree\,\Somewhat disagree\,\2\,1698241380977,1698241380977,2578,2578,3034,buq,qns-item-noham,110,439920,0.0-1.0-0.109
"<b>When I talk about important topics, I try to make sure people know I?m not always right.",Highly disagree,111/150,Somewhat agree,3,1698241381434,1698241385967,\Somewhat agree\,\Somewhat agree\,\3\,1698241385457,1698241385457,4023,4023,4533,buq,qns-item-noham,111,444454,0.0-1.0-0.110
<b>I used to be more certain my beliefs were true.,Highly disagree,112/150,Somewhat disagree,2,1698241385968,1698241388091,\Somewhat disagree\,\Somewhat disagree\,\2\,1698241387621,1698241387621,1653,1653,2123,buq,qns-item-noham,112,446578,0.0-1.0-0.111
<b>It?s often pretty easy to figure out whether something is true based on who said it.,Highly disagree,113/150,Somewhat disagree,2,1698241388092,1698241391521,\Somewhat disagree\,\Somewhat disagree\,\2\,1698241391051,1698241391051,2959,2959,3429,buq,qns-item-noham,113,450008,0.0-1.0-0.112
<b>Having bad food in my favorite restaurant will make me think the restaurant is no longer good.,Highly disagree,114/150,Somewhat disagree,2,1698241391523,1698241394974,\Somewhat disagree\,\Somewhat disagree\,\2\,1698241394371,1698241394371,2848,2848,3451,buq,qns-item-noham,114,453461,0.0-1.0-0.113
<b>I transform into a hummingbird every day.,Highly disagree,115/150,Highly disagree,1,1698241394975,1698241397961,\Highly disagree\,\Highly disagree\,\1\,1698241397043,1698241397043,2068,2068,2986,buq,qns-item-noham,115,456448,0.0-1.0-0.114
"<b>Unfortunately, when people are wrong, it?s usually because they?re bad.",Highly disagree,116/150,Highly disagree,1,1698241397962,1698241401036,\Highly disagree\,\Highly disagree\,\1\,1698241400388,1698241400388,2426,2426,3074,buq,qns-item-noham,116,459523,0.0-1.0-0.115
<b>I think a lot about arguments against my views.,Highly disagree,117/150,Highly disagree,1,1698241401037,1698241404581,\Highly disagree\,\Highly disagree\,\1\,1698241403856,1698241403856,2819,2819,3544,buq,qns-item-noham,117,463068,0.0-1.0-0.116
<b>Details tend to matter a lot for knowing whether a policy is good.,Highly disagree,118/150,Somewhat agree,3,1698241404583,1698241410349,\Somewhat disagree\,\Somewhat agree\,\2\,1698241408357,1698241409495,3774,4912,5766,buq,qns-item-noham,118,468836,0.0-1.0-0.117
<b>Personal experience is usually more important than facts and figures.,Highly disagree,119/150,Highly agree,4,1698241410350,1698241413108,\Highly agree\,\Highly agree\,\4\,1698241412644,1698241412644,2294,2294,2758,buq,qns-item-noham,119,471595,0.0-1.0-0.118
<b>I?ve been tricked before about important matters.,Highly disagree,120/150,Somewhat disagree,2,1698241413109,1698241415577,\Somewhat disagree\,\Somewhat disagree\,\2\,1698241415015,1698241415015,1906,1906,2468,buq,qns-item-noham,120,474064,0.0-1.0-0.119
<b>I would need to be totally wowed if I were to change my opinion of a restaurant I don?t like.,Highly disagree,121/150,Somewhat agree,3,1698241415579,1698241422961,\Somewhat agree\,\Somewhat agree\,\3\,1698241421277,1698241422554,5698,6975,7382,buq,qns-item-noham,121,481448,0.0-1.0-0.120
<b>I care a lot about politics.,Highly disagree,122/150,Highly disagree,1,1698241422962,1698241424592,\Highly disagree\,\Highly disagree\,\1\,1698241424098,1698241424098,1136,1136,1630,buq,qns-item-noham,122,483079,0.0-1.0-0.121
<b>People with conflicting beliefs usually have some facts they disagree on.,Highly disagree,123/150,Somewhat agree,3,1698241424593,1698241429210,\Somewhat agree\,\Somewhat agree\,\3\,1698241427743,1698241427743,3150,3150,4617,buq,qns-item-noham,123,487697,0.0-1.0-0.122
<b>There are some topics I?ve been really wrong about.,Highly disagree,124/150,Somewhat agree,3,1698241429211,1698241432022,\Somewhat agree\,\Somewhat agree\,\3\,1698241431519,1698241431519,2308,2308,2811,buq,qns-item-noham,124,490509,0.0-1.0-0.123
<b>Most beliefs can be supported with at least some evidence.,Highly disagree,125/150,Somewhat agree,3,1698241432023,1698241435507,\Somewhat agree\,\Somewhat agree\,\3\,1698241434826,1698241434826,2803,2803,3484,buq,qns-item-noham,125,493994,0.0-1.0-0.124
<b>Other people make life out to be more complicated than it really is.,Highly disagree,126/150,Somewhat disagree,2,1698241435508,1698241439104,\Somewhat disagree\,\Somewhat disagree\,\2\,1698241438502,1698241438502,2994,2994,3596,buq,qns-item-noham,126,497591,0.0-1.0-0.125
"<b>My political views are being shaped continuously as I gather more information, rather than relying on what I?ve known to be true of my party in the past. ",Highly disagree,127/150,Somewhat agree,3,1698241439105,1698241444025,\Somewhat agree\,\Somewhat agree\,\3\,1698241443406,1698241443406,4301,4301,4920,buq,qns-item-noham,127,502512,0.0-1.0-0.126
<b>It?s pretty unusual for true things to seem false.,Highly disagree,128/150,Somewhat disagree,2,1698241444026,1698241447130,\Somewhat disagree\,\Somewhat disagree\,\2\,1698241446628,1698241446628,2602,2602,3104,buq,qns-item-noham,128,505617,0.0-1.0-0.127
"<b>Policy details don?t matter much, just the big picture.",Highly disagree,129/150,Somewhat disagree,2,1698241447131,1698241452359,\Somewhat disagree\,\Somewhat disagree\,\2\,1698241451864,1698241451864,4733,4733,5228,buq,qns-item-noham,129,510846,0.0-1.0-0.128
<b>I know my friends so well they can hardly ever surprise me.,Highly disagree,130/150,Somewhat disagree,2,1698241452360,1698241455138,\Somewhat disagree\,\Somewhat disagree\,\2\,1698241454614,1698241454614,2254,2254,2778,buq,qns-item-noham,130,513625,0.0-1.0-0.129
"<b>When I talk to people, I often think about why they have the beliefs they do.",Highly disagree,131/150,Somewhat disagree,2,1698241455139,1698241460514,\Somewhat disagree\,\Somewhat disagree\,\2\,1698241459672,1698241459672,4533,4533,5375,buq,qns-item-noham,131,519001,0.0-1.0-0.130
<b>I do not often change my views on people.,Highly disagree,132/150,Somewhat disagree,2,1698241460515,1698241463580,\Somewhat disagree\,\Somewhat disagree\,\2\,1698241462894,1698241462894,2379,2379,3065,buq,qns-item-noham,132,522067,0.0-1.0-0.131
<b>I often wish I had more time to spend figuring out what?s true and what?s false in life.,Highly disagree,133/150,Somewhat disagree,2,1698241463581,1698241467064,\Somewhat disagree\,\Somewhat disagree\,\2\,1698241466516,1698241466516,2935,2935,3483,buq,qns-item-noham,133,525551,0.0-1.0-0.132
<b>I?m more certain about my beliefs than I used to be.,Highly disagree,134/150,Somewhat disagree,2,1698241467065,1698241469559,\Somewhat disagree\,\Somewhat disagree\,\2\,1698241468778,1698241468778,1713,1713,2494,buq,qns-item-noham,134,528046,0.0-1.0-0.133
"<b>Whenever I find out new information, I update my views on politics accordingly.",Highly disagree,135/150,Somewhat agree,3,1698241469560,1698241472662,\Somewhat agree\,\Somewhat agree\,\3\,1698241472184,1698241472184,2624,2624,3102,buq,qns-item-noham,135,531149,0.0-1.0-0.134
<b>People often tell falsehoods unintentionally.,Highly disagree,136/150,Somewhat agree,3,1698241472663,1698241475899,\Somewhat agree\,\Somewhat agree\,\3\,1698241475420,1698241475420,2757,2757,3236,buq,qns-item-noham,136,534386,0.0-1.0-0.135
<b>Most people don?t know much about most things.,Highly disagree,137/150,Somewhat agree,3,1698241475900,1698241478934,\Somewhat agree\,\Somewhat agree\,\3\,1698241478408,1698241478408,2508,2508,3034,buq,qns-item-noham,137,537421,0.0-1.0-0.136
"<b>If I find out something new about someone, I easily change my views about them.",Highly disagree,138/150,Somewhat disagree,2,1698241478935,1698241483002,\Somewhat disagree\,\Somewhat disagree\,\2\,1698241482417,1698241482417,3482,3482,4067,buq,qns-item-noham,138,541490,0.0-1.0-0.137
<b>Having true beliefs is difficult.,Highly disagree,139/150,Somewhat agree,3,1698241483004,1698241485536,\Somewhat agree\,\Somewhat agree\,\3\,1698241484820,1698241484820,1816,1816,2532,buq,qns-item-noham,139,544023,0.0-1.0-0.138
<b>I don?t try new foods since I know I won?t like them.,Highly disagree,140/150,Somewhat disagree,2,1698241485537,1698241489189,\Somewhat disagree\,\Somewhat disagree\,\2\,1698241488726,1698241488726,3189,3189,3652,buq,qns-item-noham,140,547676,0.0-1.0-0.139
<b>It?s easy to figure out what?s true or false based on who?s saying it.,Highly disagree,141/150,Somewhat disagree,2,1698241489190,1698241492950,\Somewhat disagree\,\Somewhat disagree\,\2\,1698241491607,1698241491607,2417,2417,3760,buq,qns-item-noham,141,551437,0.0-1.0-0.140
<b>False things have seemed true to me many times.,Highly disagree,142/150,Somewhat agree,3,1698241492951,1698241496641,\Somewhat agree\,\Somewhat agree\,\3\,1698241496139,1698241496139,3188,3188,3690,buq,qns-item-noham,142,555128,0.0-1.0-0.141
<b>It?s pretty easy to sort out what?s true and what?s false in life.,Highly disagree,143/150,Somewhat disagree,2,1698241496642,1698241499282,\Somewhat disagree\,\Somewhat disagree\,\2\,1698241498765,1698241498765,2123,2123,2640,buq,qns-item-noham,143,557769,0.0-1.0-0.142
<b>Knowing lots of statistics about something is usually important for understanding it.,Highly disagree,144/150,Somewhat agree,3,1698241499283,1698241503166,\Somewhat agree\,\Somewhat agree\,\3\,1698241502672,1698241502672,3389,3389,3883,buq,qns-item-noham,144,561653,0.0-1.0-0.143
<b>Other people trick each other a lot.,Highly disagree,145/150,Somewhat disagree,2,1698241503167,1698241505376,\Somewhat disagree\,\Somewhat disagree\,\2\,1698241504826,1698241504826,1659,1659,2209,buq,qns-item-noham,145,563863,0.0-1.0-0.144
<b>I would need to learn a lot about a person for my opinion of them to be swayed.,Highly disagree,146/150,Somewhat agree,3,1698241505377,1698241508906,\Somewhat agree\,\Somewhat agree\,\3\,1698241508432,1698241508432,3055,3055,3529,buq,qns-item-noham,146,567393,0.0-1.0-0.145
<b>People can?t usually trick me when it comes to topics I care about.,Highly disagree,147/150,Somewhat disagree,2,1698241508907,1698241511344,\Somewhat disagree\,\Somewhat disagree\,\2\,1698241510804,1698241510804,1897,1897,2437,buq,qns-item-noham,147,569831,0.0-1.0-0.146
<b>I do not often change my views on food.,Highly disagree,148/150,Somewhat disagree,2,1698241511345,1698241514008,\Somewhat disagree\,\Somewhat disagree\,\2\,1698241513614,1698241513614,2269,2269,2663,buq,qns-item-noham,148,572495,0.0-1.0-0.147
<b>Specific policies are often very important to me.,Highly disagree,149/150,Somewhat disagree,2,1698241514009,1698241517668,\Somewhat disagree\,\Somewhat disagree\,\2\,1698241517252,1698241517252,3243,3243,3659,buq,qns-item-noham,149,576155,0.0-1.0-0.148
<b>Most people are woefully under-informed.,Highly disagree,150/150,Somewhat agree,3,1698241517670,1698241520710,\Somewhat agree\,\Somewhat agree\,\3\,1698241520232,1698241520232,2562,2562,3040,buq,qns-item-noham,150,579197,0.0-1.0-0.149
