Question,qns_options,quest_num,answer,answer_num,question_load_timestamp,next_btn_timestamp,text_selected,final_text_selected,option_num_selected,preview_timestamps,final_text_selected_time_stamp,rt_first_option_click,rt_final_option_click,rt_submit_click,questionnaire,trial_type,trial_index,time_elapsed,internal_node_id
<b>Considering other people?s perspectives can help us figure out what?s true or false.,Highly disagree,1/150,Highly agree,4,1698240683868,1698240689436,\Highly agree\,\Highly agree\,\4\,1698240687996,1698240687996,4128,4128,5568,buq,qns-item-noham,1,11367,0.0-1.0-0.0
<b>Knowing what?s true and knowing what to do about it are usually basically the same.,Highly disagree,2/150,Somewhat agree,3,1698240689458,1698240698582,\Somewhat agree\,\Somewhat agree\,\3\,1698240697620,1698240697620,8162,8162,9124,buq,qns-item-noham,2,20514,0.0-1.0-0.1
<b>Most people just believe whatever is convenient for them.,Highly disagree,3/150,Highly agree,4,1698240698589,1698240702718,\Highly agree\,\Highly agree\,\4\,1698240701309,1698240701309,2720,2720,4129,buq,qns-item-noham,3,24649,0.0-1.0-0.2
<b>Even people who are wrong about most things can be right sometimes.,Highly disagree,4/150,Highly agree,4,1698240702727,1698240708331,\Highly agree\,\Highly agree\,\4\,1698240707252,1698240707252,4525,4525,5604,buq,qns-item-noham,4,30263,0.0-1.0-0.3
"<b>If the political party I support does something that upsets me, then the party may have changed, and I need to re-evaluate my support.",Highly disagree,5/150,Highly agree,4,1698240708342,1698240718375,\Highly agree\,\Highly agree\,\4\,1698240717513,1698240717513,9171,9171,10033,buq,qns-item-noham,5,40306,0.0-1.0-0.4
"<b>When people disagree, one side is usually completely right.",Highly disagree,6/150,Highly disagree,1,1698240718381,1698240722126,\Highly disagree\,\Highly disagree\,\1\,1698240720843,1698240720843,2462,2462,3745,buq,qns-item-noham,6,44058,0.0-1.0-0.5
<b>People have lots of false beliefs.,Highly disagree,7/150,Highly agree,4,1698240722135,1698240726221,\Highly agree\,\Highly agree\,\4\,1698240724820,1698240724820,2685,2685,4086,buq,qns-item-noham,7,48152,0.0-1.0-0.6
<b>Having some big beliefs helps me sort out minor ones.,Highly disagree,8/150,Highly agree,4,1698240726228,1698240730857,\Highly agree\,\Highly agree\,\4\,1698240729384,1698240729384,3156,3156,4629,buq,qns-item-noham,8,52788,0.0-1.0-0.7
<b>Political questions are usually pretty complicated.,Highly disagree,9/150,Highly agree,4,1698240730864,1698240734423,\Highly agree\,\Highly agree\,\4\,1698240733151,1698240733151,2287,2287,3559,buq,qns-item-noham,9,56354,0.0-1.0-0.8
<b>Figuring out what?s important in life requires learning a lot of facts.,Highly disagree,10/150,Somewhat disagree,2,1698240734429,1698240750963,\Somewhat disagree\,\Somewhat disagree\,\2\,1698240748189,1698240748189,13760,13760,16534,buq,qns-item-noham,10,72894,0.0-1.0-0.9
<b>It is difficult for me to remember the last time I was surprised by politics.,Highly disagree,11/150,Highly disagree,1,1698240750970,1698240763662,\Highly disagree\,\Highly disagree\,\1\,1698240762329,1698240762329,11359,11359,12692,buq,qns-item-noham,11,85594,0.0-1.0-0.10
<b>People?s false beliefs are understandable.,Highly disagree,12/150,Somewhat agree,3,1698240763672,1698240770828,\Somewhat agree\,\Somewhat agree\,\3\,1698240769953,1698240769953,6281,6281,7156,buq,qns-item-noham,12,92759,0.0-1.0-0.11
<b>I spend a lot of time trying to be informed about politics.,Highly disagree,13/150,Somewhat agree,3,1698240770833,1698240774624,\Somewhat agree\,\Somewhat agree\,\3\,1698240773344,1698240773344,2511,2511,3791,buq,qns-item-noham,13,96555,0.0-1.0-0.12
<b>I think a lot about whether my beliefs are right.,Highly disagree,14/150,Highly agree,4,1698240774630,1698240778385,\Highly agree\,\Highly agree\,\4\,1698240777623,1698240777623,2993,2993,3755,buq,qns-item-noham,14,100316,0.0-1.0-0.13
<b>Statistics can be pretty misleading sometimes.,Highly disagree,15/150,Highly agree,4,1698240778392,1698240780665,\Highly agree\,\Highly agree\,\4\,1698240779911,1698240779911,1519,1519,2273,buq,qns-item-noham,15,102596,0.0-1.0-0.14
<b>Figuring out what?s true and what?s false takes a lot of time and effort.,Highly disagree,16/150,Highly agree,4,1698240780670,1698240783145,\Highly agree\,\Highly agree\,\4\,1698240782397,1698240782397,1727,1727,2475,buq,qns-item-noham,16,105076,0.0-1.0-0.15
"<b>If a friend does something bad to me, it was likely an error on their part.",Highly disagree,17/150,Somewhat disagree,2,1698240783151,1698240787821,\Somewhat disagree\,\Somewhat disagree\,\2\,1698240786860,1698240786860,3709,3709,4670,buq,qns-item-noham,17,109753,0.0-1.0-0.16
<b>I have lots of beliefs that I?m only sort of sure about.,Highly disagree,18/150,Somewhat disagree,2,1698240787830,1698240793676,\Somewhat disagree\,\Somewhat disagree\,\2\,1698240792743,1698240792743,4913,4913,5846,buq,qns-item-noham,18,115607,0.0-1.0-0.17
"<b>If I go to my favorite restaurant and the food is surprisingly bad, it reminds me there are many disappointments in life.",Highly disagree,19/150,Somewhat agree,3,1698240793682,1698240803155,\Somewhat agree\,\Somewhat agree\,\3\,1698240798875,1698240798875,5193,5193,9473,buq,qns-item-noham,19,125086,0.0-1.0-0.18
<b>Sometimes my beliefs are inconvenient for me.,Highly disagree,20/150,Highly agree,4,1698240803162,1698240827725,\Somewhat agree\,\Highly agree\,\3\,1698240824862,1698240826521,21700,23359,24563,buq,qns-item-noham,20,149656,0.0-1.0-0.19
<b>Paying attention to multiple news sources is important.,Highly disagree,21/150,Highly agree,4,1698240827731,1698240830276,\Highly agree\,\Highly agree\,\4\,1698240829246,1698240829246,1515,1515,2545,buq,qns-item-noham,21,152208,0.0-1.0-0.20
"<b>If you are paying attention, please select ?Somewhat agree?",Highly disagree,22/150,Somewhat agree,3,1698240830283,1698240832865,\Somewhat agree\,\Somewhat agree\,\3\,1698240831926,1698240831926,1643,1643,2582,buq,qns-item-noham,22,154796,0.0-1.0-0.21
"<b>When I talk to others, I often worry I?ll convince them of something I didn?t mean to.",Highly disagree,23/150,Highly disagree,1,1698240832870,1698240839883,\Highly disagree\,\Highly disagree\,\1\,1698240838558,1698240838558,5688,5688,7013,buq,qns-item-noham,23,161814,0.0-1.0-0.22
<b>I would need to learn something utterly shocking about my party in order to change my political views.,Highly disagree,24/150,Somewhat disagree,2,1698240839892,1698240846202,\Somewhat disagree\,\Somewhat disagree\,\2\,1698240845090,1698240845090,5198,5198,6310,buq,qns-item-noham,24,168133,0.0-1.0-0.23
"<b>When I have new experiences, I tend to think of them as unique.",Highly disagree,25/150,Somewhat disagree,2,1698240846207,1698240850455,\Somewhat disagree\,\Somewhat disagree\,\2\,1698240849644,1698240849644,3437,3437,4248,buq,qns-item-noham,25,172387,0.0-1.0-0.24
<b>Reading lots of things is important for understanding the world.,Highly disagree,26/150,Highly agree,4,1698240850460,1698240853478,\Highly agree\,\Highly agree\,\4\,1698240852373,1698240852373,1913,1913,3018,buq,qns-item-noham,26,175410,0.0-1.0-0.25
<b>The world is complicated.,Highly disagree,27/150,Highly agree,4,1698240853487,1698240856646,\Highly agree\,\Highly agree\,\4\,1698240855463,1698240855463,1976,1976,3159,buq,qns-item-noham,27,178578,0.0-1.0-0.26
<b>I change my mind about specific policies pretty frequently.,Highly disagree,28/150,Somewhat disagree,2,1698240856656,1698240860727,\Somewhat disagree\,\Somewhat disagree\,\2\,1698240859456,1698240859456,2800,2800,4071,buq,qns-item-noham,28,182658,0.0-1.0-0.27
"<b>If a politician in my political party supports something I disagree with, I give them the benefit of the doubt, as such issues often involve hidden complexities that aren?t obvious.   ",Highly disagree,29/150,Somewhat agree,3,1698240860736,1698240872098,\Somewhat disagree\,\Somewhat agree\,\2\,1698240869793,1698240871158,9057,10422,11362,buq,qns-item-noham,29,194029,0.0-1.0-0.28
<b>People?s bad politics are usually motivated by hatefulness.,Highly disagree,30/150,Highly disagree,1,1698240872105,1698240876605,\Highly disagree\,\Highly disagree\,\1\,1698240875153,1698240875153,3048,3048,4500,buq,qns-item-noham,30,198536,0.0-1.0-0.29
"<b>Most new experiences are just like old ones, but a little bit different.",Highly disagree,31/150,Somewhat agree,3,1698240876613,1698240883703,\Somewhat agree\,\Somewhat agree\,\3\,1698240882824,1698240882824,6211,6211,7090,buq,qns-item-noham,31,205634,0.0-1.0-0.30
<b>I think a lot about how to reconcile my beliefs with one another.,Highly disagree,32/150,Somewhat agree,3,1698240883707,1698240888866,\Somewhat agree\,\Somewhat agree\,\3\,1698240888059,1698240888059,4352,4352,5159,buq,qns-item-noham,32,210797,0.0-1.0-0.31
<b>Personal experience rarely leads people astray.,Highly disagree,33/150,Somewhat disagree,2,1698240888874,1698240894666,\Somewhat disagree\,\Somewhat disagree\,\2\,1698240893371,1698240893371,4497,4497,5792,buq,qns-item-noham,33,216597,0.0-1.0-0.32
<b>I might have false beliefs about important topics.,Highly disagree,34/150,Somewhat disagree,2,1698240894673,1698240929594,\Highly disagree\,\Somewhat disagree\,\1\,1698240927901,1698240928778,33228,34105,34921,buq,qns-item-noham,34,251526,0.0-1.0-0.33
"<b>If a good friend of mine does something unexpected that upsets me, I feel like I don?t know them anymore.",Highly disagree,35/150,Somewhat agree,3,1698240929602,1698240936098,\Somewhat agree\,\Somewhat agree\,\3\,1698240935002,1698240935002,5400,5400,6496,buq,qns-item-noham,35,258029,0.0-1.0-0.34
<b>Other people?s beliefs are often incoherent.,Highly disagree,36/150,Somewhat agree,3,1698240936104,1698240939116,\Somewhat agree\,\Somewhat agree\,\3\,1698240938326,1698240938326,2222,2222,3012,buq,qns-item-noham,36,261047,0.0-1.0-0.35
<b>It?s important to have friends who think about things differently than I do.,Highly disagree,37/150,Somewhat disagree,2,1698240939121,1698240944815,\Somewhat disagree\,\Somewhat disagree\,\2\,1698240943450,1698240943450,4329,4329,5694,buq,qns-item-noham,37,266746,0.0-1.0-0.36
"<b>Every now and then, a new experience will unsettle beliefs I?ve had for a while.",Highly disagree,38/150,Somewhat agree,3,1698240944821,1698240947999,\Somewhat agree\,\Somewhat agree\,\3\,1698240947245,1698240947245,2424,2424,3178,buq,qns-item-noham,38,269930,0.0-1.0-0.37
<b>Some policies I agree with in principle are so bad I don?t support them. ,Highly disagree,39/150,Somewhat disagree,2,1698240948005,1698240957603,\Highly agree\,\Somewhat disagree\,\4\,1698240952949,1698240955331,4944,7326,9598,buq,qns-item-noham,39,279534,0.0-1.0-0.38
<b>I?m pretty sure I?ve accidentally spread false information.,Highly disagree,40/150,Somewhat agree,3,1698240957609,1698240963239,\Somewhat disagree\,\Somewhat agree\,\2\,1698240960779,1698240962397,3170,4788,5630,buq,qns-item-noham,40,285170,0.0-1.0-0.39
"<b>If I go to my favorite restaurant and the food is unexpectedly bad, then they have changed owners.",Highly disagree,41/150,Somewhat agree,3,1698240963245,1698240970892,\Somewhat disagree\,\Somewhat agree\,\2\,1698240966649,1698240969823,3404,6578,7647,buq,qns-item-noham,41,292823,0.0-1.0-0.40
"<b>In politics, it?s important to trust your friends and family.",Highly disagree,42/150,Somewhat disagree,2,1698240970898,1698240978039,\Somewhat agree\,\Somewhat disagree\,\3\,1698240974009,1698240975278,3111,4380,7141,buq,qns-item-noham,42,299970,0.0-1.0-0.41
<b>It?s OK to have some conflicting beliefs.,Highly disagree,43/150,Somewhat agree,3,1698240978043,1698240980706,\Somewhat agree\,\Somewhat agree\,\3\,1698240979402,1698240979402,1359,1359,2663,buq,qns-item-noham,43,302637,0.0-1.0-0.42
<b>Sometimes the details of a matter seem to conflict with the big picture.,Highly disagree,44/150,Highly agree,4,1698240980713,1698240985069,\Highly agree\,\Highly agree\,\4\,1698240984365,1698240984365,3652,3652,4356,buq,qns-item-noham,44,307000,0.0-1.0-0.43
<b>Listening to people I disagree with makes my opinions better.,Highly disagree,45/150,Somewhat agree,3,1698240985077,1698240990000,\Somewhat agree\,\Somewhat agree\,\3\,1698240989217,1698240989217,4140,4140,4923,buq,qns-item-noham,45,311931,0.0-1.0-0.44
<b>Policies that sound bad are sometimes fine when you find out about their details.,Highly disagree,46/150,Somewhat agree,3,1698240990005,1698240994169,\Somewhat agree\,\Somewhat agree\,\3\,1698240993185,1698240993185,3180,3180,4164,buq,qns-item-noham,46,316100,0.0-1.0-0.45
"<b>The world is always changing, so my beliefs are sometimes out-dated.",Highly disagree,47/150,Somewhat agree,3,1698240994173,1698240998464,\Somewhat agree\,\Somewhat agree\,\3\,1698240996297,1698240996297,2124,2124,4291,buq,qns-item-noham,47,320395,0.0-1.0-0.46
"<b>If I receive a bad meal at my favorite restaurant and the food is surprisingly bad, I do not think much of it, and assume the chef is just having an ?off? day.",Highly disagree,48/150,Somewhat agree,3,1698240998468,1698241008412,\Somewhat agree\,\Somewhat agree\,\3\,1698241007540,1698241007540,9072,9072,9944,buq,qns-item-noham,48,330343,0.0-1.0-0.47
"<b>False information is unavoidable, to some extent.",Highly disagree,49/150,Highly agree,4,1698241008416,1698241012138,\Highly agree\,\Highly agree\,\4\,1698241010670,1698241010670,2254,2254,3722,buq,qns-item-noham,49,334069,0.0-1.0-0.48
<b>My moral compass sometimes makes it harder to determine what?s true.,Highly disagree,50/150,Somewhat disagree,2,1698241012147,1698241016416,\Somewhat disagree\,\Somewhat disagree\,\2\,1698241015444,1698241015444,3297,3297,4269,buq,qns-item-noham,50,338347,0.0-1.0-0.49
"<b>When you disagree with someone, it?s important to listen to them carefully.",Highly disagree,51/150,Highly agree,4,1698241016421,1698241072685,\Highly agree\,\Highly agree\,\4\,1698241070831,1698241070831,54410,54410,56264,buq,qns-item-noham,51,394617,0.0-1.0-0.50
<b>Evidence pointing in the wrong direction isn?t really evidence at all.,Highly disagree,52/150,Highly agree,4,1698241072690,1698241079751,\Highly agree\,\Highly agree\,\4\,1698241078814,1698241078814,6124,6124,7061,buq,qns-item-noham,52,401682,0.0-1.0-0.51
"<b>If the political party I support messes up, it makes me think politics is rotten.",Highly disagree,53/150,Somewhat agree,3,1698241079755,1698241086442,\Somewhat agree\,\Somewhat agree\,\3\,1698241084102,1698241084102,4347,4347,6687,buq,qns-item-noham,53,408373,0.0-1.0-0.52
<b>Lots of important topics can only really be understood by some groups of people.,Highly disagree,54/150,Somewhat disagree,2,1698241086449,1698241093913,\Somewhat disagree\,\Somewhat disagree\,\2\,1698241092351,1698241092351,5902,5902,7464,buq,qns-item-noham,54,415844,0.0-1.0-0.53
<b>Details almost always matter for being right about something.,Highly disagree,55/150,Somewhat agree,3,1698241093920,1698241098512,\Somewhat agree\,\Somewhat agree\,\3\,1698241097713,1698241097713,3793,3793,4592,buq,qns-item-noham,55,420443,0.0-1.0-0.54
"<b>The most important thing in politics is winning, not convincing people.",Highly disagree,56/150,Highly disagree,1,1698241098517,1698241116960,\Highly disagree\,\Highly disagree\,\1\,1698241114593,1698241114593,16076,16076,18443,buq,qns-item-noham,56,438891,0.0-1.0-0.55
<b>Having conflicting beliefs means you haven?t thought about them enough.,Highly disagree,57/150,Highly disagree,1,1698241116967,1698241126606,\Highly disagree\,\Highly disagree\,\1\,1698241125618,1698241125618,8651,8651,9639,buq,qns-item-noham,57,448537,0.0-1.0-0.56
<b>Other people have sometimes convinced me to change my mind on important topics.,Highly disagree,58/150,Somewhat agree,3,1698241126611,1698241131315,\Somewhat agree\,\Somewhat agree\,\3\,1698241130467,1698241130467,3856,3856,4704,buq,qns-item-noham,58,453246,0.0-1.0-0.57
<b>I do not often change my political opinions.,Highly disagree,59/150,Somewhat agree,3,1698241131323,1698241136131,\Somewhat agree\,\Somewhat agree\,\3\,1698241135279,1698241135279,3956,3956,4808,buq,qns-item-noham,59,458063,0.0-1.0-0.58
<b>Thinking about how different things relate to one another is critical in life.,Highly disagree,60/150,Highly agree,4,1698241136136,1698241179451,\Highly agree\,\Highly agree\,\4\,1698241178568,1698241178568,42432,42432,43315,buq,qns-item-noham,60,501382,0.0-1.0-0.59
<b>True beliefs can have unfortunate implications.,Highly disagree,61/150,Somewhat agree,3,1698241179456,1698241184989,\Somewhat agree\,\Somewhat agree\,\3\,1698241183549,1698241183549,4093,4093,5533,buq,qns-item-noham,61,506920,0.0-1.0-0.60
<b>It?s difficult to not have at least some conflicting beliefs.,Highly disagree,62/150,Somewhat agree,3,1698241184997,1698241188223,\Somewhat agree\,\Somewhat agree\,\3\,1698241187443,1698241187443,2446,2446,3226,buq,qns-item-noham,62,510154,0.0-1.0-0.61
"<b>When I learn new things, I think deeply about how my opinions should change.",Highly disagree,63/150,Highly agree,4,1698241188230,1698241194057,\Highly agree\,\Highly agree\,\4\,1698241193353,1698241193353,5123,5123,5827,buq,qns-item-noham,63,515988,0.0-1.0-0.62
<b>I think a lot about how to interpret different sorts of evidence.,Highly disagree,64/150,Highly agree,4,1698241194062,1698241198895,\Highly agree\,\Highly agree\,\4\,1698241197167,1698241197167,3105,3105,4833,buq,qns-item-noham,64,520826,0.0-1.0-0.63
<b>Politics is about thinking together and finding compromises.,Highly disagree,65/150,Highly agree,4,1698241198902,1698242187235,\Highly agree\,\Highly agree\,\4\,1698242186186,1698242186186,987284,987284,988333,buq,qns-item-noham,65,1509167,0.0-1.0-0.64
<b>Wishful thinking causes a lot of problems.,Highly disagree,66/150,Highly agree,4,1698242187247,1698242191536,\Highly agree\,\Highly agree\,\4\,1698242190698,1698242190698,3451,3451,4289,buq,qns-item-noham,66,1513467,0.0-1.0-0.65
<b>I judge a food item only once I try it many times.,Highly disagree,67/150,Somewhat agree,3,1698242191544,1698242200208,\Somewhat agree\,\Somewhat agree\,\3\,1698242198224,1698242198224,6680,6680,8664,buq,qns-item-noham,67,1522140,0.0-1.0-0.66
"<b>When a person holds conflicting beliefs, they should really try to figure out what?s wrong.",Highly disagree,68/150,Somewhat agree,3,1698242200218,1698242229583,\Somewhat agree\,\Somewhat agree\,\3\,1698242228526,1698242228526,28308,28308,29365,buq,qns-item-noham,68,1551514,0.0-1.0-0.67
<b>Knowing what?s important in life is easy.,Highly disagree,69/150,Highly agree,4,1698242229588,1698242238143,\Somewhat disagree\,\Highly agree\,\2\,1698242232236,1698242237059,2648,7471,8555,buq,qns-item-noham,69,1560074,0.0-1.0-0.68
<b>Lots of smart people disagree about basic political questions.,Highly disagree,70/150,Highly agree,4,1698242238150,1698242241109,\Highly agree\,\Highly agree\,\4\,1698242240301,1698242240301,2151,2151,2959,buq,qns-item-noham,70,1563040,0.0-1.0-0.69
<b>I swim across the Atlantic Ocean to get to work every day.,Highly disagree,71/150,Highly disagree,1,1698242241114,1698242244094,\Highly disagree\,\Highly disagree\,\1\,1698242243005,1698242243005,1891,1891,2980,buq,qns-item-noham,71,1566025,0.0-1.0-0.70
"<b>Sometimes, you just have to ignore evidence that you know is wrong.",Highly disagree,72/150,Somewhat agree,3,1698242244100,1698242251338,\Somewhat agree\,\Somewhat agree\,\3\,1698242250526,1698242250526,6426,6426,7238,buq,qns-item-noham,72,1573269,0.0-1.0-0.71
<b>I have had some false beliefs.,Highly disagree,73/150,Somewhat disagree,2,1698242251343,1698242257851,\Somewhat disagree\,\Somewhat disagree\,\2\,1698242256073,1698242256073,4730,4730,6508,buq,qns-item-noham,73,1579783,0.0-1.0-0.72
"<b>If one friend does something that upsets me, I sometimes start to distrust people in general.",Highly disagree,74/150,Somewhat agree,3,1698242257859,1698242261808,\Somewhat agree\,\Somewhat agree\,\3\,1698242260848,1698242260848,2989,2989,3949,buq,qns-item-noham,74,1583739,0.0-1.0-0.73
<b>I easily apply what I learn in one situation to another.,Highly disagree,75/150,Highly agree,4,1698242261813,1698242267745,\Highly agree\,\Highly agree\,\4\,1698242266959,1698242266959,5146,5146,5932,buq,qns-item-noham,75,1589676,0.0-1.0-0.74
<b>The facts about most important matters are easy to find.,Highly disagree,76/150,Somewhat disagree,2,1698242267753,1698242273906,\Somewhat disagree\,\Somewhat disagree\,\2\,1698242273123,1698242273123,5370,5370,6153,buq,qns-item-noham,76,1595837,0.0-1.0-0.75
<b>It?s better to know what?s true than to know what?s moral.,Highly disagree,77/150,Somewhat disagree,2,1698242273914,1698242282371,\Somewhat disagree\,\Somewhat disagree\,\2\,1698242279321,1698242279321,5407,5407,8457,buq,qns-item-noham,77,1604303,0.0-1.0-0.76
<b>It?s good to be skeptical of people you agree with.,Highly disagree,78/150,Somewhat agree,3,1698242282378,1698242286367,\Somewhat agree\,\Somewhat agree\,\3\,1698242285534,1698242285534,3156,3156,3989,buq,qns-item-noham,78,1608299,0.0-1.0-0.77
<b>Sometimes reasonable beliefs are wrong.,Highly disagree,79/150,Somewhat agree,3,1698242286373,1698242289481,\Somewhat agree\,\Somewhat agree\,\3\,1698242288585,1698242288585,2212,2212,3108,buq,qns-item-noham,79,1611412,0.0-1.0-0.78
<b>I used to think the world was less complicated than I do now.,Highly disagree,80/150,Highly agree,4,1698242289485,1698242294094,\Highly agree\,\Highly agree\,\4\,1698242291842,1698242291842,2357,2357,4609,buq,qns-item-noham,80,1616026,0.0-1.0-0.79
<b>People are usually completely right or completely wrong.,Highly disagree,81/150,Highly disagree,1,1698242294102,1698242297289,\Highly disagree\,\Highly disagree\,\1\,1698242296461,1698242296461,2359,2359,3187,buq,qns-item-noham,81,1619221,0.0-1.0-0.80
<b>I spend a lot of time considering alternatives to my beliefs.,Highly disagree,82/150,Somewhat agree,3,1698242297294,1698242300601,\Somewhat agree\,\Somewhat agree\,\3\,1698242299800,1698242299800,2506,2506,3307,buq,qns-item-noham,82,1622532,0.0-1.0-0.81
"<b>Political enemies need to be defeated, not convinced.",Highly disagree,83/150,Somewhat disagree,2,1698242300606,1698242307650,\Highly disagree\,\Somewhat disagree\,\1\,1698242304515,1698242306864,3909,6258,7044,buq,qns-item-noham,83,1629581,0.0-1.0-0.82
"<b>When forming an opinion about a restaurant, I am more swayed by my  latest meal there than  previous meals I?ve had there.",Highly disagree,84/150,Somewhat disagree,2,1698242307658,1698242345083,\Somewhat disagree\,\Somewhat disagree\,\2\,1698242342492,1698242342492,34834,34834,37425,buq,qns-item-noham,84,1667014,0.0-1.0-0.83
<b>I try to remain skeptical about most topics.,Highly disagree,85/150,Somewhat agree,3,1698242345091,1698242348659,\Somewhat agree\,\Somewhat agree\,\3\,1698242347741,1698242347741,2650,2650,3568,buq,qns-item-noham,85,1670590,0.0-1.0-0.84
<b>Being wrong is usually obvious in retrospect.,Highly disagree,86/150,Somewhat agree,3,1698242348663,1698242353515,\Somewhat agree\,\Somewhat agree\,\3\,1698242351903,1698242351903,3240,3240,4852,buq,qns-item-noham,86,1675446,0.0-1.0-0.85
<b>It can be hard to realize that my beliefs are in conflict.,Highly disagree,87/150,Somewhat agree,3,1698242353524,1698242369633,\Somewhat agree\,\Somewhat agree\,\3\,1698242356714,1698242356714,3190,3190,16109,buq,qns-item-noham,87,1691565,0.0-1.0-0.86
<b>I form my political views only after meticulously gathering historical and present information about their policies.,Highly disagree,88/150,Somewhat agree,3,1698242369643,1698242379353,\Somewhat agree\,\Somewhat agree\,\3\,1698242375372,1698242375372,5729,5729,9710,buq,qns-item-noham,88,1701284,0.0-1.0-0.87
<b>Skeptical people are usually just bad-tempered.,Highly disagree,89/150,Highly disagree,1,1698242379360,1698242384925,\Highly disagree\,\Highly disagree\,\1\,1698242383680,1698242383680,4320,4320,5565,buq,qns-item-noham,89,1706856,0.0-1.0-0.88
<b>It is difficult for me to remember the last time I was surprised by politics.,Highly disagree,90/150,Somewhat disagree,2,1698242384932,1698242391101,\Somewhat disagree\,\Somewhat disagree\,\2\,1698242388570,1698242388570,3638,3638,6169,buq,qns-item-noham,90,1713032,0.0-1.0-0.89
"<b>When I find out I?m wrong, I think a lot about my related beliefs.",Highly disagree,91/150,Somewhat agree,3,1698242391110,1698242430213,\Somewhat agree\,\Somewhat agree\,\3\,1698242429053,1698242429053,37943,37943,39103,buq,qns-item-noham,91,1752144,0.0-1.0-0.90
"<b>If the political party I support messes up, it makes me think you can?t trust anyone these days",Highly disagree,92/150,Somewhat agree,3,1698242430223,1698242434147,\Somewhat agree\,\Somewhat agree\,\3\,1698242433058,1698242433058,2835,2835,3924,buq,qns-item-noham,92,1756079,0.0-1.0-0.91
<b>People?s brains turn off when they talk about politics.,Highly disagree,93/150,Somewhat agree,3,1698242434154,1698242441836,\Somewhat agree\,\Somewhat agree\,\3\,1698242440999,1698242440999,6845,6845,7682,buq,qns-item-noham,93,1763768,0.0-1.0-0.92
<b>People who are wrong are usually just ignoring the obvious.,Highly disagree,94/150,Somewhat disagree,2,1698242441844,1698242447571,\Somewhat disagree\,\Somewhat disagree\,\2\,1698242445407,1698242445407,3563,3563,5727,buq,qns-item-noham,94,1769502,0.0-1.0-0.93
"<b>The world isn?t that complicated, but it?s still hard to figure out how it works.",Highly disagree,95/150,Somewhat disagree,2,1698242447577,1698242455492,\Somewhat disagree\,\Somewhat disagree\,\2\,1698242454609,1698242454609,7032,7032,7915,buq,qns-item-noham,95,1777423,0.0-1.0-0.94
"<b>When forming my views on people, I rely more on what they are like now rather than rely on my past experience with them.",Highly disagree,96/150,Somewhat disagree,2,1698242455497,1698242462631,\Somewhat disagree\,\Somewhat disagree\,\2\,1698242461676,1698242461676,6179,6179,7134,buq,qns-item-noham,96,1784562,0.0-1.0-0.95
"<b>When people contradict my beliefs, I usually know about their evidence already.",Highly disagree,97/150,Somewhat agree,3,1698242462636,1698242468444,\Somewhat agree\,\Somewhat agree\,\3\,1698242466395,1698242466395,3759,3759,5808,buq,qns-item-noham,97,1790375,0.0-1.0-0.96
<b>Being wrong is a matter of degree.,Highly disagree,98/150,Somewhat agree,3,1698242468450,1698242473403,\Somewhat agree\,\Somewhat agree\,\3\,1698242472056,1698242472056,3606,3606,4953,buq,qns-item-noham,98,1795335,0.0-1.0-0.97
<b>Figuring out what?s true and what?s false mainly requires a strong moral compass.,Highly disagree,99/150,Somewhat disagree,2,1698242473410,1698242482069,\Somewhat disagree\,\Somewhat disagree\,\2\,1698242481198,1698242481198,7788,7788,8659,buq,qns-item-noham,99,1804000,0.0-1.0-0.98
<b>Most of the beliefs people have are at least somewhat understandable.,Highly disagree,100/150,Highly agree,4,1698242482074,1698242488969,\Somewhat agree\,\Highly agree\,\3\,1698242485529,1698242487636,3455,5562,6895,buq,qns-item-noham,100,1810900,0.0-1.0-0.99
"<b>Usually I?m wrong about simple things, not complicated ones.",Highly disagree,101/150,Highly disagree,1,1698242488976,1698242501886,\Highly disagree\,\Highly disagree\,\1\,1698242501133,1698242501133,12157,12157,12910,buq,qns-item-noham,101,1823817,0.0-1.0-0.100
<b>Getting all the information I want about important things is hard.,Highly disagree,102/150,Somewhat agree,3,1698242501891,1698242507302,\Somewhat agree\,\Somewhat agree\,\3\,1698242506027,1698242506027,4136,4136,5411,buq,qns-item-noham,102,1829233,0.0-1.0-0.101
<b>Most false beliefs spread because people try to deceive one another.,Highly disagree,103/150,Somewhat disagree,2,1698242507308,1698242511910,\Somewhat disagree\,\Somewhat disagree\,\2\,1698242511050,1698242511050,3742,3742,4602,buq,qns-item-noham,103,1833841,0.0-1.0-0.102
<b>I can usually find something to agree with in most people?s beliefs.,Highly disagree,104/150,Somewhat agree,3,1698242511915,1698242520423,\Somewhat agree\,\Somewhat agree\,\3\,1698242515886,1698242515886,3971,3971,8508,buq,qns-item-noham,104,1842354,0.0-1.0-0.103
<b>I only form my views of people once I get to know them very well.,Highly disagree,105/150,Somewhat disagree,2,1698242520430,1698242546000,\Somewhat disagree\,\Somewhat disagree\,\2\,1698242544619,1698242544619,24189,24189,25570,buq,qns-item-noham,105,1867932,0.0-1.0-0.104
"<b>When people tell me important things about the world, I usually believe them.",Highly disagree,106/150,Somewhat agree,3,1698242546007,1698242552199,\Somewhat agree\,\Somewhat agree\,\3\,1698242550405,1698242550405,4398,4398,6192,buq,qns-item-noham,106,1874130,0.0-1.0-0.105
"<b>If a friend does something that upsets me, it reminds me what an unpredictable place the world is.",Highly disagree,107/150,Highly agree,4,1698242552206,1698242558516,\Highly agree\,\Highly agree\,\4\,1698242557660,1698242557660,5454,5454,6310,buq,qns-item-noham,107,1880448,0.0-1.0-0.106
<b>Having some conflicting beliefs is inevitable.,Highly disagree,108/150,Somewhat agree,3,1698242558523,1698242561413,\Somewhat agree\,\Somewhat agree\,\3\,1698242560638,1698242560638,2115,2115,2890,buq,qns-item-noham,108,1883344,0.0-1.0-0.107
<b>People are wrong because they haven?t thought much about things.,Highly disagree,109/150,Somewhat disagree,2,1698242561417,1698242564513,\Somewhat disagree\,\Somewhat disagree\,\2\,1698242563611,1698242563611,2194,2194,3096,buq,qns-item-noham,109,1886444,0.0-1.0-0.108
<b>People tend to believe whatever is good for their friends.,Highly disagree,110/150,Somewhat agree,3,1698242564523,1698242569185,\Somewhat agree\,\Somewhat agree\,\3\,1698242567847,1698242567847,3324,3324,4662,buq,qns-item-noham,110,1891116,0.0-1.0-0.109
"<b>When I talk about important topics, I try to make sure people know I?m not always right.",Highly disagree,111/150,Somewhat disagree,2,1698242569191,1698242576541,\Somewhat agree\,\Somewhat disagree\,\3\,1698242573050,1698242575542,3859,6351,7350,buq,qns-item-noham,111,1898473,0.0-1.0-0.110
<b>I used to be more certain my beliefs were true.,Highly disagree,112/150,Somewhat agree,3,1698242576548,1698242582380,\Somewhat agree\,\Somewhat agree\,\3\,1698242580567,1698242580567,4019,4019,5832,buq,qns-item-noham,112,1904311,0.0-1.0-0.111
<b>It?s often pretty easy to figure out whether something is true based on who said it.,Highly disagree,113/150,Somewhat agree,3,1698242582386,1698242589286,\Somewhat agree\,\Somewhat agree\,\3\,1698242585608,1698242585608,3222,3222,6900,buq,qns-item-noham,113,1911218,0.0-1.0-0.112
<b>Having bad food in my favorite restaurant will make me think the restaurant is no longer good.,Highly disagree,114/150,Somewhat agree,3,1698242589294,1698242605334,\Somewhat agree\,\Somewhat agree\,\3\,1698242599627,1698242599627,10333,10333,16040,buq,qns-item-noham,114,1927266,0.0-1.0-0.113
<b>I transform into a hummingbird every day.,Highly disagree,115/150,Highly disagree,1,1698242605345,1698242608014,\Highly disagree\,\Highly disagree\,\1\,1698242607116,1698242607116,1771,1771,2669,buq,qns-item-noham,115,1929946,0.0-1.0-0.114
"<b>Unfortunately, when people are wrong, it?s usually because they?re bad.",Highly disagree,116/150,Highly disagree,1,1698242608021,1698242612701,\Highly disagree\,\Highly disagree\,\1\,1698242611354,1698242611354,3333,3333,4680,buq,qns-item-noham,116,1934632,0.0-1.0-0.115
<b>I think a lot about arguments against my views.,Highly disagree,117/150,Highly agree,4,1698242612707,1698242617003,\Highly agree\,\Highly agree\,\4\,1698242615744,1698242615744,3037,3037,4296,buq,qns-item-noham,117,1938935,0.0-1.0-0.116
<b>Details tend to matter a lot for knowing whether a policy is good.,Highly disagree,118/150,Somewhat agree,3,1698242617012,1698242630135,\Somewhat agree\,\Somewhat agree\,\3\,1698242620580,1698242620580,3568,3568,13123,buq,qns-item-noham,118,1952067,0.0-1.0-0.117
<b>Personal experience is usually more important than facts and figures.,Highly disagree,119/150,Somewhat disagree,2,1698242630142,1698242650755,\Somewhat disagree\,\Somewhat disagree\,\2\,1698242649767,1698242649767,19625,19625,20613,buq,qns-item-noham,119,1972686,0.0-1.0-0.118
<b>I?ve been tricked before about important matters.,Highly disagree,120/150,Somewhat agree,3,1698242650762,1698242653836,\Somewhat agree\,\Somewhat agree\,\3\,1698242653045,1698242653045,2283,2283,3074,buq,qns-item-noham,120,1975767,0.0-1.0-0.119
<b>I would need to be totally wowed if I were to change my opinion of a restaurant I don?t like.,Highly disagree,121/150,Somewhat agree,3,1698242653843,1698242660220,\Somewhat agree\,\Somewhat agree\,\3\,1698242658722,1698242658722,4879,4879,6377,buq,qns-item-noham,121,1982151,0.0-1.0-0.120
<b>I care a lot about politics.,Highly disagree,122/150,Somewhat agree,3,1698242660225,1698242662960,\Somewhat agree\,\Somewhat agree\,\3\,1698242662036,1698242662036,1811,1811,2735,buq,qns-item-noham,122,1984891,0.0-1.0-0.121
<b>People with conflicting beliefs usually have some facts they disagree on.,Highly disagree,123/150,Highly agree,4,1698242662968,1698242669081,\Highly agree\,\Highly agree\,\4\,1698242667844,1698242667844,4876,4876,6113,buq,qns-item-noham,123,1991012,0.0-1.0-0.122
<b>There are some topics I?ve been really wrong about.,Highly disagree,124/150,Somewhat agree,3,1698242669087,1698242673750,\Somewhat agree\,\Somewhat agree\,\3\,1698242672681,1698242672681,3594,3594,4663,buq,qns-item-noham,124,1995681,0.0-1.0-0.123
<b>Most beliefs can be supported with at least some evidence.,Highly disagree,125/150,Somewhat disagree,2,1698242673755,1698242677689,\Somewhat disagree\,\Somewhat disagree\,\2\,1698242676898,1698242676898,3143,3143,3934,buq,qns-item-noham,125,1999621,0.0-1.0-0.124
<b>Other people make life out to be more complicated than it really is.,Highly disagree,126/150,Somewhat disagree,2,1698242677694,1698242681080,\Somewhat disagree\,\Somewhat disagree\,\2\,1698242680347,1698242680347,2653,2653,3386,buq,qns-item-noham,126,2003011,0.0-1.0-0.125
"<b>My political views are being shaped continuously as I gather more information, rather than relying on what I?ve known to be true of my party in the past. ",Highly disagree,127/150,Highly agree,4,1698242681084,1698242688831,\Somewhat agree\,\Highly agree\,\3\,1698242686287,1698242687586,5203,6502,7747,buq,qns-item-noham,127,2010762,0.0-1.0-0.126
<b>It?s pretty unusual for true things to seem false.,Highly disagree,128/150,Somewhat disagree,2,1698242688838,1698242694222,\Somewhat disagree\,\Somewhat disagree\,\2\,1698242692222,1698242692222,3384,3384,5384,buq,qns-item-noham,128,2016154,0.0-1.0-0.127
"<b>Policy details don?t matter much, just the big picture.",Highly disagree,129/150,Somewhat disagree,2,1698242694229,1698242699437,\Somewhat disagree\,\Somewhat disagree\,\2\,1698242696440,1698242696440,2211,2211,5208,buq,qns-item-noham,129,2021368,0.0-1.0-0.128
<b>I know my friends so well they can hardly ever surprise me.,Highly disagree,130/150,Highly disagree,1,1698242699445,1698242702955,\Highly disagree\,\Highly disagree\,\1\,1698242701601,1698242701601,2156,2156,3510,buq,qns-item-noham,130,2024886,0.0-1.0-0.129
"<b>When I talk to people, I often think about why they have the beliefs they do.",Highly disagree,131/150,Somewhat agree,3,1698242702961,1698242710016,\Somewhat agree\,\Somewhat agree\,\3\,1698242709184,1698242709184,6223,6223,7055,buq,qns-item-noham,131,2031947,0.0-1.0-0.130
<b>I do not often change my views on people.,Highly disagree,132/150,Somewhat disagree,2,1698242710023,1698242726525,\Somewhat disagree\,\Somewhat disagree\,\2\,1698242716852,1698242716852,6829,6829,16502,buq,qns-item-noham,132,2048456,0.0-1.0-0.131
<b>I often wish I had more time to spend figuring out what?s true and what?s false in life.,Highly disagree,133/150,Somewhat agree,3,1698242726530,1698242730497,\Somewhat agree\,\Somewhat agree\,\3\,1698242729581,1698242729581,3051,3051,3967,buq,qns-item-noham,133,2052428,0.0-1.0-0.132
<b>I?m more certain about my beliefs than I used to be.,Highly disagree,134/150,Somewhat agree,3,1698242730503,1698242736767,\Somewhat disagree\,\Somewhat agree\,\2\,1698242733162,1698242735692,2659,5189,6264,buq,qns-item-noham,134,2058698,0.0-1.0-0.133
"<b>Whenever I find out new information, I update my views on politics accordingly.",Highly disagree,135/150,Somewhat agree,3,1698242736771,1698242740370,\Somewhat agree\,\Somewhat agree\,\3\,1698242739616,1698242739616,2845,2845,3599,buq,qns-item-noham,135,2062301,0.0-1.0-0.134
<b>People often tell falsehoods unintentionally.,Highly disagree,136/150,Highly agree,4,1698242740375,1698242744256,\Highly agree\,\Highly agree\,\4\,1698242743050,1698242743050,2675,2675,3881,buq,qns-item-noham,136,2066187,0.0-1.0-0.135
<b>Most people don?t know much about most things.,Highly disagree,137/150,Highly agree,4,1698242744264,1698242748257,\Highly agree\,\Highly agree\,\4\,1698242747454,1698242747454,3190,3190,3993,buq,qns-item-noham,137,2070188,0.0-1.0-0.136
"<b>If I find out something new about someone, I easily change my views about them.",Highly disagree,138/150,Somewhat agree,3,1698242748262,1698242755704,\Somewhat agree\,\Somewhat agree\,\3\,1698242754415,1698242754415,6153,6153,7442,buq,qns-item-noham,138,2077635,0.0-1.0-0.137
<b>Having true beliefs is difficult.,Highly disagree,139/150,Somewhat agree,3,1698242755710,1698242790173,\Somewhat agree\,\Somewhat agree\,\3\,1698242788805,1698242788805,33095,33095,34463,buq,qns-item-noham,139,2112105,0.0-1.0-0.138
<b>I don?t try new foods since I know I won?t like them.,Highly disagree,140/150,Highly disagree,1,1698242790181,1698242793648,\Highly disagree\,\Highly disagree\,\1\,1698242792102,1698242792102,1921,1921,3467,buq,qns-item-noham,140,2115579,0.0-1.0-0.139
<b>It?s easy to figure out what?s true or false based on who?s saying it.,Highly disagree,141/150,Somewhat agree,3,1698242793656,1698242796700,\Somewhat agree\,\Somewhat agree\,\3\,1698242795634,1698242795634,1978,1978,3044,buq,qns-item-noham,141,2118632,0.0-1.0-0.140
<b>False things have seemed true to me many times.,Highly disagree,142/150,Somewhat agree,3,1698242796710,1698242799434,\Somewhat agree\,\Somewhat agree\,\3\,1698242798487,1698242798487,1777,1777,2724,buq,qns-item-noham,142,2121365,0.0-1.0-0.141
<b>It?s pretty easy to sort out what?s true and what?s false in life.,Highly disagree,143/150,Somewhat disagree,2,1698242799439,1698242802789,\Somewhat disagree\,\Somewhat disagree\,\2\,1698242801903,1698242801903,2464,2464,3350,buq,qns-item-noham,143,2124720,0.0-1.0-0.142
<b>Knowing lots of statistics about something is usually important for understanding it.,Highly disagree,144/150,Somewhat disagree,2,1698242802793,1698242808267,\Somewhat disagree\,\Somewhat disagree\,\2\,1698242806618,1698242806618,3825,3825,5474,buq,qns-item-noham,144,2130198,0.0-1.0-0.143
<b>Other people trick each other a lot.,Highly disagree,145/150,Highly agree,4,1698242808278,1698242810955,\Highly agree\,\Highly agree\,\4\,1698242810165,1698242810165,1887,1887,2677,buq,qns-item-noham,145,2132886,0.0-1.0-0.144
<b>I would need to learn a lot about a person for my opinion of them to be swayed.,Highly disagree,146/150,Somewhat disagree,2,1698242810960,1698242818826,\Somewhat disagree\,\Somewhat disagree\,\2\,1698242816870,1698242816870,5910,5910,7866,buq,qns-item-noham,146,2140757,0.0-1.0-0.145
<b>People can?t usually trick me when it comes to topics I care about.,Highly disagree,147/150,Highly agree,4,1698242818832,1698242823825,\Highly agree\,\Highly agree\,\4\,1698242823027,1698242823027,4195,4195,4993,buq,qns-item-noham,147,2145756,0.0-1.0-0.146
<b>I do not often change my views on food.,Highly disagree,148/150,Somewhat disagree,2,1698242823833,1698242827791,\Somewhat disagree\,\Somewhat disagree\,\2\,1698242826535,1698242826535,2702,2702,3958,buq,qns-item-noham,148,2149722,0.0-1.0-0.147
<b>Specific policies are often very important to me.,Highly disagree,149/150,Somewhat agree,3,1698242827797,1698242836714,\Somewhat agree\,\Somewhat agree\,\3\,1698242830117,1698242830117,2320,2320,8917,buq,qns-item-noham,149,2158645,0.0-1.0-0.148
<b>Most people are woefully under-informed.,Highly disagree,150/150,Highly agree,4,1698242836720,1698242840216,\Somewhat agree\,\Highly agree\,\3\,1698242838428,1698242839453,1708,2733,3496,buq,qns-item-noham,150,2162148,0.0-1.0-0.149
