Question,qns_options,quest_num,answer,answer_num,question_load_timestamp,next_btn_timestamp,text_selected,final_text_selected,option_num_selected,preview_timestamps,final_text_selected_time_stamp,rt_first_option_click,rt_final_option_click,rt_submit_click,questionnaire,trial_type,trial_index,time_elapsed,internal_node_id
<b>Considering other people?s perspectives can help us figure out what?s true or false.,Highly disagree,1/150,Highly agree,4,1698241469837,1698241479830,\Highly agree\,\Highly agree\,\4\,1698241478462,1698241478462,8625,8625,9993,buq,qns-item-noham,1,18812,0.0-1.0-0.0
<b>Knowing what?s true and knowing what to do about it are usually basically the same.,Highly disagree,2/150,Somewhat disagree,2,1698241479835,1698241485982,\Somewhat disagree\,\Somewhat disagree\,\2\,1698241485382,1698241485382,5547,5547,6147,buq,qns-item-noham,2,24964,0.0-1.0-0.1
<b>Most people just believe whatever is convenient for them.,Highly disagree,3/150,Highly agree,4,1698241485984,1698241490590,\Highly agree\,\Highly agree\,\4\,1698241489726,1698241489726,3742,3742,4606,buq,qns-item-noham,3,29572,0.0-1.0-0.2
<b>Even people who are wrong about most things can be right sometimes.,Highly disagree,4/150,Highly agree,4,1698241490591,1698241506247,\Highly agree\,\Highly agree\,\4\,1698241499030,1698241501598,8439,11007,15656,buq,qns-item-noham,4,45229,0.0-1.0-0.3
"<b>If the political party I support does something that upsets me, then the party may have changed, and I need to re-evaluate my support.",Highly disagree,5/150,Highly agree,4,1698241506248,1698241520462,\Somewhat agree\,\Highly agree\,\3\,1698241512942,1698241519526,6694,13278,14214,buq,qns-item-noham,5,59444,0.0-1.0-0.4
"<b>When people disagree, one side is usually completely right.",Highly disagree,6/150,Somewhat disagree,2,1698241520464,1698241525134,\Somewhat disagree\,\Somewhat disagree\,\2\,1698241523902,1698241523902,3438,3438,4670,buq,qns-item-noham,6,64116,0.0-1.0-0.5
<b>People have lots of false beliefs.,Highly disagree,7/150,Highly agree,4,1698241525136,1698241530014,\Highly agree\,\Highly agree\,\4\,1698241529262,1698241529262,4126,4126,4878,buq,qns-item-noham,7,68996,0.0-1.0-0.6
<b>Having some big beliefs helps me sort out minor ones.,Highly disagree,8/150,Somewhat disagree,2,1698241530017,1698241536222,\Somewhat disagree\,\Somewhat disagree\,\2\,1698241535230,1698241535230,5213,5213,6205,buq,qns-item-noham,8,75204,0.0-1.0-0.7
<b>Political questions are usually pretty complicated.,Highly disagree,9/150,Somewhat agree,3,1698241536224,1698241540246,\Somewhat agree\,\Somewhat agree\,\3\,1698241539574,1698241539574,3350,3350,4022,buq,qns-item-noham,9,79228,0.0-1.0-0.8
<b>Figuring out what?s important in life requires learning a lot of facts.,Highly disagree,10/150,Highly agree,4,1698241540247,1698241545342,\Highly agree\,\Highly agree\,\4\,1698241543990,1698241543990,3743,3743,5095,buq,qns-item-noham,10,84324,0.0-1.0-0.9
<b>It is difficult for me to remember the last time I was surprised by politics.,Highly disagree,11/150,Somewhat agree,3,1698241545343,1698241569390,\Somewhat agree\,\Somewhat agree\,\3\,1698241568366,1698241568366,23023,23023,24047,buq,qns-item-noham,11,108372,0.0-1.0-0.10
<b>People?s false beliefs are understandable.,Highly disagree,12/150,Highly disagree,1,1698241569391,1698241572725,\Highly disagree\,\Highly disagree\,\1\,1698241571758,1698241571758,2367,2367,3334,buq,qns-item-noham,12,111707,0.0-1.0-0.11
<b>I spend a lot of time trying to be informed about politics.,Highly disagree,13/150,Somewhat agree,3,1698241572727,1698241579957,\Somewhat disagree\,\Somewhat agree\,\2\,1698241576101,1698241576829,3374,4102,7230,buq,qns-item-noham,13,118939,0.0-1.0-0.12
<b>I think a lot about whether my beliefs are right.,Highly disagree,14/150,Somewhat agree,3,1698241579959,1698241586749,\Somewhat agree\,\Somewhat agree\,\3\,1698241585613,1698241585613,5654,5654,6790,buq,qns-item-noham,14,125731,0.0-1.0-0.13
<b>Statistics can be pretty misleading sometimes.,Highly disagree,15/150,Highly agree,4,1698241586751,1698241589797,\Highly agree\,\Highly agree\,\4\,1698241589062,1698241589062,2311,2311,3046,buq,qns-item-noham,15,128779,0.0-1.0-0.14
<b>Figuring out what?s true and what?s false takes a lot of time and effort.,Highly disagree,16/150,Somewhat agree,3,1698241589799,1698241596830,\Somewhat agree\,\Somewhat agree\,\3\,1698241594365,1698241594365,4566,4566,7031,buq,qns-item-noham,16,135812,0.0-1.0-0.15
"<b>If a friend does something bad to me, it was likely an error on their part.",Highly disagree,17/150,Highly agree,4,1698241596831,1698241608973,\Highly agree\,\Highly agree\,\4\,1698241605021,1698241605021,8190,8190,12142,buq,qns-item-noham,17,147955,0.0-1.0-0.16
<b>I have lots of beliefs that I?m only sort of sure about.,Highly disagree,18/150,Somewhat disagree,2,1698241608975,1698241615301,\Somewhat disagree\,\Somewhat disagree\,\2\,1698241614533,1698241614533,5558,5558,6326,buq,qns-item-noham,18,154283,0.0-1.0-0.17
"<b>If I go to my favorite restaurant and the food is surprisingly bad, it reminds me there are many disappointments in life.",Highly disagree,19/150,Highly agree,4,1698241615302,1698241621661,\Somewhat agree\,\Highly agree\,\3\,1698241619469,1698241620093,4167,4791,6359,buq,qns-item-noham,19,160643,0.0-1.0-0.18
<b>Sometimes my beliefs are inconvenient for me.,Highly disagree,20/150,Somewhat agree,3,1698241621662,1698241625029,\Somewhat agree\,\Somewhat agree\,\3\,1698241623861,1698241623861,2199,2199,3367,buq,qns-item-noham,20,164011,0.0-1.0-0.19
<b>Paying attention to multiple news sources is important.,Highly disagree,21/150,Somewhat disagree,2,1698241625030,1698241630733,\Somewhat disagree\,\Somewhat disagree\,\2\,1698241628862,1698241628862,3832,3832,5703,buq,qns-item-noham,21,169715,0.0-1.0-0.20
"<b>If you are paying attention, please select ?Somewhat agree?",Highly disagree,22/150,Somewhat agree,3,1698241630735,1698241633589,\Somewhat agree\,\Somewhat agree\,\3\,1698241632926,1698241632926,2191,2191,2854,buq,qns-item-noham,22,172572,0.0-1.0-0.21
"<b>When I talk to others, I often worry I?ll convince them of something I didn?t mean to.",Highly disagree,23/150,Highly disagree,1,1698241633591,1698241666693,\Highly disagree\,\Highly disagree\,\1\,1698241666118,1698241666118,32527,32527,33102,buq,qns-item-noham,23,205675,0.0-1.0-0.22
<b>I would need to learn something utterly shocking about my party in order to change my political views.,Highly disagree,24/150,Somewhat agree,3,1698241666695,1698241672741,\Somewhat agree\,\Somewhat agree\,\3\,1698241671854,1698241671854,5159,5159,6046,buq,qns-item-noham,24,211723,0.0-1.0-0.23
"<b>When I have new experiences, I tend to think of them as unique.",Highly disagree,25/150,Somewhat disagree,2,1698241672743,1698241678461,\Somewhat disagree\,\Somewhat disagree\,\2\,1698241677661,1698241677661,4918,4918,5718,buq,qns-item-noham,25,217443,0.0-1.0-0.24
<b>Reading lots of things is important for understanding the world.,Highly disagree,26/150,Highly agree,4,1698241678463,1698241682038,\Highly agree\,\Highly agree\,\4\,1698241681461,1698241681461,2998,2998,3575,buq,qns-item-noham,26,221020,0.0-1.0-0.25
<b>The world is complicated.,Highly disagree,27/150,Highly agree,4,1698241682039,1698241684669,\Highly agree\,\Highly agree\,\4\,1698241684070,1698241684070,2031,2031,2630,buq,qns-item-noham,27,223651,0.0-1.0-0.26
<b>I change my mind about specific policies pretty frequently.,Highly disagree,28/150,Somewhat disagree,2,1698241684671,1698241689990,\Somewhat disagree\,\Somewhat disagree\,\2\,1698241687734,1698241687734,3063,3063,5319,buq,qns-item-noham,28,228972,0.0-1.0-0.27
"<b>If a politician in my political party supports something I disagree with, I give them the benefit of the doubt, as such issues often involve hidden complexities that aren?t obvious.   ",Highly disagree,29/150,Somewhat agree,3,1698241689991,1698241696465,\Somewhat agree\,\Somewhat agree\,\3\,1698241695830,1698241695830,5839,5839,6474,buq,qns-item-noham,29,235447,0.0-1.0-0.28
<b>People?s bad politics are usually motivated by hatefulness.,Highly disagree,30/150,Highly agree,4,1698241696466,1698241701246,\Highly agree\,\Highly agree\,\4\,1698241700238,1698241700238,3772,3772,4780,buq,qns-item-noham,30,240228,0.0-1.0-0.29
"<b>Most new experiences are just like old ones, but a little bit different.",Highly disagree,31/150,Somewhat agree,3,1698241701247,1698241709846,\Somewhat disagree\,\Somewhat agree\,\2\,1698241707086,1698241709262,5839,8015,8599,buq,qns-item-noham,31,248828,0.0-1.0-0.30
<b>I think a lot about how to reconcile my beliefs with one another.,Highly disagree,32/150,Somewhat agree,3,1698241709847,1698241713854,\Somewhat agree\,\Somewhat agree\,\3\,1698241713357,1698241713357,3510,3510,4007,buq,qns-item-noham,32,252836,0.0-1.0-0.31
<b>Personal experience rarely leads people astray.,Highly disagree,33/150,Somewhat disagree,2,1698241713856,1698241719637,\Somewhat disagree\,\Somewhat disagree\,\2\,1698241719021,1698241719021,5165,5165,5781,buq,qns-item-noham,33,258619,0.0-1.0-0.32
<b>I might have false beliefs about important topics.,Highly disagree,34/150,Somewhat disagree,2,1698241719639,1698241722925,\Somewhat disagree\,\Somewhat disagree\,\2\,1698241722294,1698241722294,2655,2655,3286,buq,qns-item-noham,34,261907,0.0-1.0-0.33
"<b>If a good friend of mine does something unexpected that upsets me, I feel like I don?t know them anymore.",Highly disagree,35/150,Highly disagree,1,1698241722927,1698241726629,\Highly disagree\,\Highly disagree\,\1\,1698241726101,1698241726101,3174,3174,3702,buq,qns-item-noham,35,265611,0.0-1.0-0.34
<b>Other people?s beliefs are often incoherent.,Highly disagree,36/150,Somewhat agree,3,1698241726631,1698241734719,\Somewhat agree\,\Somewhat agree\,\3\,1698241733653,1698241733653,7022,7022,8088,buq,qns-item-noham,36,273701,0.0-1.0-0.35
<b>It?s important to have friends who think about things differently than I do.,Highly disagree,37/150,Somewhat disagree,2,1698241734721,1698241738285,\Somewhat disagree\,\Somewhat disagree\,\2\,1698241737638,1698241737638,2917,2917,3564,buq,qns-item-noham,37,277267,0.0-1.0-0.36
"<b>Every now and then, a new experience will unsettle beliefs I?ve had for a while.",Highly disagree,38/150,Somewhat disagree,2,1698241738287,1698241754197,\Somewhat disagree\,\Somewhat disagree\,\2\,1698241753525,1698241753525,15238,15238,15910,buq,qns-item-noham,38,293179,0.0-1.0-0.37
<b>Some policies I agree with in principle are so bad I don?t support them. ,Highly disagree,39/150,Somewhat disagree,2,1698241754199,1698241764269,\Somewhat disagree\,\Somewhat disagree\,\2\,1698241763005,1698241763005,8806,8806,10070,buq,qns-item-noham,39,303251,0.0-1.0-0.38
<b>I?m pretty sure I?ve accidentally spread false information.,Highly disagree,40/150,Highly disagree,1,1698241764271,1698241767149,\Highly disagree\,\Highly disagree\,\1\,1698241766381,1698241766381,2110,2110,2878,buq,qns-item-noham,40,306131,0.0-1.0-0.39
"<b>If I go to my favorite restaurant and the food is unexpectedly bad, then they have changed owners.",Highly disagree,41/150,Somewhat disagree,2,1698241767151,1698241780373,\Highly disagree\,\Somewhat disagree\,\1\,1698241771877,1698241779493,4726,12342,13222,buq,qns-item-noham,41,319355,0.0-1.0-0.40
"<b>In politics, it?s important to trust your friends and family.",Highly disagree,42/150,Somewhat agree,3,1698241780375,1698241786174,\Somewhat agree\,\Somewhat agree\,\3\,1698241784245,1698241784245,3870,3870,5799,buq,qns-item-noham,42,325156,0.0-1.0-0.41
<b>It?s OK to have some conflicting beliefs.,Highly disagree,43/150,Somewhat disagree,2,1698241786175,1698241788996,\Somewhat disagree\,\Somewhat disagree\,\2\,1698241788461,1698241788461,2286,2286,2821,buq,qns-item-noham,43,327979,0.0-1.0-0.42
<b>Sometimes the details of a matter seem to conflict with the big picture.,Highly disagree,44/150,Highly agree,4,1698241788998,1698241795117,\Highly agree\,\Highly agree\,\4\,1698241793997,1698241793997,4999,4999,6119,buq,qns-item-noham,44,334099,0.0-1.0-0.43
<b>Listening to people I disagree with makes my opinions better.,Highly disagree,45/150,Somewhat agree,3,1698241795118,1698241804453,\Somewhat disagree\,\Somewhat agree\,\2\,1698241801517,1698241803516,6399,8398,9335,buq,qns-item-noham,45,343435,0.0-1.0-0.44
<b>Policies that sound bad are sometimes fine when you find out about their details.,Highly disagree,46/150,Somewhat agree,3,1698241804455,1698241810261,\Somewhat agree\,\Somewhat agree\,\3\,1698241809332,1698241809332,4877,4877,5806,buq,qns-item-noham,46,349243,0.0-1.0-0.45
"<b>The world is always changing, so my beliefs are sometimes out-dated.",Highly disagree,47/150,Somewhat disagree,2,1698241810263,1698241829293,\Somewhat disagree\,\Somewhat disagree\,\2\,1698241828533,1698241828533,18270,18270,19030,buq,qns-item-noham,47,368275,0.0-1.0-0.46
"<b>If I receive a bad meal at my favorite restaurant and the food is surprisingly bad, I do not think much of it, and assume the chef is just having an ?off? day.",Highly disagree,48/150,Highly agree,4,1698241829296,1698241844885,\Highly agree\,\Highly agree\,\4\,1698241842980,1698241842980,13684,13684,15589,buq,qns-item-noham,48,383867,0.0-1.0-0.47
"<b>False information is unavoidable, to some extent.",Highly disagree,49/150,Somewhat disagree,2,1698241844887,1698241851429,\Somewhat disagree\,\Somewhat disagree\,\2\,1698241850556,1698241850556,5669,5669,6542,buq,qns-item-noham,49,390411,0.0-1.0-0.48
<b>My moral compass sometimes makes it harder to determine what?s true.,Highly disagree,50/150,Highly disagree,1,1698241851431,1698241858949,\Highly disagree\,\Highly disagree\,\1\,1698241855628,1698241855628,4197,4197,7518,buq,qns-item-noham,50,397931,0.0-1.0-0.49
"<b>When you disagree with someone, it?s important to listen to them carefully.",Highly disagree,51/150,Somewhat agree,3,1698241858950,1698241863493,\Somewhat agree\,\Somewhat agree\,\3\,1698241862773,1698241862773,3823,3823,4543,buq,qns-item-noham,51,402475,0.0-1.0-0.50
<b>Evidence pointing in the wrong direction isn?t really evidence at all.,Highly disagree,52/150,Somewhat agree,3,1698241863496,1698241873957,\Somewhat agree\,\Somewhat agree\,\3\,1698241873413,1698241873413,9917,9917,10461,buq,qns-item-noham,52,412939,0.0-1.0-0.51
"<b>If the political party I support messes up, it makes me think politics is rotten.",Highly disagree,53/150,Somewhat agree,3,1698241873958,1698241878828,\Somewhat agree\,\Somewhat agree\,\3\,1698241878276,1698241878276,4318,4318,4870,buq,qns-item-noham,53,417810,0.0-1.0-0.52
<b>Lots of important topics can only really be understood by some groups of people.,Highly disagree,54/150,Highly agree,4,1698241878830,1698241887301,\Highly agree\,\Highly agree\,\4\,1698241884829,1698241884829,5999,5999,8471,buq,qns-item-noham,54,426283,0.0-1.0-0.53
<b>Details almost always matter for being right about something.,Highly disagree,55/150,Somewhat agree,3,1698241887302,1698241891469,\Somewhat agree\,\Somewhat agree\,\3\,1698241890148,1698241890148,2846,2846,4167,buq,qns-item-noham,55,430451,0.0-1.0-0.54
"<b>The most important thing in politics is winning, not convincing people.",Highly disagree,56/150,Highly disagree,1,1698241891471,1698241902092,\Highly disagree\,\Highly disagree\,\1\,1698241894148,1698241894148,2677,2677,10621,buq,qns-item-noham,56,441074,0.0-1.0-0.55
<b>Having conflicting beliefs means you haven?t thought about them enough.,Highly disagree,57/150,Somewhat agree,3,1698241902094,1698241907003,\Somewhat agree\,\Somewhat agree\,\3\,1698241905796,1698241905796,3702,3702,4909,buq,qns-item-noham,57,445985,0.0-1.0-0.56
<b>Other people have sometimes convinced me to change my mind on important topics.,Highly disagree,58/150,Somewhat disagree,2,1698241907005,1698241912493,\Highly disagree\,\Somewhat disagree\,\1\,1698241910572,1698241911908,3567,4903,5488,buq,qns-item-noham,58,451475,0.0-1.0-0.57
<b>I do not often change my political opinions.,Highly disagree,59/150,Somewhat agree,3,1698241912494,1698241915524,\Somewhat agree\,\Somewhat agree\,\3\,1698241914836,1698241914836,2342,2342,3030,buq,qns-item-noham,59,454506,0.0-1.0-0.58
<b>Thinking about how different things relate to one another is critical in life.,Highly disagree,60/150,Highly agree,4,1698241915526,1698241919804,\Highly agree\,\Highly agree\,\4\,1698241918908,1698241918908,3382,3382,4278,buq,qns-item-noham,60,458786,0.0-1.0-0.59
<b>True beliefs can have unfortunate implications.,Highly disagree,61/150,Somewhat agree,3,1698241919807,1698241926996,\Somewhat agree\,\Somewhat agree\,\3\,1698241925893,1698241925893,6086,6086,7189,buq,qns-item-noham,61,465978,0.0-1.0-0.60
<b>It?s difficult to not have at least some conflicting beliefs.,Highly disagree,62/150,Somewhat disagree,2,1698241926998,1698241930876,\Somewhat disagree\,\Somewhat disagree\,\2\,1698241930076,1698241930076,3078,3078,3878,buq,qns-item-noham,62,469858,0.0-1.0-0.61
"<b>When I learn new things, I think deeply about how my opinions should change.",Highly disagree,63/150,Somewhat agree,3,1698241930879,1698241958763,\Somewhat agree\,\Somewhat agree\,\3\,1698241957892,1698241957892,27013,27013,27884,buq,qns-item-noham,63,497745,0.0-1.0-0.62
<b>I think a lot about how to interpret different sorts of evidence.,Highly disagree,64/150,Highly agree,4,1698241958765,1698241974820,\Highly agree\,\Highly agree\,\4\,1698241973707,1698241973707,14942,14942,16055,buq,qns-item-noham,64,513802,0.0-1.0-0.63
<b>Politics is about thinking together and finding compromises.,Highly disagree,65/150,Somewhat agree,3,1698241974822,1698241980259,\Somewhat agree\,\Somewhat agree\,\3\,1698241979564,1698241979564,4742,4742,5437,buq,qns-item-noham,65,519241,0.0-1.0-0.64
<b>Wishful thinking causes a lot of problems.,Highly disagree,66/150,Somewhat agree,3,1698241980261,1698242022507,\Highly agree\,\Somewhat agree\,\4\,1698242021180,1698242021907,40919,41646,42246,buq,qns-item-noham,66,561489,0.0-1.0-0.65
<b>I judge a food item only once I try it many times.,Highly disagree,67/150,Somewhat disagree,2,1698242022509,1698242029971,\Highly agree\,\Somewhat disagree\,\4\,1698242027643,1698242029340,5134,6831,7462,buq,qns-item-noham,67,568953,0.0-1.0-0.66
"<b>When a person holds conflicting beliefs, they should really try to figure out what?s wrong.",Highly disagree,68/150,Highly agree,4,1698242029973,1698242032979,\Highly agree\,\Highly agree\,\4\,1698242032259,1698242032259,2286,2286,3006,buq,qns-item-noham,68,571961,0.0-1.0-0.67
<b>Knowing what?s important in life is easy.,Highly disagree,69/150,Somewhat agree,3,1698242032981,1698242039587,\Somewhat agree\,\Somewhat agree\,\3\,1698242036851,1698242039044,3870,6063,6606,buq,qns-item-noham,69,578569,0.0-1.0-0.68
<b>Lots of smart people disagree about basic political questions.,Highly disagree,70/150,Somewhat agree,3,1698242039589,1698242043739,\Somewhat agree\,\Somewhat agree\,\3\,1698242042835,1698242042835,3246,3246,4150,buq,qns-item-noham,70,582721,0.0-1.0-0.69
<b>I swim across the Atlantic Ocean to get to work every day.,Highly disagree,71/150,Highly disagree,1,1698242043741,1698242062106,\Highly disagree\,\Highly disagree\,\1\,1698242061371,1698242061371,17630,17630,18365,buq,qns-item-noham,71,601094,0.0-1.0-0.70
"<b>Sometimes, you just have to ignore evidence that you know is wrong.",Highly disagree,72/150,Somewhat agree,3,1698242062115,1698242077579,\Somewhat agree\,\Somewhat agree\,\3\,1698242076819,1698242076819,14704,14704,15464,buq,qns-item-noham,72,616561,0.0-1.0-0.71
<b>I have had some false beliefs.,Highly disagree,73/150,Highly disagree,1,1698242077581,1698242081083,\Highly disagree\,\Highly disagree\,\1\,1698242080003,1698242080003,2422,2422,3502,buq,qns-item-noham,73,620065,0.0-1.0-0.72
"<b>If one friend does something that upsets me, I sometimes start to distrust people in general.",Highly disagree,74/150,Somewhat disagree,2,1698242081084,1698242087811,\Somewhat disagree\,\Somewhat disagree\,\2\,1698242087011,1698242087011,5927,5927,6727,buq,qns-item-noham,74,626793,0.0-1.0-0.73
<b>I easily apply what I learn in one situation to another.,Highly disagree,75/150,Somewhat agree,3,1698242087812,1698242091363,\Somewhat agree\,\Somewhat agree\,\3\,1698242090667,1698242090667,2855,2855,3551,buq,qns-item-noham,75,630345,0.0-1.0-0.74
<b>The facts about most important matters are easy to find.,Highly disagree,76/150,Highly agree,4,1698242091365,1698242102459,\Highly agree\,\Highly agree\,\4\,1698242101595,1698242101595,10230,10230,11094,buq,qns-item-noham,76,641441,0.0-1.0-0.75
<b>It?s better to know what?s true than to know what?s moral.,Highly disagree,77/150,Somewhat agree,3,1698242102462,1698242126907,\Somewhat agree\,\Somewhat agree\,\3\,1698242125963,1698242125963,23501,23501,24445,buq,qns-item-noham,77,665889,0.0-1.0-0.76
<b>It?s good to be skeptical of people you agree with.,Highly disagree,78/150,Somewhat disagree,2,1698242126910,1698242161475,\Somewhat disagree\,\Somewhat disagree\,\2\,1698242158203,1698242158243,31293,31333,34565,buq,qns-item-noham,78,700457,0.0-1.0-0.77
<b>Sometimes reasonable beliefs are wrong.,Highly disagree,79/150,Somewhat agree,3,1698242161477,1698242166395,\Somewhat agree\,\Somewhat agree\,\3\,1698242165763,1698242165763,4286,4286,4918,buq,qns-item-noham,79,705377,0.0-1.0-0.78
<b>I used to think the world was less complicated than I do now.,Highly disagree,80/150,Highly agree,4,1698242166397,1698242170843,\Highly agree\,\Highly agree\,\4\,1698242169323,1698242169323,2926,2926,4446,buq,qns-item-noham,80,709825,0.0-1.0-0.79
<b>People are usually completely right or completely wrong.,Highly disagree,81/150,Somewhat disagree,2,1698242170844,1698242190883,\Highly disagree\,\Somewhat disagree\,\1\,1698242179787,1698242181275,8943,10431,20039,buq,qns-item-noham,81,729865,0.0-1.0-0.80
<b>I spend a lot of time considering alternatives to my beliefs.,Highly disagree,82/150,Somewhat agree,3,1698242190885,1698242194107,\Somewhat agree\,\Somewhat agree\,\3\,1698242193275,1698242193275,2390,2390,3222,buq,qns-item-noham,82,733089,0.0-1.0-0.81
"<b>Political enemies need to be defeated, not convinced.",Highly disagree,83/150,Highly disagree,1,1698242194109,1698242198403,\Highly disagree\,\Highly disagree\,\1\,1698242197187,1698242197187,3078,3078,4294,buq,qns-item-noham,83,737385,0.0-1.0-0.82
"<b>When forming an opinion about a restaurant, I am more swayed by my  latest meal there than  previous meals I?ve had there.",Highly disagree,84/150,Somewhat agree,3,1698242198405,1698242210242,\Somewhat agree\,\Somewhat agree\,\3\,1698242209434,1698242209434,11029,11029,11837,buq,qns-item-noham,84,749224,0.0-1.0-0.83
<b>I try to remain skeptical about most topics.,Highly disagree,85/150,Somewhat agree,3,1698242210244,1698242215883,\Somewhat agree\,\Somewhat agree\,\3\,1698242213931,1698242213931,3687,3687,5639,buq,qns-item-noham,85,754865,0.0-1.0-0.84
<b>Being wrong is usually obvious in retrospect.,Highly disagree,86/150,Somewhat disagree,2,1698242215885,1698242220060,\Somewhat disagree\,\Somewhat disagree\,\2\,1698242219395,1698242219395,3510,3510,4175,buq,qns-item-noham,86,759042,0.0-1.0-0.85
<b>It can be hard to realize that my beliefs are in conflict.,Highly disagree,87/150,Somewhat disagree,2,1698242220062,1698242224859,\Somewhat agree\,\Somewhat disagree\,\3\,1698242223219,1698242224131,3157,4069,4797,buq,qns-item-noham,87,763841,0.0-1.0-0.86
<b>I form my political views only after meticulously gathering historical and present information about their policies.,Highly disagree,88/150,Somewhat disagree,2,1698242224860,1698242248355,\Somewhat agree\,\Somewhat disagree\,\3\,1698242244810,1698242245571,19950,20711,23495,buq,qns-item-noham,88,787337,0.0-1.0-0.87
<b>Skeptical people are usually just bad-tempered.,Highly disagree,89/150,Highly disagree,1,1698242248356,1698242252579,\Highly disagree\,\Highly disagree\,\1\,1698242251587,1698242251587,3231,3231,4223,buq,qns-item-noham,89,791561,0.0-1.0-0.88
<b>It is difficult for me to remember the last time I was surprised by politics.,Highly disagree,90/150,Somewhat agree,3,1698242252581,1698242266675,\Somewhat agree\,\Somewhat agree\,\3\,1698242262611,1698242262611,10030,10030,14094,buq,qns-item-noham,90,805657,0.0-1.0-0.89
"<b>When I find out I?m wrong, I think a lot about my related beliefs.",Highly disagree,91/150,Highly agree,4,1698242266676,1698242271283,\Highly agree\,\Highly agree\,\4\,1698242270323,1698242270323,3647,3647,4607,buq,qns-item-noham,91,810265,0.0-1.0-0.90
"<b>If the political party I support messes up, it makes me think you can?t trust anyone these days",Highly disagree,92/150,Somewhat agree,3,1698242271284,1698242275596,\Somewhat agree\,\Somewhat agree\,\3\,1698242275051,1698242275051,3767,3767,4312,buq,qns-item-noham,92,814578,0.0-1.0-0.91
<b>People?s brains turn off when they talk about politics.,Highly disagree,93/150,Somewhat agree,3,1698242275598,1698242280163,\Somewhat agree\,\Somewhat agree\,\3\,1698242279491,1698242279491,3893,3893,4565,buq,qns-item-noham,93,819145,0.0-1.0-0.92
<b>People who are wrong are usually just ignoring the obvious.,Highly disagree,94/150,Somewhat agree,3,1698242280166,1698242285179,\Somewhat agree\,\Somewhat agree\,\3\,1698242283155,1698242283155,2989,2989,5013,buq,qns-item-noham,94,824161,0.0-1.0-0.93
"<b>The world isn?t that complicated, but it?s still hard to figure out how it works.",Highly disagree,95/150,Highly agree,4,1698242285181,1698242289403,\Highly agree\,\Highly agree\,\4\,1698242288843,1698242288843,3662,3662,4222,buq,qns-item-noham,95,828385,0.0-1.0-0.94
"<b>When forming my views on people, I rely more on what they are like now rather than rely on my past experience with them.",Highly disagree,96/150,Somewhat agree,3,1698242289405,1698242321450,\Somewhat agree\,\Somewhat agree\,\3\,1698242320026,1698242320026,30621,30621,32045,buq,qns-item-noham,96,860432,0.0-1.0-0.95
"<b>When people contradict my beliefs, I usually know about their evidence already.",Highly disagree,97/150,Highly agree,4,1698242321452,1698242329243,\Highly agree\,\Highly agree\,\4\,1698242326770,1698242326770,5318,5318,7791,buq,qns-item-noham,97,868225,0.0-1.0-0.96
<b>Being wrong is a matter of degree.,Highly disagree,98/150,Somewhat agree,3,1698242329244,1698242334075,\Somewhat agree\,\Somewhat agree\,\3\,1698242333266,1698242333266,4022,4022,4831,buq,qns-item-noham,98,873057,0.0-1.0-0.97
<b>Figuring out what?s true and what?s false mainly requires a strong moral compass.,Highly disagree,99/150,Somewhat disagree,2,1698242334077,1698242338890,\Somewhat disagree\,\Somewhat disagree\,\2\,1698242338178,1698242338178,4101,4101,4813,buq,qns-item-noham,99,877872,0.0-1.0-0.98
<b>Most of the beliefs people have are at least somewhat understandable.,Highly disagree,100/150,Somewhat agree,3,1698242338892,1698242343738,\Somewhat agree\,\Somewhat agree\,\3\,1698242343042,1698242343042,4150,4150,4846,buq,qns-item-noham,100,882720,0.0-1.0-0.99
"<b>Usually I?m wrong about simple things, not complicated ones.",Highly disagree,101/150,Highly agree,4,1698242343740,1698242347594,\Highly agree\,\Highly agree\,\4\,1698242346394,1698242346394,2654,2654,3854,buq,qns-item-noham,101,886576,0.0-1.0-0.100
<b>Getting all the information I want about important things is hard.,Highly disagree,102/150,Somewhat agree,3,1698242347596,1698242351050,\Somewhat agree\,\Somewhat agree\,\3\,1698242350538,1698242350538,2942,2942,3454,buq,qns-item-noham,102,890032,0.0-1.0-0.101
<b>Most false beliefs spread because people try to deceive one another.,Highly disagree,103/150,Highly agree,4,1698242351052,1698242365138,\Somewhat agree\,\Highly agree\,\3\,1698242361130,1698242363714,10078,12662,14086,buq,qns-item-noham,103,904120,0.0-1.0-0.102
<b>I can usually find something to agree with in most people?s beliefs.,Highly disagree,104/150,Somewhat disagree,2,1698242365140,1698242369402,\Somewhat disagree\,\Somewhat disagree\,\2\,1698242368782,1698242368782,3642,3642,4262,buq,qns-item-noham,104,908384,0.0-1.0-0.103
<b>I only form my views of people once I get to know them very well.,Highly disagree,105/150,Somewhat agree,3,1698242369404,1698242403314,\Somewhat agree\,\Somewhat agree\,\3\,1698242394370,1698242394370,24966,24966,33910,buq,qns-item-noham,105,942296,0.0-1.0-0.104
"<b>When people tell me important things about the world, I usually believe them.",Highly disagree,106/150,Somewhat disagree,2,1698242403316,1698242408459,\Somewhat disagree\,\Somewhat disagree\,\2\,1698242407874,1698242407874,4558,4558,5143,buq,qns-item-noham,106,947441,0.0-1.0-0.105
"<b>If a friend does something that upsets me, it reminds me what an unpredictable place the world is.",Highly disagree,107/150,Somewhat agree,3,1698242408473,1698242412218,\Somewhat agree\,\Somewhat agree\,\3\,1698242411410,1698242411410,2937,2937,3745,buq,qns-item-noham,107,951200,0.0-1.0-0.106
<b>Having some conflicting beliefs is inevitable.,Highly disagree,108/150,Somewhat disagree,2,1698242412220,1698242415866,\Somewhat disagree\,\Somewhat disagree\,\2\,1698242415314,1698242415314,3094,3094,3646,buq,qns-item-noham,108,954848,0.0-1.0-0.107
<b>People are wrong because they haven?t thought much about things.,Highly disagree,109/150,Highly agree,4,1698242415868,1698242419338,\Highly agree\,\Highly agree\,\4\,1698242418690,1698242418690,2822,2822,3470,buq,qns-item-noham,109,958320,0.0-1.0-0.108
<b>People tend to believe whatever is good for their friends.,Highly disagree,110/150,Somewhat agree,3,1698242419340,1698242423378,\Somewhat agree\,\Somewhat agree\,\3\,1698242422202,1698242422202,2862,2862,4038,buq,qns-item-noham,110,962360,0.0-1.0-0.109
"<b>When I talk about important topics, I try to make sure people know I?m not always right.",Highly disagree,111/150,Highly agree,4,1698242423380,1698242427234,\Highly agree\,\Highly agree\,\4\,1698242426602,1698242426602,3222,3222,3854,buq,qns-item-noham,111,966216,0.0-1.0-0.110
<b>I used to be more certain my beliefs were true.,Highly disagree,112/150,Somewhat agree,3,1698242427236,1698242430314,\Somewhat agree\,\Somewhat agree\,\3\,1698242429718,1698242429718,2482,2482,3078,buq,qns-item-noham,112,969296,0.0-1.0-0.111
<b>It?s often pretty easy to figure out whether something is true based on who said it.,Highly disagree,113/150,Somewhat agree,3,1698242430316,1698242434843,\Somewhat agree\,\Somewhat agree\,\3\,1698242434090,1698242434090,3774,3774,4527,buq,qns-item-noham,113,973825,0.0-1.0-0.112
<b>Having bad food in my favorite restaurant will make me think the restaurant is no longer good.,Highly disagree,114/150,Somewhat disagree,2,1698242434844,1698242451922,\Somewhat disagree\,\Somewhat disagree\,\2\,1698242451402,1698242451402,16558,16558,17078,buq,qns-item-noham,114,990904,0.0-1.0-0.113
<b>I transform into a hummingbird every day.,Highly disagree,115/150,Highly disagree,1,1698242451924,1698242454930,\Highly disagree\,\Highly disagree\,\1\,1698242454082,1698242454082,2158,2158,3006,buq,qns-item-noham,115,993912,0.0-1.0-0.114
"<b>Unfortunately, when people are wrong, it?s usually because they?re bad.",Highly disagree,116/150,Somewhat disagree,2,1698242454932,1698242459857,\Somewhat agree\,\Somewhat disagree\,\3\,1698242457665,1698242458962,2733,4030,4925,buq,qns-item-noham,116,998840,0.0-1.0-0.115
<b>I think a lot about arguments against my views.,Highly disagree,117/150,Somewhat agree,3,1698242459859,1698242463850,\Somewhat agree\,\Somewhat agree\,\3\,1698242462866,1698242462866,3007,3007,3991,buq,qns-item-noham,117,1002832,0.0-1.0-0.116
<b>Details tend to matter a lot for knowing whether a policy is good.,Highly disagree,118/150,Highly agree,4,1698242463852,1698242472818,\Highly agree\,\Highly agree\,\4\,1698242471650,1698242471650,7798,7798,8966,buq,qns-item-noham,118,1011800,0.0-1.0-0.117
<b>Personal experience is usually more important than facts and figures.,Highly disagree,119/150,Somewhat disagree,2,1698242472819,1698242520657,\Somewhat disagree\,\Somewhat disagree\,\2\,1698242520026,1698242520026,47207,47207,47838,buq,qns-item-noham,119,1059639,0.0-1.0-0.118
<b>I?ve been tricked before about important matters.,Highly disagree,120/150,Somewhat disagree,2,1698242520658,1698242523985,\Somewhat disagree\,\Somewhat disagree\,\2\,1698242523457,1698242523457,2799,2799,3327,buq,qns-item-noham,120,1062967,0.0-1.0-0.119
<b>I would need to be totally wowed if I were to change my opinion of a restaurant I don?t like.,Highly disagree,121/150,Somewhat agree,3,1698242523986,1698242544945,\Somewhat agree\,\Somewhat agree\,\3\,1698242541225,1698242544249,17239,20263,20959,buq,qns-item-noham,121,1083928,0.0-1.0-0.120
<b>I care a lot about politics.,Highly disagree,122/150,Somewhat disagree,2,1698242544947,1698242554105,\Somewhat disagree\,\Somewhat disagree\,\2\,1698242550265,1698242550265,5318,5318,9158,buq,qns-item-noham,122,1093087,0.0-1.0-0.121
<b>People with conflicting beliefs usually have some facts they disagree on.,Highly disagree,123/150,Somewhat agree,3,1698242554107,1698242559769,\Somewhat agree\,\Somewhat agree\,\3\,1698242558969,1698242558969,4862,4862,5662,buq,qns-item-noham,123,1098751,0.0-1.0-0.122
<b>There are some topics I?ve been really wrong about.,Highly disagree,124/150,Somewhat disagree,2,1698242559771,1698242562881,\Somewhat disagree\,\Somewhat disagree\,\2\,1698242562105,1698242562105,2334,2334,3110,buq,qns-item-noham,124,1101863,0.0-1.0-0.123
<b>Most beliefs can be supported with at least some evidence.,Highly disagree,125/150,Somewhat agree,3,1698242562883,1698242570617,\Highly agree\,\Somewhat agree\,\4\,1698242565681,1698242569977,2798,7094,7734,buq,qns-item-noham,125,1109599,0.0-1.0-0.124
<b>Other people make life out to be more complicated than it really is.,Highly disagree,126/150,Somewhat disagree,2,1698242570619,1698242584681,\Somewhat disagree\,\Somewhat disagree\,\2\,1698242573529,1698242573529,2910,2910,14062,buq,qns-item-noham,126,1123663,0.0-1.0-0.125
"<b>My political views are being shaped continuously as I gather more information, rather than relying on what I?ve known to be true of my party in the past. ",Highly disagree,127/150,Somewhat agree,3,1698242584682,1698242590201,\Somewhat agree\,\Somewhat agree\,\3\,1698242589313,1698242589313,4631,4631,5519,buq,qns-item-noham,127,1129183,0.0-1.0-0.126
<b>It?s pretty unusual for true things to seem false.,Highly disagree,128/150,Highly agree,4,1698242590203,1698242595769,\Highly agree\,\Highly agree\,\4\,1698242594673,1698242594673,4470,4470,5566,buq,qns-item-noham,128,1134751,0.0-1.0-0.127
"<b>Policy details don?t matter much, just the big picture.",Highly disagree,129/150,Somewhat disagree,2,1698242595771,1698242600481,\Somewhat disagree\,\Somewhat disagree\,\2\,1698242598849,1698242598849,3078,3078,4710,buq,qns-item-noham,129,1139463,0.0-1.0-0.128
<b>I know my friends so well they can hardly ever surprise me.,Highly disagree,130/150,Somewhat agree,3,1698242600483,1698242604753,\Somewhat agree\,\Somewhat agree\,\3\,1698242604225,1698242604225,3742,3742,4270,buq,qns-item-noham,130,1143735,0.0-1.0-0.129
"<b>When I talk to people, I often think about why they have the beliefs they do.",Highly disagree,131/150,Somewhat agree,3,1698242604755,1698242628880,\Somewhat agree\,\Somewhat agree\,\3\,1698242622624,1698242622624,17869,17869,24125,buq,qns-item-noham,131,1167862,0.0-1.0-0.130
<b>I do not often change my views on people.,Highly disagree,132/150,Somewhat agree,3,1698242628882,1698242632984,\Somewhat agree\,\Somewhat agree\,\3\,1698242631817,1698242631817,2935,2935,4102,buq,qns-item-noham,132,1171966,0.0-1.0-0.131
<b>I often wish I had more time to spend figuring out what?s true and what?s false in life.,Highly disagree,133/150,Highly agree,4,1698242632986,1698242640576,\Highly agree\,\Highly agree\,\4\,1698242639736,1698242639736,6750,6750,7590,buq,qns-item-noham,133,1179558,0.0-1.0-0.132
<b>I?m more certain about my beliefs than I used to be.,Highly disagree,134/150,Somewhat disagree,2,1698242640577,1698242643960,\Somewhat disagree\,\Somewhat disagree\,\2\,1698242643440,1698242643440,2863,2863,3383,buq,qns-item-noham,134,1182942,0.0-1.0-0.133
"<b>Whenever I find out new information, I update my views on politics accordingly.",Highly disagree,135/150,Highly agree,4,1698242643961,1698242649848,\Somewhat agree\,\Highly agree\,\3\,1698242647152,1698242649144,3191,5183,5887,buq,qns-item-noham,135,1188830,0.0-1.0-0.134
<b>People often tell falsehoods unintentionally.,Highly disagree,136/150,Somewhat disagree,2,1698242649850,1698242654024,\Somewhat disagree\,\Somewhat disagree\,\2\,1698242653272,1698242653272,3422,3422,4174,buq,qns-item-noham,136,1193006,0.0-1.0-0.135
<b>Most people don?t know much about most things.,Highly disagree,137/150,Somewhat agree,3,1698242654026,1698242656440,\Somewhat agree\,\Somewhat agree\,\3\,1698242655752,1698242655752,1726,1726,2414,buq,qns-item-noham,137,1195422,0.0-1.0-0.136
"<b>If I find out something new about someone, I easily change my views about them.",Highly disagree,138/150,Somewhat disagree,2,1698242656442,1698242661008,\Somewhat disagree\,\Somewhat disagree\,\2\,1698242659856,1698242659856,3414,3414,4566,buq,qns-item-noham,138,1199990,0.0-1.0-0.137
<b>Having true beliefs is difficult.,Highly disagree,139/150,Somewhat agree,3,1698242661010,1698242663592,\Somewhat agree\,\Somewhat agree\,\3\,1698242663080,1698242663080,2070,2070,2582,buq,qns-item-noham,139,1202574,0.0-1.0-0.138
<b>I don?t try new foods since I know I won?t like them.,Highly disagree,140/150,Highly disagree,1,1698242663594,1698242667280,\Highly disagree\,\Highly disagree\,\1\,1698242666368,1698242666368,2774,2774,3686,buq,qns-item-noham,140,1206262,0.0-1.0-0.139
<b>It?s easy to figure out what?s true or false based on who?s saying it.,Highly disagree,141/150,Somewhat agree,3,1698242667282,1698242670168,\Somewhat agree\,\Somewhat agree\,\3\,1698242669384,1698242669384,2102,2102,2886,buq,qns-item-noham,141,1209150,0.0-1.0-0.140
<b>False things have seemed true to me many times.,Highly disagree,142/150,Somewhat disagree,2,1698242670171,1698242674320,\Somewhat disagree\,\Somewhat disagree\,\2\,1698242673328,1698242673328,3157,3157,4149,buq,qns-item-noham,142,1213302,0.0-1.0-0.141
<b>It?s pretty easy to sort out what?s true and what?s false in life.,Highly disagree,143/150,Somewhat disagree,2,1698242674322,1698242677800,\Somewhat disagree\,\Somewhat disagree\,\2\,1698242677280,1698242677280,2958,2958,3478,buq,qns-item-noham,143,1216782,0.0-1.0-0.142
<b>Knowing lots of statistics about something is usually important for understanding it.,Highly disagree,144/150,Highly agree,4,1698242677802,1698242680744,\Highly agree\,\Highly agree\,\4\,1698242680041,1698242680041,2239,2239,2942,buq,qns-item-noham,144,1219726,0.0-1.0-0.143
<b>Other people trick each other a lot.,Highly disagree,145/150,Somewhat agree,3,1698242680746,1698242683353,\Somewhat agree\,\Somewhat agree\,\3\,1698242682776,1698242682776,2030,2030,2607,buq,qns-item-noham,145,1222335,0.0-1.0-0.144
<b>I would need to learn a lot about a person for my opinion of them to be swayed.,Highly disagree,146/150,Somewhat agree,3,1698242683354,1698242688929,\Somewhat disagree\,\Somewhat agree\,\2\,1698242686793,1698242688152,3439,4798,5575,buq,qns-item-noham,146,1227911,0.0-1.0-0.145
<b>People can?t usually trick me when it comes to topics I care about.,Highly disagree,147/150,Highly agree,4,1698242688931,1698242692345,\Highly agree\,\Highly agree\,\4\,1698242691329,1698242691329,2398,2398,3414,buq,qns-item-noham,147,1231327,0.0-1.0-0.146
<b>I do not often change my views on food.,Highly disagree,148/150,Somewhat disagree,2,1698242692346,1698242695472,\Somewhat disagree\,\Somewhat disagree\,\2\,1698242694809,1698242694809,2463,2463,3126,buq,qns-item-noham,148,1234454,0.0-1.0-0.147
<b>Specific policies are often very important to me.,Highly disagree,149/150,Somewhat agree,3,1698242695474,1698242698960,\Somewhat agree\,\Somewhat agree\,\3\,1698242698449,1698242698449,2975,2975,3486,buq,qns-item-noham,149,1237942,0.0-1.0-0.148
<b>Most people are woefully under-informed.,Highly disagree,150/150,Somewhat agree,3,1698242698962,1698242701232,\Somewhat agree\,\Somewhat agree\,\3\,1698242700632,1698242700632,1670,1670,2270,buq,qns-item-noham,150,1240214,0.0-1.0-0.149
