Question,qns_options,quest_num,answer,answer_num,question_load_timestamp,next_btn_timestamp,text_selected,final_text_selected,option_num_selected,preview_timestamps,final_text_selected_time_stamp,rt_first_option_click,rt_final_option_click,rt_submit_click,questionnaire,trial_type,trial_index,time_elapsed,internal_node_id
<b>Considering other people?s perspectives can help us figure out what?s true or false.,Highly disagree,1/150,Somewhat agree,3,1698241382544,1698241398026,\Somewhat agree\,\Somewhat agree\,\3\,1698241396828,1698241396828,14284,14284,15482,buq,qns-item-noham,1,28241,0.0-1.0-0.0
<b>Knowing what?s true and knowing what to do about it are usually basically the same.,Highly disagree,2/150,Somewhat disagree,2,1698241398027,1698241406011,\Somewhat disagree\,\Somewhat disagree\,\2\,1698241403238,1698241403238,5211,5211,7984,buq,qns-item-noham,2,36226,0.0-1.0-0.1
<b>Most people just believe whatever is convenient for them.,Highly disagree,3/150,Somewhat agree,3,1698241406013,1698241409858,\Somewhat agree\,\Somewhat agree\,\3\,1698241409161,1698241409161,3148,3148,3845,buq,qns-item-noham,3,40074,0.0-1.0-0.2
<b>Even people who are wrong about most things can be right sometimes.,Highly disagree,4/150,Somewhat agree,3,1698241409860,1698241415161,\Somewhat agree\,\Somewhat agree\,\3\,1698241414409,1698241414409,4549,4549,5301,buq,qns-item-noham,4,45376,0.0-1.0-0.3
"<b>If the political party I support does something that upsets me, then the party may have changed, and I need to re-evaluate my support.",Highly disagree,5/150,Somewhat disagree,2,1698241415163,1698241426592,\Somewhat disagree\,\Somewhat disagree\,\2\,1698241425701,1698241425701,10538,10538,11429,buq,qns-item-noham,5,56807,0.0-1.0-0.4
"<b>When people disagree, one side is usually completely right.",Highly disagree,6/150,Somewhat disagree,2,1698241426594,1698241434163,\Highly disagree\,\Somewhat disagree\,\1\,1698241431207,1698241433195,4613,6601,7569,buq,qns-item-noham,6,64378,0.0-1.0-0.5
<b>People have lots of false beliefs.,Highly disagree,7/150,Somewhat agree,3,1698241434164,1698241437132,\Somewhat agree\,\Somewhat agree\,\3\,1698241436610,1698241436610,2446,2446,2968,buq,qns-item-noham,7,67347,0.0-1.0-0.6
<b>Having some big beliefs helps me sort out minor ones.,Highly disagree,8/150,Somewhat disagree,2,1698241437134,1698241441684,\Somewhat disagree\,\Somewhat disagree\,\2\,1698241441005,1698241441005,3871,3871,4550,buq,qns-item-noham,8,71899,0.0-1.0-0.7
<b>Political questions are usually pretty complicated.,Highly disagree,9/150,Somewhat agree,3,1698241441685,1698241445993,\Somewhat agree\,\Somewhat agree\,\3\,1698241444452,1698241444452,2767,2767,4308,buq,qns-item-noham,9,76208,0.0-1.0-0.8
<b>Figuring out what?s important in life requires learning a lot of facts.,Highly disagree,10/150,Somewhat agree,3,1698241445994,1698241449976,\Somewhat agree\,\Somewhat agree\,\3\,1698241449535,1698241449535,3541,3541,3982,buq,qns-item-noham,10,80191,0.0-1.0-0.9
<b>It is difficult for me to remember the last time I was surprised by politics.,Highly disagree,11/150,Somewhat disagree,2,1698241449977,1698241454539,\Somewhat disagree\,\Somewhat disagree\,\2\,1698241454029,1698241454029,4052,4052,4562,buq,qns-item-noham,11,84754,0.0-1.0-0.10
<b>People?s false beliefs are understandable.,Highly disagree,12/150,Highly disagree,1,1698241454540,1698241458846,\Highly disagree\,\Highly disagree\,\1\,1698241457651,1698241457651,3111,3111,4306,buq,qns-item-noham,12,89061,0.0-1.0-0.11
<b>I spend a lot of time trying to be informed about politics.,Highly disagree,13/150,Somewhat agree,3,1698241458847,1698241463540,\Somewhat agree\,\Somewhat agree\,\3\,1698241463104,1698241463104,4257,4257,4693,buq,qns-item-noham,13,93755,0.0-1.0-0.12
<b>I think a lot about whether my beliefs are right.,Highly disagree,14/150,Somewhat disagree,2,1698241463541,1698241467321,\Somewhat disagree\,\Somewhat disagree\,\2\,1698241466853,1698241466853,3312,3312,3780,buq,qns-item-noham,14,97536,0.0-1.0-0.13
<b>Statistics can be pretty misleading sometimes.,Highly disagree,15/150,Somewhat agree,3,1698241467322,1698241477166,\Somewhat disagree\,\Somewhat agree\,\2\,1698241474275,1698241475289,6953,7967,9844,buq,qns-item-noham,15,107381,0.0-1.0-0.14
<b>Figuring out what?s true and what?s false takes a lot of time and effort.,Highly disagree,16/150,Highly agree,4,1698241477167,1698241482370,\Highly agree\,\Highly agree\,\4\,1698241481894,1698241481894,4727,4727,5203,buq,qns-item-noham,16,112585,0.0-1.0-0.15
"<b>If a friend does something bad to me, it was likely an error on their part.",Highly disagree,17/150,Somewhat disagree,2,1698241482371,1698241488603,\Somewhat disagree\,\Somewhat disagree\,\2\,1698241487929,1698241487929,5558,5558,6232,buq,qns-item-noham,17,118818,0.0-1.0-0.16
<b>I have lots of beliefs that I?m only sort of sure about.,Highly disagree,18/150,Somewhat disagree,2,1698241488604,1698241494719,\Somewhat disagree\,\Somewhat disagree\,\2\,1698241494283,1698241494283,5679,5679,6115,buq,qns-item-noham,18,124934,0.0-1.0-0.17
"<b>If I go to my favorite restaurant and the food is surprisingly bad, it reminds me there are many disappointments in life.",Highly disagree,19/150,Somewhat agree,3,1698241494720,1698241508756,\Somewhat agree\,\Somewhat agree\,\3\,1698241507657,1698241507657,12937,12937,14036,buq,qns-item-noham,19,138971,0.0-1.0-0.18
<b>Sometimes my beliefs are inconvenient for me.,Highly disagree,20/150,Somewhat disagree,2,1698241508757,1698241512312,\Somewhat disagree\,\Somewhat disagree\,\2\,1698241510896,1698241510896,2139,2139,3555,buq,qns-item-noham,20,142527,0.0-1.0-0.19
<b>Paying attention to multiple news sources is important.,Highly disagree,21/150,Somewhat disagree,2,1698241512313,1698241515708,\Somewhat disagree\,\Somewhat disagree\,\2\,1698241515258,1698241515258,2945,2945,3395,buq,qns-item-noham,21,145923,0.0-1.0-0.20
"<b>If you are paying attention, please select ?Somewhat agree?",Highly disagree,22/150,Somewhat agree,3,1698241515709,1698241520381,\Somewhat agree\,\Somewhat agree\,\3\,1698241518374,1698241518374,2665,2665,4672,buq,qns-item-noham,22,150596,0.0-1.0-0.21
"<b>When I talk to others, I often worry I?ll convince them of something I didn?t mean to.",Highly disagree,23/150,Somewhat disagree,2,1698241520382,1698241530656,\Somewhat disagree\,\Somewhat disagree\,\2\,1698241530106,1698241530106,9724,9724,10274,buq,qns-item-noham,23,160871,0.0-1.0-0.22
<b>I would need to learn something utterly shocking about my party in order to change my political views.,Highly disagree,24/150,Highly agree,4,1698241530657,1698241540053,\Highly agree\,\Highly agree\,\4\,1698241538900,1698241538900,8243,8243,9396,buq,qns-item-noham,24,170268,0.0-1.0-0.23
"<b>When I have new experiences, I tend to think of them as unique.",Highly disagree,25/150,Somewhat disagree,2,1698241540054,1698241545664,\Somewhat disagree\,\Somewhat disagree\,\2\,1698241545232,1698241545232,5178,5178,5610,buq,qns-item-noham,25,175879,0.0-1.0-0.24
<b>Reading lots of things is important for understanding the world.,Highly disagree,26/150,Highly agree,4,1698241545665,1698241549718,\Highly agree\,\Highly agree\,\4\,1698241548251,1698241548251,2586,2586,4053,buq,qns-item-noham,26,179933,0.0-1.0-0.25
<b>The world is complicated.,Highly disagree,27/150,Highly agree,4,1698241549719,1698241554447,\Highly agree\,\Highly agree\,\4\,1698241553492,1698241553492,3773,3773,4728,buq,qns-item-noham,27,184662,0.0-1.0-0.26
<b>I change my mind about specific policies pretty frequently.,Highly disagree,28/150,Somewhat disagree,2,1698241554448,1698241558544,\Somewhat disagree\,\Somewhat disagree\,\2\,1698241557512,1698241557512,3064,3064,4096,buq,qns-item-noham,28,188759,0.0-1.0-0.27
"<b>If a politician in my political party supports something I disagree with, I give them the benefit of the doubt, as such issues often involve hidden complexities that aren?t obvious.   ",Highly disagree,29/150,Somewhat disagree,2,1698241558545,1698241567902,\Somewhat disagree\,\Somewhat disagree\,\2\,1698241566764,1698241566764,8219,8219,9357,buq,qns-item-noham,29,198117,0.0-1.0-0.28
<b>People?s bad politics are usually motivated by hatefulness.,Highly disagree,30/150,Somewhat agree,3,1698241567903,1698241571921,\Somewhat agree\,\Somewhat agree\,\3\,1698241571120,1698241571120,3217,3217,4018,buq,qns-item-noham,30,202136,0.0-1.0-0.29
"<b>Most new experiences are just like old ones, but a little bit different.",Highly disagree,31/150,Somewhat agree,3,1698241571921,1698241579563,\Somewhat agree\,\Somewhat agree\,\3\,1698241578954,1698241578954,7033,7033,7642,buq,qns-item-noham,31,209779,0.0-1.0-0.30
<b>I think a lot about how to reconcile my beliefs with one another.,Highly disagree,32/150,Somewhat disagree,2,1698241579564,1698241583697,\Somewhat disagree\,\Somewhat disagree\,\2\,1698241583232,1698241583232,3668,3668,4133,buq,qns-item-noham,32,213913,0.0-1.0-0.31
<b>Personal experience rarely leads people astray.,Highly disagree,33/150,Highly disagree,1,1698241583698,1698241590430,\Somewhat disagree\,\Highly disagree\,\2\,1698241587220,1698241589367,3522,5669,6732,buq,qns-item-noham,33,220645,0.0-1.0-0.32
<b>I might have false beliefs about important topics.,Highly disagree,34/150,Somewhat disagree,2,1698241590431,1698241597554,\Somewhat agree\,\Somewhat disagree\,\3\,1698241595739,1698241596745,5308,6314,7123,buq,qns-item-noham,34,227769,0.0-1.0-0.33
"<b>If a good friend of mine does something unexpected that upsets me, I feel like I don?t know them anymore.",Highly disagree,35/150,Highly agree,4,1698241597554,1698241609173,\Somewhat agree\,\Highly agree\,\3\,1698241604003,1698241607244,6449,9690,11619,buq,qns-item-noham,35,239388,0.0-1.0-0.34
<b>Other people?s beliefs are often incoherent.,Highly disagree,36/150,Somewhat agree,3,1698241609174,1698241613986,\Somewhat disagree\,\Somewhat agree\,\2\,1698241612619,1698241612996,3445,3822,4812,buq,qns-item-noham,36,244201,0.0-1.0-0.35
<b>It?s important to have friends who think about things differently than I do.,Highly disagree,37/150,Somewhat disagree,2,1698241613987,1698241617815,\Somewhat disagree\,\Somewhat disagree\,\2\,1698241617312,1698241617312,3325,3325,3828,buq,qns-item-noham,37,248030,0.0-1.0-0.36
"<b>Every now and then, a new experience will unsettle beliefs I?ve had for a while.",Highly disagree,38/150,Somewhat disagree,2,1698241617815,1698241623618,\Somewhat disagree\,\Somewhat disagree\,\2\,1698241622947,1698241622947,5132,5132,5803,buq,qns-item-noham,38,253833,0.0-1.0-0.37
<b>Some policies I agree with in principle are so bad I don?t support them. ,Highly disagree,39/150,Somewhat agree,3,1698241623619,1698241632102,\Somewhat agree\,\Somewhat agree\,\3\,1698241631636,1698241631636,8017,8017,8483,buq,qns-item-noham,39,262317,0.0-1.0-0.38
<b>I?m pretty sure I?ve accidentally spread false information.,Highly disagree,40/150,Somewhat disagree,2,1698241632103,1698241637938,\Somewhat disagree\,\Somewhat disagree\,\2\,1698241637544,1698241637544,5441,5441,5835,buq,qns-item-noham,40,268153,0.0-1.0-0.39
"<b>If I go to my favorite restaurant and the food is unexpectedly bad, then they have changed owners.",Highly disagree,41/150,Somewhat disagree,2,1698241637940,1698241646156,\Somewhat disagree\,\Somewhat disagree\,\2\,1698241644856,1698241644856,6916,6916,8216,buq,qns-item-noham,41,276371,0.0-1.0-0.40
"<b>In politics, it?s important to trust your friends and family.",Highly disagree,42/150,Somewhat disagree,2,1698241646157,1698241651911,\Somewhat disagree\,\Somewhat disagree\,\2\,1698241651145,1698241651145,4988,4988,5754,buq,qns-item-noham,42,282126,0.0-1.0-0.41
<b>It?s OK to have some conflicting beliefs.,Highly disagree,43/150,Somewhat agree,3,1698241651912,1698241654559,\Somewhat agree\,\Somewhat agree\,\3\,1698241653976,1698241653976,2064,2064,2647,buq,qns-item-noham,43,284774,0.0-1.0-0.42
<b>Sometimes the details of a matter seem to conflict with the big picture.,Highly disagree,44/150,Somewhat agree,3,1698241654560,1698241659892,\Somewhat agree\,\Somewhat agree\,\3\,1698241659355,1698241659355,4795,4795,5332,buq,qns-item-noham,44,290107,0.0-1.0-0.43
<b>Listening to people I disagree with makes my opinions better.,Highly disagree,45/150,Somewhat disagree,2,1698241659893,1698241662853,\Somewhat disagree\,\Somewhat disagree\,\2\,1698241661957,1698241661957,2064,2064,2960,buq,qns-item-noham,45,293068,0.0-1.0-0.44
<b>Policies that sound bad are sometimes fine when you find out about their details.,Highly disagree,46/150,Somewhat disagree,2,1698241662853,1698241667970,\Somewhat disagree\,\Somewhat disagree\,\2\,1698241666482,1698241666482,3629,3629,5117,buq,qns-item-noham,46,298185,0.0-1.0-0.45
"<b>The world is always changing, so my beliefs are sometimes out-dated.",Highly disagree,47/150,Somewhat disagree,2,1698241667971,1698241671695,\Somewhat disagree\,\Somewhat disagree\,\2\,1698241671248,1698241671248,3277,3277,3724,buq,qns-item-noham,47,301910,0.0-1.0-0.46
"<b>If I receive a bad meal at my favorite restaurant and the food is surprisingly bad, I do not think much of it, and assume the chef is just having an ?off? day.",Highly disagree,48/150,Somewhat agree,3,1698241671696,1698241690715,\Somewhat disagree\,\Somewhat agree\,\2\,1698241680548,1698241688300,8852,16604,19019,buq,qns-item-noham,48,320930,0.0-1.0-0.47
"<b>False information is unavoidable, to some extent.",Highly disagree,49/150,Somewhat agree,3,1698241690717,1698241693482,\Somewhat agree\,\Somewhat agree\,\3\,1698241693077,1698241693077,2360,2360,2765,buq,qns-item-noham,49,323697,0.0-1.0-0.48
<b>My moral compass sometimes makes it harder to determine what?s true.,Highly disagree,50/150,Somewhat disagree,2,1698241693483,1698241697048,\Somewhat disagree\,\Somewhat disagree\,\2\,1698241696611,1698241696611,3128,3128,3565,buq,qns-item-noham,50,327264,0.0-1.0-0.49
"<b>When you disagree with someone, it?s important to listen to them carefully.",Highly disagree,51/150,Somewhat disagree,2,1698241697050,1698241700859,\Somewhat disagree\,\Somewhat disagree\,\2\,1698241700336,1698241700336,3286,3286,3809,buq,qns-item-noham,51,331074,0.0-1.0-0.50
<b>Evidence pointing in the wrong direction isn?t really evidence at all.,Highly disagree,52/150,Somewhat agree,3,1698241700860,1698241708394,\Highly agree\,\Somewhat agree\,\4\,1698241704210,1698241707118,3350,6258,7534,buq,qns-item-noham,52,338609,0.0-1.0-0.51
"<b>If the political party I support messes up, it makes me think politics is rotten.",Highly disagree,53/150,Somewhat agree,3,1698241708396,1698241718463,\Somewhat agree\,\Somewhat agree\,\3\,1698241717761,1698241717761,9365,9365,10067,buq,qns-item-noham,53,348678,0.0-1.0-0.52
<b>Lots of important topics can only really be understood by some groups of people.,Highly disagree,54/150,Somewhat disagree,2,1698241718464,1698241723544,\Somewhat disagree\,\Somewhat disagree\,\2\,1698241723197,1698241723197,4733,4733,5080,buq,qns-item-noham,54,353759,0.0-1.0-0.53
<b>Details almost always matter for being right about something.,Highly disagree,55/150,Somewhat agree,3,1698241723545,1698241729296,\Somewhat agree\,\Somewhat agree\,\3\,1698241728887,1698241728887,5342,5342,5751,buq,qns-item-noham,55,359511,0.0-1.0-0.54
"<b>The most important thing in politics is winning, not convincing people.",Highly disagree,56/150,Somewhat disagree,2,1698241729297,1698241732836,\Somewhat disagree\,\Somewhat disagree\,\2\,1698241732200,1698241732200,2903,2903,3539,buq,qns-item-noham,56,363051,0.0-1.0-0.55
<b>Having conflicting beliefs means you haven?t thought about them enough.,Highly disagree,57/150,Somewhat disagree,2,1698241732837,1698241737942,\Somewhat disagree\,\Somewhat disagree\,\2\,1698241737108,1698241737108,4271,4271,5105,buq,qns-item-noham,57,368157,0.0-1.0-0.56
<b>Other people have sometimes convinced me to change my mind on important topics.,Highly disagree,58/150,Somewhat agree,3,1698241737943,1698241744029,\Somewhat agree\,\Somewhat agree\,\3\,1698241743401,1698241743401,5458,5458,6086,buq,qns-item-noham,58,374244,0.0-1.0-0.57
<b>I do not often change my political opinions.,Highly disagree,59/150,Somewhat agree,3,1698241744030,1698241746438,\Somewhat agree\,\Somewhat agree\,\3\,1698241746090,1698241746090,2060,2060,2408,buq,qns-item-noham,59,376653,0.0-1.0-0.58
<b>Thinking about how different things relate to one another is critical in life.,Highly disagree,60/150,Somewhat agree,3,1698241746439,1698241757359,\Somewhat agree\,\Somewhat agree\,\3\,1698241757009,1698241757009,10570,10570,10920,buq,qns-item-noham,60,387574,0.0-1.0-0.59
<b>True beliefs can have unfortunate implications.,Highly disagree,61/150,Somewhat agree,3,1698241757360,1698241762551,\Somewhat agree\,\Somewhat agree\,\3\,1698241762192,1698241762192,4832,4832,5191,buq,qns-item-noham,61,392766,0.0-1.0-0.60
<b>It?s difficult to not have at least some conflicting beliefs.,Highly disagree,62/150,Somewhat agree,3,1698241762552,1698241765229,\Somewhat agree\,\Somewhat agree\,\3\,1698241764854,1698241764854,2302,2302,2677,buq,qns-item-noham,62,395444,0.0-1.0-0.61
"<b>When I learn new things, I think deeply about how my opinions should change.",Highly disagree,63/150,Somewhat disagree,2,1698241765231,1698241812146,\Somewhat disagree\,\Somewhat disagree\,\2\,1698241811789,1698241811789,46558,46558,46915,buq,qns-item-noham,63,442361,0.0-1.0-0.62
<b>I think a lot about how to interpret different sorts of evidence.,Highly disagree,64/150,Somewhat agree,3,1698241812147,1698241815385,\Somewhat agree\,\Somewhat agree\,\3\,1698241815043,1698241815043,2896,2896,3238,buq,qns-item-noham,64,445600,0.0-1.0-0.63
<b>Politics is about thinking together and finding compromises.,Highly disagree,65/150,Somewhat agree,3,1698241815386,1698241821257,\Somewhat disagree\,\Somewhat agree\,\2\,1698241819467,1698241820192,4081,4806,5871,buq,qns-item-noham,65,451472,0.0-1.0-0.64
<b>Wishful thinking causes a lot of problems.,Highly disagree,66/150,Highly agree,4,1698241821258,1698241824611,\Highly agree\,\Highly agree\,\4\,1698241824252,1698241824252,2994,2994,3353,buq,qns-item-noham,66,454826,0.0-1.0-0.65
<b>I judge a food item only once I try it many times.,Highly disagree,67/150,Somewhat disagree,2,1698241824612,1698241829066,\Somewhat disagree\,\Somewhat disagree\,\2\,1698241828316,1698241828316,3704,3704,4454,buq,qns-item-noham,67,459281,0.0-1.0-0.66
"<b>When a person holds conflicting beliefs, they should really try to figure out what?s wrong.",Highly disagree,68/150,Somewhat disagree,2,1698241829067,1698241837624,\Somewhat agree\,\Somewhat disagree\,\3\,1698241836465,1698241837053,7398,7986,8557,buq,qns-item-noham,68,467839,0.0-1.0-0.67
<b>Knowing what?s important in life is easy.,Highly disagree,69/150,Somewhat disagree,2,1698241837625,1698241844387,\Somewhat disagree\,\Somewhat disagree\,\2\,1698241842223,1698241842223,4598,4598,6762,buq,qns-item-noham,69,474602,0.0-1.0-0.68
<b>Lots of smart people disagree about basic political questions.,Highly disagree,70/150,Somewhat agree,3,1698241844388,1698241847361,\Somewhat agree\,\Somewhat agree\,\3\,1698241846692,1698241846692,2304,2304,2973,buq,qns-item-noham,70,477576,0.0-1.0-0.69
<b>I swim across the Atlantic Ocean to get to work every day.,Highly disagree,71/150,Highly disagree,1,1698241847362,1698241853316,\Highly disagree\,\Highly disagree\,\1\,1698241849735,1698241849735,2373,2373,5954,buq,qns-item-noham,71,483531,0.0-1.0-0.70
"<b>Sometimes, you just have to ignore evidence that you know is wrong.",Highly disagree,72/150,Somewhat agree,3,1698241853317,1698241859251,\Somewhat agree\,\Somewhat agree\,\3\,1698241857349,1698241857349,4032,4032,5934,buq,qns-item-noham,72,489466,0.0-1.0-0.71
<b>I have had some false beliefs.,Highly disagree,73/150,Somewhat agree,3,1698241859252,1698241863188,\Somewhat agree\,\Somewhat agree\,\3\,1698241862657,1698241862657,3405,3405,3936,buq,qns-item-noham,73,493403,0.0-1.0-0.72
"<b>If one friend does something that upsets me, I sometimes start to distrust people in general.",Highly disagree,74/150,Somewhat agree,3,1698241863189,1698241867917,\Somewhat agree\,\Somewhat agree\,\3\,1698241867372,1698241867372,4183,4183,4728,buq,qns-item-noham,74,498132,0.0-1.0-0.73
<b>I easily apply what I learn in one situation to another.,Highly disagree,75/150,Highly agree,4,1698241867918,1698241873256,\Highly agree\,\Highly agree\,\4\,1698241872067,1698241872067,4149,4149,5338,buq,qns-item-noham,75,503471,0.0-1.0-0.74
<b>The facts about most important matters are easy to find.,Highly disagree,76/150,Somewhat disagree,2,1698241873257,1698241878502,\Somewhat disagree\,\Somewhat disagree\,\2\,1698241877755,1698241877755,4498,4498,5245,buq,qns-item-noham,76,508717,0.0-1.0-0.75
<b>It?s better to know what?s true than to know what?s moral.,Highly disagree,77/150,Highly agree,4,1698241878503,1698241883214,\Highly agree\,\Highly agree\,\4\,1698241882805,1698241882805,4302,4302,4711,buq,qns-item-noham,77,513429,0.0-1.0-0.76
<b>It?s good to be skeptical of people you agree with.,Highly disagree,78/150,Somewhat agree,3,1698241883215,1698241891054,\Somewhat disagree\,\Somewhat agree\,\2\,1698241887531,1698241889453,4316,6238,7839,buq,qns-item-noham,78,521269,0.0-1.0-0.77
<b>Sometimes reasonable beliefs are wrong.,Highly disagree,79/150,Somewhat agree,3,1698241891055,1698241895579,\Somewhat agree\,\Somewhat agree\,\3\,1698241895231,1698241895231,4176,4176,4524,buq,qns-item-noham,79,525794,0.0-1.0-0.78
<b>I used to think the world was less complicated than I do now.,Highly disagree,80/150,Somewhat agree,3,1698241895580,1698241900558,\Somewhat agree\,\Somewhat agree\,\3\,1698241900201,1698241900201,4621,4621,4978,buq,qns-item-noham,80,530773,0.0-1.0-0.79
<b>People are usually completely right or completely wrong.,Highly disagree,81/150,Somewhat disagree,2,1698241900559,1698241903833,\Somewhat disagree\,\Somewhat disagree\,\2\,1698241903369,1698241903369,2810,2810,3274,buq,qns-item-noham,81,534048,0.0-1.0-0.80
<b>I spend a lot of time considering alternatives to my beliefs.,Highly disagree,82/150,Highly disagree,1,1698241903834,1698241907274,\Highly disagree\,\Highly disagree\,\1\,1698241906723,1698241906723,2889,2889,3440,buq,qns-item-noham,82,537489,0.0-1.0-0.81
"<b>Political enemies need to be defeated, not convinced.",Highly disagree,83/150,Somewhat disagree,2,1698241907275,1698241911064,\Somewhat disagree\,\Somewhat disagree\,\2\,1698241910380,1698241910380,3105,3105,3789,buq,qns-item-noham,83,541279,0.0-1.0-0.82
"<b>When forming an opinion about a restaurant, I am more swayed by my  latest meal there than  previous meals I?ve had there.",Highly disagree,84/150,Somewhat agree,3,1698241911065,1698241917405,\Somewhat agree\,\Somewhat agree\,\3\,1698241916408,1698241916408,5343,5343,6340,buq,qns-item-noham,84,547620,0.0-1.0-0.83
<b>I try to remain skeptical about most topics.,Highly disagree,85/150,Somewhat disagree,2,1698241917406,1698241922923,\Somewhat disagree\,\Somewhat disagree\,\2\,1698241922555,1698241922555,5149,5149,5517,buq,qns-item-noham,85,553138,0.0-1.0-0.84
<b>Being wrong is usually obvious in retrospect.,Highly disagree,86/150,Somewhat agree,3,1698241922924,1698241928082,\Somewhat agree\,\Somewhat agree\,\3\,1698241927683,1698241927683,4759,4759,5158,buq,qns-item-noham,86,558297,0.0-1.0-0.85
<b>It can be hard to realize that my beliefs are in conflict.,Highly disagree,87/150,Somewhat agree,3,1698241928083,1698241932713,\Somewhat agree\,\Somewhat agree\,\3\,1698241931801,1698241931801,3718,3718,4630,buq,qns-item-noham,87,562928,0.0-1.0-0.86
<b>I form my political views only after meticulously gathering historical and present information about their policies.,Highly disagree,88/150,Somewhat disagree,2,1698241932714,1698241940698,\Somewhat disagree\,\Somewhat disagree\,\2\,1698241935639,1698241935639,2925,2925,7984,buq,qns-item-noham,88,570913,0.0-1.0-0.87
<b>Skeptical people are usually just bad-tempered.,Highly disagree,89/150,Highly disagree,1,1698241940699,1698241944880,\Somewhat disagree\,\Highly disagree\,\2\,1698241942899,1698241944156,2200,3457,4181,buq,qns-item-noham,89,575095,0.0-1.0-0.88
<b>It is difficult for me to remember the last time I was surprised by politics.,Highly disagree,90/150,Somewhat disagree,2,1698241944880,1698241949595,\Somewhat disagree\,\Somewhat disagree\,\2\,1698241949095,1698241949095,4215,4215,4715,buq,qns-item-noham,90,579811,0.0-1.0-0.89
"<b>When I find out I?m wrong, I think a lot about my related beliefs.",Highly disagree,91/150,Somewhat disagree,2,1698241949596,1698241955202,\Somewhat disagree\,\Somewhat disagree\,\2\,1698241954205,1698241954205,4609,4609,5606,buq,qns-item-noham,91,585417,0.0-1.0-0.90
"<b>If the political party I support messes up, it makes me think you can?t trust anyone these days",Highly disagree,92/150,Somewhat disagree,2,1698241955204,1698241961230,\Somewhat disagree\,\Somewhat disagree\,\2\,1698241960667,1698241960667,5463,5463,6026,buq,qns-item-noham,92,591445,0.0-1.0-0.91
<b>People?s brains turn off when they talk about politics.,Highly disagree,93/150,Somewhat agree,3,1698241961232,1698241965718,\Somewhat agree\,\Somewhat agree\,\3\,1698241964787,1698241964787,3555,3555,4486,buq,qns-item-noham,93,595934,0.0-1.0-0.92
<b>People who are wrong are usually just ignoring the obvious.,Highly disagree,94/150,Somewhat disagree,2,1698241965719,1698241971832,\Somewhat disagree\,\Somewhat disagree\,\2\,1698241971120,1698241971120,5401,5401,6113,buq,qns-item-noham,94,602047,0.0-1.0-0.93
"<b>The world isn?t that complicated, but it?s still hard to figure out how it works.",Highly disagree,95/150,Highly disagree,1,1698241971834,1698241976128,\Highly disagree\,\Highly disagree\,\1\,1698241975727,1698241975727,3893,3893,4294,buq,qns-item-noham,95,606343,0.0-1.0-0.94
"<b>When forming my views on people, I rely more on what they are like now rather than rely on my past experience with them.",Highly disagree,96/150,Somewhat agree,3,1698241976129,1698241986015,\Somewhat agree\,\Somewhat agree\,\3\,1698241984767,1698241984767,8638,8638,9886,buq,qns-item-noham,96,616230,0.0-1.0-0.95
"<b>When people contradict my beliefs, I usually know about their evidence already.",Highly disagree,97/150,Somewhat disagree,2,1698241986016,1698241992010,\Somewhat disagree\,\Somewhat disagree\,\2\,1698241991620,1698241991620,5604,5604,5994,buq,qns-item-noham,97,622225,0.0-1.0-0.96
<b>Being wrong is a matter of degree.,Highly disagree,98/150,Somewhat agree,3,1698241992011,1698241995552,\Somewhat agree\,\Somewhat agree\,\3\,1698241994447,1698241994447,2436,2436,3541,buq,qns-item-noham,98,625767,0.0-1.0-0.97
<b>Figuring out what?s true and what?s false mainly requires a strong moral compass.,Highly disagree,99/150,Highly disagree,1,1698241995552,1698242001619,\Highly disagree\,\Highly disagree\,\1\,1698242000599,1698242000599,5047,5047,6067,buq,qns-item-noham,99,631834,0.0-1.0-0.98
<b>Most of the beliefs people have are at least somewhat understandable.,Highly disagree,100/150,Somewhat agree,3,1698242001620,1698242007861,\Somewhat agree\,\Somewhat agree\,\3\,1698242007528,1698242007528,5908,5908,6241,buq,qns-item-noham,100,638076,0.0-1.0-0.99
"<b>Usually I?m wrong about simple things, not complicated ones.",Highly disagree,101/150,Somewhat disagree,2,1698242007862,1698242014273,\Somewhat disagree\,\Somewhat disagree\,\2\,1698242013595,1698242013595,5733,5733,6411,buq,qns-item-noham,101,644489,0.0-1.0-0.100
<b>Getting all the information I want about important things is hard.,Highly disagree,102/150,Somewhat agree,3,1698242014274,1698242023666,\Somewhat agree\,\Somewhat agree\,\3\,1698242022709,1698242022709,8435,8435,9392,buq,qns-item-noham,102,653881,0.0-1.0-0.101
<b>Most false beliefs spread because people try to deceive one another.,Highly disagree,103/150,Somewhat agree,3,1698242023667,1698242031253,\Highly agree\,\Somewhat agree\,\4\,1698242027867,1698242030003,4200,6336,7586,buq,qns-item-noham,103,661468,0.0-1.0-0.102
<b>I can usually find something to agree with in most people?s beliefs.,Highly disagree,104/150,Somewhat agree,3,1698242031254,1698242036800,\Somewhat agree\,\Somewhat agree\,\3\,1698242035082,1698242035082,3828,3828,5546,buq,qns-item-noham,104,667015,0.0-1.0-0.103
<b>I only form my views of people once I get to know them very well.,Highly disagree,105/150,Somewhat disagree,2,1698242036801,1698242042059,\Somewhat disagree\,\Somewhat disagree\,\2\,1698242041431,1698242041431,4630,4630,5258,buq,qns-item-noham,105,672274,0.0-1.0-0.104
"<b>When people tell me important things about the world, I usually believe them.",Highly disagree,106/150,Somewhat disagree,2,1698242042060,1698242046196,\Somewhat disagree\,\Somewhat disagree\,\2\,1698242045179,1698242045179,3119,3119,4136,buq,qns-item-noham,106,676411,0.0-1.0-0.105
"<b>If a friend does something that upsets me, it reminds me what an unpredictable place the world is.",Highly disagree,107/150,Somewhat agree,3,1698242046197,1698242051469,\Somewhat agree\,\Somewhat agree\,\3\,1698242050989,1698242050989,4792,4792,5272,buq,qns-item-noham,107,681684,0.0-1.0-0.106
<b>Having some conflicting beliefs is inevitable.,Highly disagree,108/150,Somewhat agree,3,1698242051470,1698242055068,\Somewhat agree\,\Somewhat agree\,\3\,1698242053625,1698242053625,2155,2155,3598,buq,qns-item-noham,108,685283,0.0-1.0-0.107
<b>People are wrong because they haven?t thought much about things.,Highly disagree,109/150,Somewhat disagree,2,1698242055069,1698242063106,\Somewhat disagree\,\Somewhat disagree\,\2\,1698242059182,1698242062712,4113,7643,8037,buq,qns-item-noham,109,693321,0.0-1.0-0.108
<b>People tend to believe whatever is good for their friends.,Highly disagree,110/150,Somewhat disagree,2,1698242063106,1698242069099,\Somewhat disagree\,\Somewhat disagree\,\2\,1698242068336,1698242068336,5230,5230,5993,buq,qns-item-noham,110,699315,0.0-1.0-0.109
"<b>When I talk about important topics, I try to make sure people know I?m not always right.",Highly disagree,111/150,Somewhat agree,3,1698242069101,1698242073161,\Somewhat agree\,\Somewhat agree\,\3\,1698242072687,1698242072687,3586,3586,4060,buq,qns-item-noham,111,703376,0.0-1.0-0.110
<b>I used to be more certain my beliefs were true.,Highly disagree,112/150,Somewhat agree,3,1698242073162,1698242077844,\Somewhat agree\,\Somewhat agree\,\3\,1698242077229,1698242077229,4067,4067,4682,buq,qns-item-noham,112,708059,0.0-1.0-0.111
<b>It?s often pretty easy to figure out whether something is true based on who said it.,Highly disagree,113/150,Somewhat agree,3,1698242077844,1698242089782,\Somewhat disagree\,\Somewhat agree\,\2\,1698242082751,1698242089467,4907,11623,11938,buq,qns-item-noham,113,719997,0.0-1.0-0.112
<b>Having bad food in my favorite restaurant will make me think the restaurant is no longer good.,Highly disagree,114/150,Somewhat agree,3,1698242089783,1698242094604,\Somewhat agree\,\Somewhat agree\,\3\,1698242093860,1698242093860,4077,4077,4821,buq,qns-item-noham,114,724819,0.0-1.0-0.113
<b>I transform into a hummingbird every day.,Highly disagree,115/150,Highly disagree,1,1698242094605,1698242097253,\Highly disagree\,\Highly disagree\,\1\,1698242096502,1698242096502,1897,1897,2648,buq,qns-item-noham,115,727468,0.0-1.0-0.114
"<b>Unfortunately, when people are wrong, it?s usually because they?re bad.",Highly disagree,116/150,Somewhat disagree,2,1698242097254,1698242102616,\Somewhat disagree\,\Somewhat disagree\,\2\,1698242101564,1698242101564,4310,4310,5362,buq,qns-item-noham,116,732831,0.0-1.0-0.115
<b>I think a lot about arguments against my views.,Highly disagree,117/150,Somewhat disagree,2,1698242102616,1698242105421,\Somewhat disagree\,\Somewhat disagree\,\2\,1698242104908,1698242104908,2292,2292,2805,buq,qns-item-noham,117,735636,0.0-1.0-0.116
<b>Details tend to matter a lot for knowing whether a policy is good.,Highly disagree,118/150,Somewhat agree,3,1698242105421,1698242108638,\Somewhat agree\,\Somewhat agree\,\3\,1698242108280,1698242108280,2859,2859,3217,buq,qns-item-noham,118,738853,0.0-1.0-0.117
<b>Personal experience is usually more important than facts and figures.,Highly disagree,119/150,Somewhat disagree,2,1698242108638,1698242112022,\Somewhat disagree\,\Somewhat disagree\,\2\,1698242111611,1698242111611,2973,2973,3384,buq,qns-item-noham,119,742237,0.0-1.0-0.118
<b>I?ve been tricked before about important matters.,Highly disagree,120/150,Somewhat agree,3,1698242112022,1698242116258,\Somewhat agree\,\Somewhat agree\,\3\,1698242115914,1698242115914,3892,3892,4236,buq,qns-item-noham,120,746473,0.0-1.0-0.119
<b>I would need to be totally wowed if I were to change my opinion of a restaurant I don?t like.,Highly disagree,121/150,Highly agree,4,1698242116258,1698242122921,\Somewhat agree\,\Highly agree\,\3\,1698242121445,1698242122166,5187,5908,6663,buq,qns-item-noham,121,753137,0.0-1.0-0.120
<b>I care a lot about politics.,Highly disagree,122/150,Somewhat agree,3,1698242122923,1698242124852,\Somewhat agree\,\Somewhat agree\,\3\,1698242124430,1698242124430,1507,1507,1929,buq,qns-item-noham,122,755067,0.0-1.0-0.121
<b>People with conflicting beliefs usually have some facts they disagree on.,Highly disagree,123/150,Somewhat agree,3,1698242124853,1698242129490,\Somewhat agree\,\Somewhat agree\,\3\,1698242128402,1698242128402,3549,3549,4637,buq,qns-item-noham,123,759705,0.0-1.0-0.122
<b>There are some topics I?ve been really wrong about.,Highly disagree,124/150,Somewhat disagree,2,1698242129491,1698242133660,\Somewhat disagree\,\Somewhat disagree\,\2\,1698242132732,1698242132732,3241,3241,4169,buq,qns-item-noham,124,763875,0.0-1.0-0.123
<b>Most beliefs can be supported with at least some evidence.,Highly disagree,125/150,Somewhat agree,3,1698242133661,1698242139431,\Somewhat agree\,\Somewhat agree\,\3\,1698242138928,1698242138928,5267,5267,5770,buq,qns-item-noham,125,769646,0.0-1.0-0.124
<b>Other people make life out to be more complicated than it really is.,Highly disagree,126/150,Highly disagree,1,1698242139432,1698242144999,\Highly disagree\,\Highly disagree\,\1\,1698242143976,1698242143976,4544,4544,5567,buq,qns-item-noham,126,775214,0.0-1.0-0.125
"<b>My political views are being shaped continuously as I gather more information, rather than relying on what I?ve known to be true of my party in the past. ",Highly disagree,127/150,Somewhat agree,3,1698242145000,1698242153860,\Somewhat agree\,\Somewhat agree\,\3\,1698242152503,1698242152503,7503,7503,8860,buq,qns-item-noham,127,784075,0.0-1.0-0.126
<b>It?s pretty unusual for true things to seem false.,Highly disagree,128/150,Somewhat disagree,2,1698242153861,1698242159119,\Somewhat disagree\,\Somewhat disagree\,\2\,1698242158696,1698242158696,4835,4835,5258,buq,qns-item-noham,128,789334,0.0-1.0-0.127
"<b>Policy details don?t matter much, just the big picture.",Highly disagree,129/150,Highly disagree,1,1698242159120,1698242162313,\Highly disagree\,\Highly disagree\,\1\,1698242161765,1698242161765,2645,2645,3193,buq,qns-item-noham,129,792528,0.0-1.0-0.128
<b>I know my friends so well they can hardly ever surprise me.,Highly disagree,130/150,Somewhat agree,3,1698242162314,1698242167396,\Somewhat agree\,\Somewhat agree\,\3\,1698242166486,1698242166486,4172,4172,5082,buq,qns-item-noham,130,797611,0.0-1.0-0.129
"<b>When I talk to people, I often think about why they have the beliefs they do.",Highly disagree,131/150,Highly disagree,1,1698242167397,1698242172932,\Highly disagree\,\Highly disagree\,\1\,1698242172473,1698242172473,5076,5076,5535,buq,qns-item-noham,131,803147,0.0-1.0-0.130
<b>I do not often change my views on people.,Highly disagree,132/150,Somewhat agree,3,1698242172932,1698242176749,\Somewhat agree\,\Somewhat agree\,\3\,1698242175486,1698242175486,2554,2554,3817,buq,qns-item-noham,132,806964,0.0-1.0-0.131
<b>I often wish I had more time to spend figuring out what?s true and what?s false in life.,Highly disagree,133/150,Somewhat disagree,2,1698242176750,1698242181028,\Somewhat disagree\,\Somewhat disagree\,\2\,1698242180519,1698242180519,3769,3769,4278,buq,qns-item-noham,133,811243,0.0-1.0-0.132
<b>I?m more certain about my beliefs than I used to be.,Highly disagree,134/150,Somewhat agree,3,1698242181030,1698242186268,\Somewhat agree\,\Somewhat agree\,\3\,1698242185752,1698242185752,4722,4722,5238,buq,qns-item-noham,134,816483,0.0-1.0-0.133
"<b>Whenever I find out new information, I update my views on politics accordingly.",Highly disagree,135/150,Somewhat disagree,2,1698242186269,1698242192368,\Somewhat disagree\,\Somewhat disagree\,\2\,1698242191931,1698242191931,5662,5662,6099,buq,qns-item-noham,135,822583,0.0-1.0-0.134
<b>People often tell falsehoods unintentionally.,Highly disagree,136/150,Somewhat disagree,2,1698242192369,1698242197193,\Somewhat disagree\,\Somewhat disagree\,\2\,1698242196697,1698242196697,4328,4328,4824,buq,qns-item-noham,136,827408,0.0-1.0-0.135
<b>Most people don?t know much about most things.,Highly disagree,137/150,Highly agree,4,1698242197194,1698242205394,\Somewhat agree\,\Highly agree\,\3\,1698242201917,1698242203938,4723,6744,8200,buq,qns-item-noham,137,835609,0.0-1.0-0.136
"<b>If I find out something new about someone, I easily change my views about them.",Highly disagree,138/150,Somewhat disagree,2,1698242205395,1698242212954,\Somewhat disagree\,\Somewhat disagree\,\2\,1698242212509,1698242212509,7114,7114,7559,buq,qns-item-noham,138,843169,0.0-1.0-0.137
<b>Having true beliefs is difficult.,Highly disagree,139/150,Somewhat agree,3,1698242212955,1698242219111,\Somewhat agree\,\Somewhat agree\,\3\,1698242218261,1698242218261,5306,5306,6156,buq,qns-item-noham,139,849326,0.0-1.0-0.138
<b>I don?t try new foods since I know I won?t like them.,Highly disagree,140/150,Somewhat agree,3,1698242219112,1698242223806,\Somewhat agree\,\Somewhat agree\,\3\,1698242223380,1698242223380,4268,4268,4694,buq,qns-item-noham,140,854021,0.0-1.0-0.139
<b>It?s easy to figure out what?s true or false based on who?s saying it.,Highly disagree,141/150,Somewhat agree,3,1698242223807,1698242230009,\Somewhat agree\,\Somewhat agree\,\3\,1698242228751,1698242228751,4944,4944,6202,buq,qns-item-noham,141,860224,0.0-1.0-0.140
<b>False things have seemed true to me many times.,Highly disagree,142/150,Somewhat agree,3,1698242230010,1698242236140,\Somewhat agree\,\Somewhat agree\,\3\,1698242235390,1698242235390,5380,5380,6130,buq,qns-item-noham,142,866355,0.0-1.0-0.141
<b>It?s pretty easy to sort out what?s true and what?s false in life.,Highly disagree,143/150,Highly disagree,1,1698242236140,1698242240119,\Highly disagree\,\Highly disagree\,\1\,1698242239496,1698242239496,3356,3356,3979,buq,qns-item-noham,143,870334,0.0-1.0-0.142
<b>Knowing lots of statistics about something is usually important for understanding it.,Highly disagree,144/150,Somewhat agree,3,1698242240119,1698242247866,\Somewhat agree\,\Somewhat agree\,\3\,1698242247401,1698242247401,7282,7282,7747,buq,qns-item-noham,144,878081,0.0-1.0-0.143
<b>Other people trick each other a lot.,Highly disagree,145/150,Somewhat agree,3,1698242247867,1698242250204,\Somewhat agree\,\Somewhat agree\,\3\,1698242249851,1698242249851,1984,1984,2337,buq,qns-item-noham,145,880419,0.0-1.0-0.144
<b>I would need to learn a lot about a person for my opinion of them to be swayed.,Highly disagree,146/150,Somewhat agree,3,1698242250206,1698242256588,\Somewhat agree\,\Somewhat agree\,\3\,1698242255114,1698242255114,4908,4908,6382,buq,qns-item-noham,146,886803,0.0-1.0-0.145
<b>People can?t usually trick me when it comes to topics I care about.,Highly disagree,147/150,Somewhat agree,3,1698242256589,1698242263107,\Somewhat disagree\,\Somewhat agree\,\2\,1698242261524,1698242262656,4935,6067,6518,buq,qns-item-noham,147,893322,0.0-1.0-0.146
<b>I do not often change my views on food.,Highly disagree,148/150,Highly agree,4,1698242263108,1698242268014,\Highly agree\,\Highly agree\,\4\,1698242267034,1698242267034,3926,3926,4906,buq,qns-item-noham,148,898229,0.0-1.0-0.147
<b>Specific policies are often very important to me.,Highly disagree,149/150,Somewhat agree,3,1698242268015,1698242272525,\Somewhat agree\,\Somewhat agree\,\3\,1698242272164,1698242272164,4149,4149,4510,buq,qns-item-noham,149,902740,0.0-1.0-0.148
<b>Most people are woefully under-informed.,Highly disagree,150/150,Highly agree,4,1698242272526,1698242275696,\Highly agree\,\Highly agree\,\4\,1698242274649,1698242274649,2123,2123,3170,buq,qns-item-noham,150,905911,0.0-1.0-0.149
