Question,qns_options,quest_num,answer,answer_num,question_load_timestamp,next_btn_timestamp,text_selected,final_text_selected,option_num_selected,preview_timestamps,final_text_selected_time_stamp,rt_first_option_click,rt_final_option_click,rt_submit_click,questionnaire,trial_type,trial_index,time_elapsed,internal_node_id
<b>Considering other people?s perspectives can help us figure out what?s true or false.,Highly disagree,1/150,Highly agree,4,1698242141712,1698242148929,\Highly agree\,\Highly agree\,\4\,1698242147657,1698242147657,5945,5945,7217,buq,qns-item-noham,1,12697,0.0-1.0-0.0
<b>Knowing what?s true and knowing what to do about it are usually basically the same.,Highly disagree,2/150,Somewhat agree,3,1698242148931,1698242153905,\Somewhat agree\,\Somewhat agree\,\3\,1698242153249,1698242153249,4318,4318,4974,buq,qns-item-noham,2,17673,0.0-1.0-0.1
<b>Most people just believe whatever is convenient for them.,Highly disagree,3/150,Somewhat agree,3,1698242153907,1698242157802,\Somewhat agree\,\Somewhat agree\,\3\,1698242157233,1698242157233,3326,3326,3895,buq,qns-item-noham,3,21570,0.0-1.0-0.2
<b>Even people who are wrong about most things can be right sometimes.,Highly disagree,4/150,Somewhat agree,3,1698242157803,1698242165130,\Somewhat agree\,\Somewhat agree\,\3\,1698242164569,1698242164569,6766,6766,7327,buq,qns-item-noham,4,28898,0.0-1.0-0.3
"<b>If the political party I support does something that upsets me, then the party may have changed, and I need to re-evaluate my support.",Highly disagree,5/150,Highly agree,4,1698242165131,1698242172409,\Somewhat agree\,\Highly agree\,\3\,1698242170921,1698242171769,5790,6638,7278,buq,qns-item-noham,5,36177,0.0-1.0-0.4
"<b>When people disagree, one side is usually completely right.",Highly disagree,6/150,Somewhat disagree,2,1698242172410,1698242176082,\Somewhat disagree\,\Somewhat disagree\,\2\,1698242175281,1698242175281,2871,2871,3672,buq,qns-item-noham,6,39850,0.0-1.0-0.5
<b>People have lots of false beliefs.,Highly disagree,7/150,Somewhat agree,3,1698242176083,1698242179185,\Somewhat agree\,\Somewhat agree\,\3\,1698242178578,1698242178578,2495,2495,3102,buq,qns-item-noham,7,42953,0.0-1.0-0.6
<b>Having some big beliefs helps me sort out minor ones.,Highly disagree,8/150,Somewhat agree,3,1698242179186,1698242183794,\Somewhat agree\,\Somewhat agree\,\3\,1698242183033,1698242183033,3847,3847,4608,buq,qns-item-noham,8,47562,0.0-1.0-0.7
<b>Political questions are usually pretty complicated.,Highly disagree,9/150,Highly agree,4,1698242183794,1698242186513,\Highly agree\,\Highly agree\,\4\,1698242185802,1698242185802,2008,2008,2719,buq,qns-item-noham,9,50281,0.0-1.0-0.8
<b>Figuring out what?s important in life requires learning a lot of facts.,Highly disagree,10/150,Somewhat agree,3,1698242186514,1698242189897,\Somewhat agree\,\Somewhat agree\,\3\,1698242189329,1698242189329,2815,2815,3383,buq,qns-item-noham,10,53666,0.0-1.0-0.9
<b>It is difficult for me to remember the last time I was surprised by politics.,Highly disagree,11/150,Somewhat disagree,2,1698242189899,1698242196170,\Somewhat disagree\,\Somewhat disagree\,\2\,1698242195473,1698242195473,5574,5574,6271,buq,qns-item-noham,11,59938,0.0-1.0-0.10
<b>People?s false beliefs are understandable.,Highly disagree,12/150,Somewhat agree,3,1698242196171,1698242198594,\Somewhat agree\,\Somewhat agree\,\3\,1698242198049,1698242198049,1878,1878,2423,buq,qns-item-noham,12,62362,0.0-1.0-0.11
<b>I spend a lot of time trying to be informed about politics.,Highly disagree,13/150,Somewhat agree,3,1698242198595,1698242202730,\Somewhat agree\,\Somewhat agree\,\3\,1698242202097,1698242202097,3502,3502,4135,buq,qns-item-noham,13,66498,0.0-1.0-0.12
<b>I think a lot about whether my beliefs are right.,Highly disagree,14/150,Somewhat agree,3,1698242202730,1698242207082,\Somewhat agree\,\Somewhat agree\,\3\,1698242206514,1698242206514,3784,3784,4352,buq,qns-item-noham,14,70850,0.0-1.0-0.13
<b>Statistics can be pretty misleading sometimes.,Highly disagree,15/150,Somewhat agree,3,1698242207084,1698242209081,\Somewhat agree\,\Somewhat agree\,\3\,1698242208561,1698242208561,1477,1477,1997,buq,qns-item-noham,15,72849,0.0-1.0-0.14
<b>Figuring out what?s true and what?s false takes a lot of time and effort.,Highly disagree,16/150,Somewhat agree,3,1698242209082,1698242214370,\Somewhat agree\,\Somewhat agree\,\3\,1698242210617,1698242210617,1535,1535,5288,buq,qns-item-noham,16,78138,0.0-1.0-0.15
"<b>If a friend does something bad to me, it was likely an error on their part.",Highly disagree,17/150,Somewhat agree,3,1698242214370,1698242220129,\Somewhat disagree\,\Somewhat agree\,\2\,1698242218801,1698242219561,4431,5191,5759,buq,qns-item-noham,17,83897,0.0-1.0-0.16
<b>I have lots of beliefs that I?m only sort of sure about.,Highly disagree,18/150,Highly agree,4,1698242220131,1698242224601,\Highly agree\,\Highly agree\,\4\,1698242224049,1698242224049,3918,3918,4470,buq,qns-item-noham,18,88369,0.0-1.0-0.17
"<b>If I go to my favorite restaurant and the food is surprisingly bad, it reminds me there are many disappointments in life.",Highly disagree,19/150,Highly agree,4,1698242224602,1698242230066,\Highly agree\,\Highly agree\,\4\,1698242229186,1698242229425,4584,4823,5464,buq,qns-item-noham,19,93834,0.0-1.0-0.18
<b>Sometimes my beliefs are inconvenient for me.,Highly disagree,20/150,Highly agree,4,1698242230067,1698242232377,\Highly agree\,\Highly agree\,\4\,1698242231754,1698242231754,1687,1687,2310,buq,qns-item-noham,20,96145,0.0-1.0-0.19
<b>Paying attention to multiple news sources is important.,Highly disagree,21/150,Highly agree,4,1698242232378,1698242234938,\Highly agree\,\Highly agree\,\4\,1698242234257,1698242234257,1879,1879,2560,buq,qns-item-noham,21,98706,0.0-1.0-0.20
"<b>If you are paying attention, please select ?Somewhat agree?",Highly disagree,22/150,Somewhat agree,3,1698242234940,1698242237737,\Somewhat agree\,\Somewhat agree\,\3\,1698242236834,1698242236834,1894,1894,2797,buq,qns-item-noham,22,101505,0.0-1.0-0.21
"<b>When I talk to others, I often worry I?ll convince them of something I didn?t mean to.",Highly disagree,23/150,Highly agree,4,1698242237739,1698242244465,\Highly agree\,\Highly agree\,\4\,1698242243945,1698242243945,6206,6206,6726,buq,qns-item-noham,23,108233,0.0-1.0-0.22
<b>I would need to learn something utterly shocking about my party in order to change my political views.,Highly disagree,24/150,Somewhat disagree,2,1698242244466,1698242249673,\Somewhat disagree\,\Somewhat disagree\,\2\,1698242248929,1698242248929,4463,4463,5207,buq,qns-item-noham,24,113441,0.0-1.0-0.23
"<b>When I have new experiences, I tend to think of them as unique.",Highly disagree,25/150,Somewhat agree,3,1698242249674,1698242253697,\Somewhat agree\,\Somewhat agree\,\3\,1698242253082,1698242253082,3408,3408,4023,buq,qns-item-noham,25,117465,0.0-1.0-0.24
<b>Reading lots of things is important for understanding the world.,Highly disagree,26/150,Highly agree,4,1698242253698,1698242256234,\Highly agree\,\Highly agree\,\4\,1698242255633,1698242255633,1935,1935,2536,buq,qns-item-noham,26,120002,0.0-1.0-0.25
<b>The world is complicated.,Highly disagree,27/150,Highly agree,4,1698242256235,1698242257873,\Highly agree\,\Highly agree\,\4\,1698242257265,1698242257265,1030,1030,1638,buq,qns-item-noham,27,121642,0.0-1.0-0.26
<b>I change my mind about specific policies pretty frequently.,Highly disagree,28/150,Somewhat disagree,2,1698242257874,1698242263682,\Highly agree\,\Somewhat disagree\,\4\,1698242260289,1698242262969,2415,5095,5808,buq,qns-item-noham,28,127450,0.0-1.0-0.27
"<b>If a politician in my political party supports something I disagree with, I give them the benefit of the doubt, as such issues often involve hidden complexities that aren?t obvious.   ",Highly disagree,29/150,Highly agree,4,1698242263683,1698242271986,\Highly agree\,\Highly agree\,\4\,1698242271282,1698242271282,7599,7599,8303,buq,qns-item-noham,29,135754,0.0-1.0-0.28
<b>People?s bad politics are usually motivated by hatefulness.,Highly disagree,30/150,Somewhat agree,3,1698242271989,1698242277138,\Somewhat agree\,\Somewhat agree\,\3\,1698242276346,1698242276346,4357,4357,5149,buq,qns-item-noham,30,140906,0.0-1.0-0.29
"<b>Most new experiences are just like old ones, but a little bit different.",Highly disagree,31/150,Highly agree,4,1698242277140,1698242280345,\Highly agree\,\Highly agree\,\4\,1698242279577,1698242279577,2437,2437,3205,buq,qns-item-noham,31,144114,0.0-1.0-0.30
<b>I think a lot about how to reconcile my beliefs with one another.,Highly disagree,32/150,Highly agree,4,1698242280347,1698242283970,\Highly agree\,\Highly agree\,\4\,1698242282993,1698242282993,2646,2646,3623,buq,qns-item-noham,32,147738,0.0-1.0-0.31
<b>Personal experience rarely leads people astray.,Highly disagree,33/150,Somewhat disagree,2,1698242283971,1698242289258,\Highly agree\,\Somewhat disagree\,\4\,1698242285434,1698242288353,1463,4382,5287,buq,qns-item-noham,33,153026,0.0-1.0-0.32
<b>I might have false beliefs about important topics.,Highly disagree,34/150,Highly agree,4,1698242289258,1698242292490,\Highly agree\,\Highly agree\,\4\,1698242291697,1698242291697,2439,2439,3232,buq,qns-item-noham,34,156258,0.0-1.0-0.33
"<b>If a good friend of mine does something unexpected that upsets me, I feel like I don?t know them anymore.",Highly disagree,35/150,Somewhat agree,3,1698242292491,1698242300105,\Somewhat agree\,\Somewhat agree\,\3\,1698242299274,1698242299274,6783,6783,7614,buq,qns-item-noham,35,163873,0.0-1.0-0.34
<b>Other people?s beliefs are often incoherent.,Highly disagree,36/150,Highly agree,4,1698242300106,1698242304257,\Highly agree\,\Highly agree\,\4\,1698242303633,1698242303633,3527,3527,4151,buq,qns-item-noham,36,168025,0.0-1.0-0.35
<b>It?s important to have friends who think about things differently than I do.,Highly disagree,37/150,Highly agree,4,1698242304258,1698242309330,\Highly agree\,\Highly agree\,\4\,1698242308801,1698242308801,4543,4543,5072,buq,qns-item-noham,37,173098,0.0-1.0-0.36
"<b>Every now and then, a new experience will unsettle beliefs I?ve had for a while.",Highly disagree,38/150,Highly agree,4,1698242309331,1698242311681,\Highly agree\,\Highly agree\,\4\,1698242311129,1698242311129,1798,1798,2350,buq,qns-item-noham,38,175449,0.0-1.0-0.37
<b>Some policies I agree with in principle are so bad I don?t support them. ,Highly disagree,39/150,Highly agree,4,1698242311683,1698242318834,\Highly agree\,\Highly agree\,\4\,1698242318177,1698242318177,6494,6494,7151,buq,qns-item-noham,39,182603,0.0-1.0-0.38
<b>I?m pretty sure I?ve accidentally spread false information.,Highly disagree,40/150,Highly agree,4,1698242318836,1698242322481,\Highly agree\,\Highly agree\,\4\,1698242321905,1698242321905,3069,3069,3645,buq,qns-item-noham,40,186250,0.0-1.0-0.39
"<b>If I go to my favorite restaurant and the food is unexpectedly bad, then they have changed owners.",Highly disagree,41/150,Somewhat disagree,2,1698242322483,1698242327002,\Somewhat disagree\,\Somewhat disagree\,\2\,1698242326457,1698242326457,3974,3974,4519,buq,qns-item-noham,41,190770,0.0-1.0-0.40
"<b>In politics, it?s important to trust your friends and family.",Highly disagree,42/150,Somewhat disagree,2,1698242327003,1698242331842,\Somewhat disagree\,\Somewhat disagree\,\2\,1698242331377,1698242331377,4374,4374,4839,buq,qns-item-noham,42,195610,0.0-1.0-0.41
<b>It?s OK to have some conflicting beliefs.,Highly disagree,43/150,Highly agree,4,1698242331842,1698242334378,\Highly agree\,\Highly agree\,\4\,1698242333810,1698242333810,1968,1968,2536,buq,qns-item-noham,43,198146,0.0-1.0-0.42
<b>Sometimes the details of a matter seem to conflict with the big picture.,Highly disagree,44/150,Highly agree,4,1698242334380,1698242339314,\Highly agree\,\Highly agree\,\4\,1698242338826,1698242338826,4446,4446,4934,buq,qns-item-noham,44,203082,0.0-1.0-0.43
<b>Listening to people I disagree with makes my opinions better.,Highly disagree,45/150,Highly agree,4,1698242339317,1698242341153,\Highly agree\,\Highly agree\,\4\,1698242340577,1698242340577,1260,1260,1836,buq,qns-item-noham,45,204921,0.0-1.0-0.44
<b>Policies that sound bad are sometimes fine when you find out about their details.,Highly disagree,46/150,Highly agree,4,1698242341155,1698242344578,\Highly agree\,\Highly agree\,\4\,1698242343977,1698242343977,2822,2822,3423,buq,qns-item-noham,46,208346,0.0-1.0-0.45
"<b>The world is always changing, so my beliefs are sometimes out-dated.",Highly disagree,47/150,Highly agree,4,1698242344579,1698242345666,\Highly agree\,\Highly agree\,\4\,1698242345201,1698242345201,622,622,1087,buq,qns-item-noham,47,209434,0.0-1.0-0.46
"<b>If I receive a bad meal at my favorite restaurant and the food is surprisingly bad, I do not think much of it, and assume the chef is just having an ?off? day.",Highly disagree,48/150,Highly agree,4,1698242345667,1698242350234,\Highly agree\,\Highly agree\,\4\,1698242346273,1698242346273,606,606,4567,buq,qns-item-noham,48,214002,0.0-1.0-0.47
"<b>False information is unavoidable, to some extent.",Highly disagree,49/150,Somewhat agree,3,1698242350234,1698242352849,\Somewhat agree\,\Somewhat agree\,\3\,1698242352329,1698242352329,2095,2095,2615,buq,qns-item-noham,49,216617,0.0-1.0-0.48
<b>My moral compass sometimes makes it harder to determine what?s true.,Highly disagree,50/150,Somewhat disagree,2,1698242352850,1698242358202,\Somewhat agree\,\Somewhat disagree\,\3\,1698242354914,1698242356561,2064,3711,5352,buq,qns-item-noham,50,221970,0.0-1.0-0.49
"<b>When you disagree with someone, it?s important to listen to them carefully.",Highly disagree,51/150,Highly agree,4,1698242358203,1698242361130,\Highly agree\,\Highly agree\,\4\,1698242360497,1698242360497,2294,2294,2927,buq,qns-item-noham,51,224899,0.0-1.0-0.50
<b>Evidence pointing in the wrong direction isn?t really evidence at all.,Highly disagree,52/150,Highly disagree,1,1698242361132,1698242365385,\Highly disagree\,\Highly disagree\,\1\,1698242364793,1698242364793,3661,3661,4253,buq,qns-item-noham,52,229153,0.0-1.0-0.51
"<b>If the political party I support messes up, it makes me think politics is rotten.",Highly disagree,53/150,Somewhat agree,3,1698242365386,1698242369873,\Somewhat agree\,\Somewhat agree\,\3\,1698242369369,1698242369369,3983,3983,4487,buq,qns-item-noham,53,233641,0.0-1.0-0.52
<b>Lots of important topics can only really be understood by some groups of people.,Highly disagree,54/150,Highly agree,4,1698242369874,1698242374329,\Highly agree\,\Highly agree\,\4\,1698242373569,1698242373569,3695,3695,4455,buq,qns-item-noham,54,238097,0.0-1.0-0.53
<b>Details almost always matter for being right about something.,Highly disagree,55/150,Highly agree,4,1698242374332,1698242378538,\Highly agree\,\Highly agree\,\4\,1698242378018,1698242378018,3686,3686,4206,buq,qns-item-noham,55,242306,0.0-1.0-0.54
"<b>The most important thing in politics is winning, not convincing people.",Highly disagree,56/150,Highly disagree,1,1698242378539,1698242382162,\Highly disagree\,\Highly disagree\,\1\,1698242381521,1698242381521,2982,2982,3623,buq,qns-item-noham,56,245930,0.0-1.0-0.55
<b>Having conflicting beliefs means you haven?t thought about them enough.,Highly disagree,57/150,Somewhat disagree,2,1698242382163,1698242385962,\Somewhat disagree\,\Somewhat disagree\,\2\,1698242385297,1698242385297,3134,3134,3799,buq,qns-item-noham,57,249730,0.0-1.0-0.56
<b>Other people have sometimes convinced me to change my mind on important topics.,Highly disagree,58/150,Somewhat agree,3,1698242385963,1698242389905,\Somewhat agree\,\Somewhat agree\,\3\,1698242389257,1698242389257,3294,3294,3942,buq,qns-item-noham,58,253673,0.0-1.0-0.57
<b>I do not often change my political opinions.,Highly disagree,59/150,Somewhat agree,3,1698242389906,1698242393065,\Somewhat agree\,\Somewhat agree\,\3\,1698242392538,1698242392538,2632,2632,3159,buq,qns-item-noham,59,256833,0.0-1.0-0.58
<b>Thinking about how different things relate to one another is critical in life.,Highly disagree,60/150,Somewhat agree,3,1698242393066,1698242395801,\Somewhat agree\,\Somewhat agree\,\3\,1698242394706,1698242394706,1640,1640,2735,buq,qns-item-noham,60,259569,0.0-1.0-0.59
<b>True beliefs can have unfortunate implications.,Highly disagree,61/150,Highly agree,4,1698242395802,1698242400426,\Highly agree\,\Highly agree\,\4\,1698242399913,1698242399913,4111,4111,4624,buq,qns-item-noham,61,264194,0.0-1.0-0.60
<b>It?s difficult to not have at least some conflicting beliefs.,Highly disagree,62/150,Highly agree,4,1698242400430,1698242417090,\Highly agree\,\Highly agree\,\4\,1698242416546,1698242416546,16116,16116,16660,buq,qns-item-noham,62,280858,0.0-1.0-0.61
"<b>When I learn new things, I think deeply about how my opinions should change.",Highly disagree,63/150,Highly agree,4,1698242417092,1698242419913,\Highly agree\,\Highly agree\,\4\,1698242419409,1698242419409,2317,2317,2821,buq,qns-item-noham,63,283682,0.0-1.0-0.62
<b>I think a lot about how to interpret different sorts of evidence.,Highly disagree,64/150,Highly agree,4,1698242419914,1698242421625,\Highly agree\,\Highly agree\,\4\,1698242420859,1698242420859,945,945,1711,buq,qns-item-noham,64,285393,0.0-1.0-0.63
<b>Politics is about thinking together and finding compromises.,Highly disagree,65/150,Highly agree,4,1698242421628,1698242424402,\Highly agree\,\Highly agree\,\4\,1698242422386,1698242422386,758,758,2774,buq,qns-item-noham,65,288170,0.0-1.0-0.64
<b>Wishful thinking causes a lot of problems.,Highly disagree,66/150,Highly agree,4,1698242424402,1698242428689,\Highly agree\,\Highly agree\,\4\,1698242428114,1698242428114,3712,3712,4287,buq,qns-item-noham,66,292457,0.0-1.0-0.65
<b>I judge a food item only once I try it many times.,Highly disagree,67/150,Highly agree,4,1698242428691,1698242433610,\Highly agree\,\Highly agree\,\4\,1698242433025,1698242433025,4334,4334,4919,buq,qns-item-noham,67,297378,0.0-1.0-0.66
"<b>When a person holds conflicting beliefs, they should really try to figure out what?s wrong.",Highly disagree,68/150,Somewhat agree,3,1698242433612,1698242437746,\Highly agree\,\Somewhat agree\,\4\,1698242434593,1698242437266,981,3654,4134,buq,qns-item-noham,68,301514,0.0-1.0-0.67
<b>Knowing what?s important in life is easy.,Highly disagree,69/150,Highly disagree,1,1698242437747,1698242442097,\Highly disagree\,\Highly disagree\,\1\,1698242441362,1698242441362,3615,3615,4350,buq,qns-item-noham,69,305865,0.0-1.0-0.68
<b>Lots of smart people disagree about basic political questions.,Highly disagree,70/150,Highly agree,4,1698242442099,1698242445690,\Highly agree\,\Highly agree\,\4\,1698242445081,1698242445081,2982,2982,3591,buq,qns-item-noham,70,309458,0.0-1.0-0.69
<b>I swim across the Atlantic Ocean to get to work every day.,Highly disagree,71/150,Highly disagree,1,1698242445691,1698242448650,\Highly disagree\,\Highly disagree\,\1\,1698242447937,1698242447937,2246,2246,2959,buq,qns-item-noham,71,312418,0.0-1.0-0.70
"<b>Sometimes, you just have to ignore evidence that you know is wrong.",Highly disagree,72/150,Somewhat disagree,2,1698242448651,1698242463738,\Somewhat disagree\,\Somewhat disagree\,\2\,1698242463049,1698242463049,14398,14398,15087,buq,qns-item-noham,72,327507,0.0-1.0-0.71
<b>I have had some false beliefs.,Highly disagree,73/150,Highly agree,4,1698242463742,1698242466298,\Highly agree\,\Highly agree\,\4\,1698242465761,1698242465761,2019,2019,2556,buq,qns-item-noham,73,330066,0.0-1.0-0.72
"<b>If one friend does something that upsets me, I sometimes start to distrust people in general.",Highly disagree,74/150,Somewhat disagree,2,1698242466299,1698242470291,\Somewhat disagree\,\Somewhat disagree\,\2\,1698242469849,1698242469849,3550,3550,3992,buq,qns-item-noham,74,334059,0.0-1.0-0.73
<b>I easily apply what I learn in one situation to another.,Highly disagree,75/150,Highly agree,4,1698242470292,1698242474074,\Highly agree\,\Highly agree\,\4\,1698242473425,1698242473425,3133,3133,3782,buq,qns-item-noham,75,337842,0.0-1.0-0.74
<b>The facts about most important matters are easy to find.,Highly disagree,76/150,Highly agree,4,1698242474076,1698242476954,\Highly agree\,\Highly agree\,\4\,1698242476441,1698242476441,2365,2365,2878,buq,qns-item-noham,76,340722,0.0-1.0-0.75
<b>It?s better to know what?s true than to know what?s moral.,Highly disagree,77/150,Highly disagree,1,1698242476956,1698242507185,\Highly disagree\,\Highly disagree\,\1\,1698242506594,1698242506594,29638,29638,30229,buq,qns-item-noham,77,370953,0.0-1.0-0.76
<b>It?s good to be skeptical of people you agree with.,Highly disagree,78/150,Highly agree,4,1698242507187,1698242509554,\Highly agree\,\Highly agree\,\4\,1698242509010,1698242509010,1823,1823,2367,buq,qns-item-noham,78,373322,0.0-1.0-0.77
<b>Sometimes reasonable beliefs are wrong.,Highly disagree,79/150,Highly agree,4,1698242509555,1698242511729,\Highly agree\,\Highly agree\,\4\,1698242511217,1698242511217,1662,1662,2174,buq,qns-item-noham,79,375497,0.0-1.0-0.78
<b>I used to think the world was less complicated than I do now.,Highly disagree,80/150,Highly agree,4,1698242511730,1698242514729,\Highly agree\,\Highly agree\,\4\,1698242514209,1698242514209,2479,2479,2999,buq,qns-item-noham,80,378497,0.0-1.0-0.79
<b>People are usually completely right or completely wrong.,Highly disagree,81/150,Highly disagree,1,1698242514730,1698242517689,\Highly disagree\,\Highly disagree\,\1\,1698242517081,1698242517081,2351,2351,2959,buq,qns-item-noham,81,381457,0.0-1.0-0.80
<b>I spend a lot of time considering alternatives to my beliefs.,Highly disagree,82/150,Highly agree,4,1698242517690,1698242520058,\Highly agree\,\Highly agree\,\4\,1698242519570,1698242519570,1880,1880,2368,buq,qns-item-noham,82,383826,0.0-1.0-0.81
"<b>Political enemies need to be defeated, not convinced.",Highly disagree,83/150,Highly disagree,1,1698242520059,1698242523570,\Highly disagree\,\Highly disagree\,\1\,1698242522706,1698242522706,2647,2647,3511,buq,qns-item-noham,83,387338,0.0-1.0-0.82
"<b>When forming an opinion about a restaurant, I am more swayed by my  latest meal there than  previous meals I?ve had there.",Highly disagree,84/150,Highly agree,4,1698242523572,1698242528546,\Highly agree\,\Highly agree\,\4\,1698242528050,1698242528050,4478,4478,4974,buq,qns-item-noham,84,392314,0.0-1.0-0.83
<b>I try to remain skeptical about most topics.,Highly disagree,85/150,Highly agree,4,1698242528548,1698242532818,\Highly agree\,\Highly agree\,\4\,1698242532378,1698242532378,3830,3830,4270,buq,qns-item-noham,85,396586,0.0-1.0-0.84
<b>Being wrong is usually obvious in retrospect.,Highly disagree,86/150,Highly agree,4,1698242532821,1698242534914,\Highly agree\,\Highly agree\,\4\,1698242534345,1698242534345,1524,1524,2093,buq,qns-item-noham,86,398682,0.0-1.0-0.85
<b>It can be hard to realize that my beliefs are in conflict.,Highly disagree,87/150,Highly agree,4,1698242534915,1698242538754,\Highly agree\,\Highly agree\,\4\,1698242537970,1698242537970,3055,3055,3839,buq,qns-item-noham,87,402522,0.0-1.0-0.86
<b>I form my political views only after meticulously gathering historical and present information about their policies.,Highly disagree,88/150,Highly agree,4,1698242538754,1698242541569,\Highly agree\,\Highly agree\,\4\,1698242540946,1698242540946,2192,2192,2815,buq,qns-item-noham,88,405338,0.0-1.0-0.87
<b>Skeptical people are usually just bad-tempered.,Highly disagree,89/150,Somewhat disagree,2,1698242541571,1698242544162,\Somewhat disagree\,\Somewhat disagree\,\2\,1698242543697,1698242543697,2126,2126,2591,buq,qns-item-noham,89,407930,0.0-1.0-0.88
<b>It is difficult for me to remember the last time I was surprised by politics.,Highly disagree,90/150,Highly agree,4,1698242544163,1698242552929,\Highly agree\,\Highly agree\,\4\,1698242552441,1698242552441,8278,8278,8766,buq,qns-item-noham,90,416697,0.0-1.0-0.89
"<b>When I find out I?m wrong, I think a lot about my related beliefs.",Highly disagree,91/150,Highly agree,4,1698242552930,1698242555130,\Highly agree\,\Highly agree\,\4\,1698242554634,1698242554634,1704,1704,2200,buq,qns-item-noham,91,418898,0.0-1.0-0.90
"<b>If the political party I support messes up, it makes me think you can?t trust anyone these days",Highly disagree,92/150,Highly agree,4,1698242555130,1698242556881,\Highly agree\,\Highly agree\,\4\,1698242556010,1698242556010,880,880,1751,buq,qns-item-noham,92,420649,0.0-1.0-0.91
<b>People?s brains turn off when they talk about politics.,Highly disagree,93/150,Highly agree,4,1698242556882,1698242558001,\Highly agree\,\Highly agree\,\4\,1698242557561,1698242557561,679,679,1119,buq,qns-item-noham,93,421769,0.0-1.0-0.92
<b>People who are wrong are usually just ignoring the obvious.,Highly disagree,94/150,Somewhat disagree,2,1698242558003,1698242581841,\Somewhat disagree\,\Somewhat disagree\,\2\,1698242581209,1698242581209,23206,23206,23838,buq,qns-item-noham,94,445609,0.0-1.0-0.93
"<b>The world isn?t that complicated, but it?s still hard to figure out how it works.",Highly disagree,95/150,Somewhat disagree,2,1698242581842,1698242587114,\Somewhat disagree\,\Somewhat disagree\,\2\,1698242586434,1698242586434,4592,4592,5272,buq,qns-item-noham,95,450882,0.0-1.0-0.94
"<b>When forming my views on people, I rely more on what they are like now rather than rely on my past experience with them.",Highly disagree,96/150,Somewhat agree,3,1698242587115,1698242592601,\Somewhat disagree\,\Somewhat agree\,\2\,1698242590833,1698242591761,3718,4646,5486,buq,qns-item-noham,96,456370,0.0-1.0-0.95
"<b>When people contradict my beliefs, I usually know about their evidence already.",Highly disagree,97/150,Highly agree,4,1698242592603,1698242595609,\Highly agree\,\Highly agree\,\4\,1698242594922,1698242594922,2319,2319,3006,buq,qns-item-noham,97,459378,0.0-1.0-0.96
<b>Being wrong is a matter of degree.,Highly disagree,98/150,Somewhat agree,3,1698242595611,1698242597849,\Somewhat agree\,\Somewhat agree\,\3\,1698242597393,1698242597393,1782,1782,2238,buq,qns-item-noham,98,461618,0.0-1.0-0.97
<b>Figuring out what?s true and what?s false mainly requires a strong moral compass.,Highly disagree,99/150,Somewhat agree,3,1698242597851,1698242599449,\Somewhat agree\,\Somewhat agree\,\3\,1698242599001,1698242599001,1150,1150,1598,buq,qns-item-noham,99,463217,0.0-1.0-0.98
<b>Most of the beliefs people have are at least somewhat understandable.,Highly disagree,100/150,Somewhat agree,3,1698242599452,1698242603674,\Somewhat disagree\,\Somewhat agree\,\2\,1698242602425,1698242603218,2973,3766,4222,buq,qns-item-noham,100,467442,0.0-1.0-0.99
"<b>Usually I?m wrong about simple things, not complicated ones.",Highly disagree,101/150,Somewhat disagree,2,1698242603675,1698242607899,\Somewhat disagree\,\Somewhat disagree\,\2\,1698242607194,1698242607194,3519,3519,4224,buq,qns-item-noham,101,471667,0.0-1.0-0.100
<b>Getting all the information I want about important things is hard.,Highly disagree,102/150,Highly agree,4,1698242607900,1698242611290,\Highly agree\,\Highly agree\,\4\,1698242610649,1698242610649,2749,2749,3390,buq,qns-item-noham,102,475058,0.0-1.0-0.101
<b>Most false beliefs spread because people try to deceive one another.,Highly disagree,103/150,Somewhat agree,3,1698242611291,1698242615473,\Highly agree\,\Somewhat agree\,\4\,1698242613305,1698242614114,2014,2823,4182,buq,qns-item-noham,103,479242,0.0-1.0-0.102
<b>I can usually find something to agree with in most people?s beliefs.,Highly disagree,104/150,Somewhat agree,3,1698242615475,1698242618554,\Somewhat agree\,\Somewhat agree\,\3\,1698242617697,1698242617697,2222,2222,3079,buq,qns-item-noham,104,482322,0.0-1.0-0.103
<b>I only form my views of people once I get to know them very well.,Highly disagree,105/150,Highly agree,4,1698242618555,1698242622658,\Highly agree\,\Highly agree\,\4\,1698242622146,1698242622146,3591,3591,4103,buq,qns-item-noham,105,486426,0.0-1.0-0.104
"<b>When people tell me important things about the world, I usually believe them.",Highly disagree,106/150,Somewhat agree,3,1698242622659,1698242624433,\Somewhat agree\,\Somewhat agree\,\3\,1698242623993,1698242623993,1334,1334,1774,buq,qns-item-noham,106,488201,0.0-1.0-0.105
"<b>If a friend does something that upsets me, it reminds me what an unpredictable place the world is.",Highly disagree,107/150,Somewhat disagree,2,1698242624434,1698242627746,\Somewhat disagree\,\Somewhat disagree\,\2\,1698242627001,1698242627001,2567,2567,3312,buq,qns-item-noham,107,491514,0.0-1.0-0.106
<b>Having some conflicting beliefs is inevitable.,Highly disagree,108/150,Somewhat agree,3,1698242627747,1698242630698,\Somewhat agree\,\Somewhat agree\,\3\,1698242630185,1698242630185,2438,2438,2951,buq,qns-item-noham,108,494466,0.0-1.0-0.107
<b>People are wrong because they haven?t thought much about things.,Highly disagree,109/150,Somewhat agree,3,1698242630699,1698242633825,\Somewhat agree\,\Somewhat agree\,\3\,1698242633033,1698242633033,2334,2334,3126,buq,qns-item-noham,109,497593,0.0-1.0-0.108
<b>People tend to believe whatever is good for their friends.,Highly disagree,110/150,Somewhat agree,3,1698242633826,1698242640753,\Somewhat agree\,\Somewhat agree\,\3\,1698242640274,1698242640274,6448,6448,6927,buq,qns-item-noham,110,504521,0.0-1.0-0.109
"<b>When I talk about important topics, I try to make sure people know I?m not always right.",Highly disagree,111/150,Somewhat agree,3,1698242640754,1698242643930,\Somewhat agree\,\Somewhat agree\,\3\,1698242643457,1698242643457,2703,2703,3176,buq,qns-item-noham,111,507698,0.0-1.0-0.110
<b>I used to be more certain my beliefs were true.,Highly disagree,112/150,Highly agree,4,1698242643931,1698242668810,\Highly agree\,\Highly agree\,\4\,1698242668234,1698242668234,24303,24303,24879,buq,qns-item-noham,112,532578,0.0-1.0-0.111
<b>It?s often pretty easy to figure out whether something is true based on who said it.,Highly disagree,113/150,Highly agree,4,1698242668812,1698242671586,\Highly agree\,\Highly agree\,\4\,1698242670954,1698242670954,2142,2142,2774,buq,qns-item-noham,113,535355,0.0-1.0-0.112
<b>Having bad food in my favorite restaurant will make me think the restaurant is no longer good.,Highly disagree,114/150,Highly agree,4,1698242671587,1698242674146,\Highly agree\,\Highly agree\,\4\,1698242673585,1698242673585,1998,1998,2559,buq,qns-item-noham,114,537914,0.0-1.0-0.113
<b>I transform into a hummingbird every day.,Highly disagree,115/150,Highly disagree,1,1698242674146,1698242676858,\Highly disagree\,\Highly disagree\,\1\,1698242676273,1698242676273,2127,2127,2712,buq,qns-item-noham,115,540626,0.0-1.0-0.114
"<b>Unfortunately, when people are wrong, it?s usually because they?re bad.",Highly disagree,116/150,Highly disagree,1,1698242676859,1698242680378,\Highly disagree\,\Highly disagree\,\1\,1698242679625,1698242679625,2766,2766,3519,buq,qns-item-noham,116,544146,0.0-1.0-0.115
<b>I think a lot about arguments against my views.,Highly disagree,117/150,Somewhat agree,3,1698242680379,1698242683649,\Somewhat agree\,\Somewhat agree\,\3\,1698242682770,1698242682770,2391,2391,3270,buq,qns-item-noham,117,547418,0.0-1.0-0.116
<b>Details tend to matter a lot for knowing whether a policy is good.,Highly disagree,118/150,Highly agree,4,1698242683651,1698242686681,\Highly agree\,\Highly agree\,\4\,1698242685834,1698242685834,2183,2183,3030,buq,qns-item-noham,118,550449,0.0-1.0-0.117
<b>Personal experience is usually more important than facts and figures.,Highly disagree,119/150,Highly disagree,1,1698242686683,1698242690545,\Highly disagree\,\Highly disagree\,\1\,1698242689857,1698242689857,3174,3174,3862,buq,qns-item-noham,119,554313,0.0-1.0-0.118
<b>I?ve been tricked before about important matters.,Highly disagree,120/150,Somewhat disagree,2,1698242690546,1698242693545,\Somewhat disagree\,\Somewhat disagree\,\2\,1698242692978,1698242692978,2432,2432,2999,buq,qns-item-noham,120,557313,0.0-1.0-0.119
<b>I would need to be totally wowed if I were to change my opinion of a restaurant I don?t like.,Highly disagree,121/150,Highly agree,4,1698242693546,1698242698890,\Highly agree\,\Highly agree\,\4\,1698242698202,1698242698202,4656,4656,5344,buq,qns-item-noham,121,562658,0.0-1.0-0.120
<b>I care a lot about politics.,Highly disagree,122/150,Highly agree,4,1698242698891,1698242701033,\Highly agree\,\Highly agree\,\4\,1698242700474,1698242700474,1583,1583,2142,buq,qns-item-noham,122,564802,0.0-1.0-0.121
<b>People with conflicting beliefs usually have some facts they disagree on.,Highly disagree,123/150,Somewhat agree,3,1698242701035,1698242707073,\Somewhat agree\,\Somewhat agree\,\3\,1698242706514,1698242706514,5479,5479,6038,buq,qns-item-noham,123,570842,0.0-1.0-0.122
<b>There are some topics I?ve been really wrong about.,Highly disagree,124/150,Somewhat agree,3,1698242707076,1698242710921,\Somewhat agree\,\Somewhat agree\,\3\,1698242710170,1698242710170,3094,3094,3845,buq,qns-item-noham,124,574689,0.0-1.0-0.123
<b>Most beliefs can be supported with at least some evidence.,Highly disagree,125/150,Highly agree,4,1698242710922,1698242714290,\Highly agree\,\Highly agree\,\4\,1698242713714,1698242713714,2792,2792,3368,buq,qns-item-noham,125,578058,0.0-1.0-0.124
<b>Other people make life out to be more complicated than it really is.,Highly disagree,126/150,Highly disagree,1,1698242714292,1698242718178,\Highly disagree\,\Highly disagree\,\1\,1698242717545,1698242717545,3253,3253,3886,buq,qns-item-noham,126,581946,0.0-1.0-0.125
"<b>My political views are being shaped continuously as I gather more information, rather than relying on what I?ve known to be true of my party in the past. ",Highly disagree,127/150,Highly agree,4,1698242718179,1698242723002,\Highly agree\,\Highly agree\,\4\,1698242722146,1698242722146,3967,3967,4823,buq,qns-item-noham,127,586770,0.0-1.0-0.126
<b>It?s pretty unusual for true things to seem false.,Highly disagree,128/150,Highly disagree,1,1698242723004,1698242726674,\Highly disagree\,\Highly disagree\,\1\,1698242726145,1698242726145,3141,3141,3670,buq,qns-item-noham,128,590443,0.0-1.0-0.127
"<b>Policy details don?t matter much, just the big picture.",Highly disagree,129/150,Highly disagree,1,1698242726677,1698242729074,\Highly disagree\,\Highly disagree\,\1\,1698242728490,1698242728490,1813,1813,2397,buq,qns-item-noham,129,592842,0.0-1.0-0.128
<b>I know my friends so well they can hardly ever surprise me.,Highly disagree,130/150,Somewhat disagree,2,1698242729075,1698242732193,\Somewhat disagree\,\Somewhat disagree\,\2\,1698242731705,1698242731705,2630,2630,3118,buq,qns-item-noham,130,595961,0.0-1.0-0.129
"<b>When I talk to people, I often think about why they have the beliefs they do.",Highly disagree,131/150,Somewhat agree,3,1698242732194,1698242735970,\Somewhat agree\,\Somewhat agree\,\3\,1698242735121,1698242735121,2927,2927,3776,buq,qns-item-noham,131,599738,0.0-1.0-0.130
<b>I do not often change my views on people.,Highly disagree,132/150,Somewhat agree,3,1698242735972,1698242742705,\Somewhat agree\,\Somewhat agree\,\3\,1698242741553,1698242741553,5581,5581,6733,buq,qns-item-noham,132,606473,0.0-1.0-0.131
<b>I often wish I had more time to spend figuring out what?s true and what?s false in life.,Highly disagree,133/150,Highly agree,4,1698242742707,1698242745930,\Highly agree\,\Highly agree\,\4\,1698242745401,1698242745401,2694,2694,3223,buq,qns-item-noham,133,609698,0.0-1.0-0.132
<b>I?m more certain about my beliefs than I used to be.,Highly disagree,134/150,Highly agree,4,1698242745931,1698242749297,\Highly agree\,\Highly agree\,\4\,1698242748777,1698242748777,2846,2846,3366,buq,qns-item-noham,134,613065,0.0-1.0-0.133
"<b>Whenever I find out new information, I update my views on politics accordingly.",Highly disagree,135/150,Highly agree,4,1698242749298,1698242751571,\Highly agree\,\Highly agree\,\4\,1698242750746,1698242750746,1448,1448,2273,buq,qns-item-noham,135,615339,0.0-1.0-0.134
<b>People often tell falsehoods unintentionally.,Highly disagree,136/150,Highly agree,4,1698242751572,1698242753818,\Highly agree\,\Highly agree\,\4\,1698242753337,1698242753337,1765,1765,2246,buq,qns-item-noham,136,617586,0.0-1.0-0.135
<b>Most people don?t know much about most things.,Highly disagree,137/150,Highly agree,4,1698242753819,1698242755641,\Highly agree\,\Highly agree\,\4\,1698242754914,1698242754914,1095,1095,1822,buq,qns-item-noham,137,619409,0.0-1.0-0.136
"<b>If I find out something new about someone, I easily change my views about them.",Highly disagree,138/150,Somewhat disagree,2,1698242755642,1698242758913,\Somewhat agree\,\Somewhat disagree\,\3\,1698242757865,1698242758466,2223,2824,3271,buq,qns-item-noham,138,622681,0.0-1.0-0.137
<b>Having true beliefs is difficult.,Highly disagree,139/150,Somewhat agree,3,1698242758914,1698242762273,\Somewhat agree\,\Somewhat agree\,\3\,1698242760978,1698242760978,2064,2064,3359,buq,qns-item-noham,139,626041,0.0-1.0-0.138
<b>I don?t try new foods since I know I won?t like them.,Highly disagree,140/150,Somewhat disagree,2,1698242762274,1698242765201,\Somewhat disagree\,\Somewhat disagree\,\2\,1698242764658,1698242764658,2384,2384,2927,buq,qns-item-noham,140,628969,0.0-1.0-0.139
<b>It?s easy to figure out what?s true or false based on who?s saying it.,Highly disagree,141/150,Somewhat agree,3,1698242765202,1698242774217,\Somewhat agree\,\Somewhat agree\,\3\,1698242773697,1698242773697,8495,8495,9015,buq,qns-item-noham,141,637985,0.0-1.0-0.140
<b>False things have seemed true to me many times.,Highly disagree,142/150,Somewhat agree,3,1698242774218,1698242776697,\Somewhat agree\,\Somewhat agree\,\3\,1698242776218,1698242776218,2000,2000,2479,buq,qns-item-noham,142,640465,0.0-1.0-0.141
<b>It?s pretty easy to sort out what?s true and what?s false in life.,Highly disagree,143/150,Highly agree,4,1698242776699,1698242778946,\Highly agree\,\Highly agree\,\4\,1698242778513,1698242778513,1814,1814,2247,buq,qns-item-noham,143,642714,0.0-1.0-0.142
<b>Knowing lots of statistics about something is usually important for understanding it.,Highly disagree,144/150,Somewhat agree,3,1698242778947,1698242780161,\Somewhat agree\,\Somewhat agree\,\3\,1698242779745,1698242779745,798,798,1214,buq,qns-item-noham,144,643930,0.0-1.0-0.143
<b>Other people trick each other a lot.,Highly disagree,145/150,Highly agree,4,1698242780162,1698242781098,\Highly agree\,\Highly agree\,\4\,1698242780641,1698242780641,479,479,936,buq,qns-item-noham,145,644866,0.0-1.0-0.144
<b>I would need to learn a lot about a person for my opinion of them to be swayed.,Highly disagree,146/150,Somewhat agree,3,1698242781099,1698242782106,\Somewhat agree\,\Somewhat agree\,\3\,1698242781729,1698242781729,630,630,1007,buq,qns-item-noham,146,645874,0.0-1.0-0.145
<b>People can?t usually trick me when it comes to topics I care about.,Highly disagree,147/150,Highly agree,4,1698242782107,1698242783050,\Highly agree\,\Highly agree\,\4\,1698242782618,1698242782618,511,511,943,buq,qns-item-noham,147,646818,0.0-1.0-0.146
<b>I do not often change my views on food.,Highly disagree,148/150,Somewhat agree,3,1698242783051,1698242785378,\Somewhat agree\,\Somewhat agree\,\3\,1698242783649,1698242783649,598,598,2327,buq,qns-item-noham,148,649146,0.0-1.0-0.147
<b>Specific policies are often very important to me.,Highly disagree,149/150,Highly agree,4,1698242785379,1698242790906,\Somewhat agree\,\Highly agree\,\3\,1698242786338,1698242790082,959,4703,5527,buq,qns-item-noham,149,654674,0.0-1.0-0.148
<b>Most people are woefully under-informed.,Highly disagree,150/150,Highly agree,4,1698242790910,1698242793794,\Highly agree\,\Highly agree\,\4\,1698242793266,1698242793266,2356,2356,2884,buq,qns-item-noham,150,657562,0.0-1.0-0.149
