Question,qns_options,quest_num,answer,answer_num,question_load_timestamp,next_btn_timestamp,text_selected,final_text_selected,option_num_selected,preview_timestamps,final_text_selected_time_stamp,rt_first_option_click,rt_final_option_click,rt_submit_click,questionnaire,trial_type,trial_index,time_elapsed,internal_node_id
<b>Considering other people?s perspectives can help us figure out what?s true or false.,Highly disagree,1/150,Somewhat agree,3,1698242053789,1698242060464,\Somewhat agree\,\Somewhat agree\,\3\,1698242059613,1698242059613,5824,5824,6675,buq,qns-item-noham,1,11729,0.0-1.0-0.0
<b>Knowing what?s true and knowing what to do about it are usually basically the same.,Highly disagree,2/150,Somewhat agree,3,1698242060470,1698242064471,\Somewhat agree\,\Somewhat agree\,\3\,1698242063758,1698242063758,3288,3288,4001,buq,qns-item-noham,2,15736,0.0-1.0-0.1
<b>Most people just believe whatever is convenient for them.,Highly disagree,3/150,Somewhat agree,3,1698242064472,1698242069332,\Somewhat agree\,\Somewhat agree\,\3\,1698242068443,1698242068443,3971,3971,4860,buq,qns-item-noham,3,20597,0.0-1.0-0.2
<b>Even people who are wrong about most things can be right sometimes.,Highly disagree,4/150,Somewhat agree,3,1698242069334,1698242072170,\Somewhat agree\,\Somewhat agree\,\3\,1698242071488,1698242071488,2154,2154,2836,buq,qns-item-noham,4,23435,0.0-1.0-0.3
"<b>If the political party I support does something that upsets me, then the party may have changed, and I need to re-evaluate my support.",Highly disagree,5/150,Somewhat disagree,2,1698242072172,1698242078119,\Somewhat disagree\,\Somewhat disagree\,\2\,1698242077235,1698242077235,5063,5063,5947,buq,qns-item-noham,5,29384,0.0-1.0-0.4
"<b>When people disagree, one side is usually completely right.",Highly disagree,6/150,Highly disagree,1,1698242078120,1698242082254,\Highly disagree\,\Highly disagree\,\1\,1698242080834,1698242080834,2714,2714,4134,buq,qns-item-noham,6,33519,0.0-1.0-0.5
<b>People have lots of false beliefs.,Highly disagree,7/150,Somewhat agree,3,1698242082256,1698242086680,\Somewhat agree\,\Somewhat agree\,\3\,1698242085154,1698242085154,2898,2898,4424,buq,qns-item-noham,7,37945,0.0-1.0-0.6
<b>Having some big beliefs helps me sort out minor ones.,Highly disagree,8/150,Somewhat agree,3,1698242086681,1698242092437,\Somewhat disagree\,\Somewhat agree\,\2\,1698242089952,1698242091855,3271,5174,5756,buq,qns-item-noham,8,43703,0.0-1.0-0.7
<b>Political questions are usually pretty complicated.,Highly disagree,9/150,Somewhat agree,3,1698242092440,1698242094519,\Somewhat agree\,\Somewhat agree\,\3\,1698242094026,1698242094026,1586,1586,2079,buq,qns-item-noham,9,45784,0.0-1.0-0.8
<b>Figuring out what?s important in life requires learning a lot of facts.,Highly disagree,10/150,Highly disagree,1,1698242094520,1698242098953,\Highly disagree\,\Highly disagree\,\1\,1698242098601,1698242098601,4081,4081,4433,buq,qns-item-noham,10,50218,0.0-1.0-0.9
<b>It is difficult for me to remember the last time I was surprised by politics.,Highly disagree,11/150,Somewhat disagree,2,1698242098955,1698242101997,\Somewhat disagree\,\Somewhat disagree\,\2\,1698242101616,1698242101616,2661,2661,3042,buq,qns-item-noham,11,53262,0.0-1.0-0.10
<b>People?s false beliefs are understandable.,Highly disagree,12/150,Somewhat agree,3,1698242101998,1698242104385,\Somewhat agree\,\Somewhat agree\,\3\,1698242104055,1698242104055,2057,2057,2387,buq,qns-item-noham,12,55650,0.0-1.0-0.11
<b>I spend a lot of time trying to be informed about politics.,Highly disagree,13/150,Highly disagree,1,1698242104388,1698242107074,\Highly disagree\,\Highly disagree\,\1\,1698242106784,1698242106784,2396,2396,2686,buq,qns-item-noham,13,58339,0.0-1.0-0.12
<b>I think a lot about whether my beliefs are right.,Highly disagree,14/150,Highly disagree,1,1698242107075,1698242109246,\Highly disagree\,\Highly disagree\,\1\,1698242108868,1698242108868,1793,1793,2171,buq,qns-item-noham,14,60511,0.0-1.0-0.13
<b>Statistics can be pretty misleading sometimes.,Highly disagree,15/150,Somewhat agree,3,1698242109248,1698242111889,\Somewhat disagree\,\Somewhat agree\,\2\,1698242111152,1698242111532,1904,2284,2641,buq,qns-item-noham,15,63154,0.0-1.0-0.14
<b>Figuring out what?s true and what?s false takes a lot of time and effort.,Highly disagree,16/150,Somewhat agree,3,1698242111890,1698242114044,\Somewhat agree\,\Somewhat agree\,\3\,1698242113641,1698242113641,1751,1751,2154,buq,qns-item-noham,16,65309,0.0-1.0-0.15
"<b>If a friend does something bad to me, it was likely an error on their part.",Highly disagree,17/150,Somewhat disagree,2,1698242114048,1698242116674,\Somewhat disagree\,\Somewhat disagree\,\2\,1698242116218,1698242116218,2170,2170,2626,buq,qns-item-noham,17,67940,0.0-1.0-0.16
<b>I have lots of beliefs that I?m only sort of sure about.,Highly disagree,18/150,Somewhat agree,3,1698242116677,1698242118808,\Somewhat agree\,\Somewhat agree\,\3\,1698242118415,1698242118415,1738,1738,2131,buq,qns-item-noham,18,70073,0.0-1.0-0.17
"<b>If I go to my favorite restaurant and the food is surprisingly bad, it reminds me there are many disappointments in life.",Highly disagree,19/150,Somewhat agree,3,1698242118811,1698242122428,\Somewhat agree\,\Somewhat agree\,\3\,1698242121408,1698242121408,2597,2597,3617,buq,qns-item-noham,19,73693,0.0-1.0-0.18
<b>Sometimes my beliefs are inconvenient for me.,Highly disagree,20/150,Highly agree,4,1698242122429,1698242125325,\Highly agree\,\Highly agree\,\4\,1698242124907,1698242124907,2478,2478,2896,buq,qns-item-noham,20,76590,0.0-1.0-0.19
<b>Paying attention to multiple news sources is important.,Highly disagree,21/150,Somewhat agree,3,1698242125327,1698242127661,\Somewhat agree\,\Somewhat agree\,\3\,1698242127319,1698242127319,1992,1992,2334,buq,qns-item-noham,21,78927,0.0-1.0-0.20
"<b>If you are paying attention, please select ?Somewhat agree?",Highly disagree,22/150,Somewhat agree,3,1698242127663,1698242130403,\Somewhat agree\,\Somewhat agree\,\3\,1698242129746,1698242129746,2083,2083,2740,buq,qns-item-noham,22,81668,0.0-1.0-0.21
"<b>When I talk to others, I often worry I?ll convince them of something I didn?t mean to.",Highly disagree,23/150,Highly disagree,1,1698242130404,1698242133951,\Highly disagree\,\Highly disagree\,\1\,1698242133309,1698242133309,2905,2905,3547,buq,qns-item-noham,23,85216,0.0-1.0-0.22
<b>I would need to learn something utterly shocking about my party in order to change my political views.,Highly disagree,24/150,Somewhat agree,3,1698242133952,1698242139901,\Somewhat agree\,\Somewhat agree\,\3\,1698242139281,1698242139281,5329,5329,5949,buq,qns-item-noham,24,91166,0.0-1.0-0.23
"<b>When I have new experiences, I tend to think of them as unique.",Highly disagree,25/150,Somewhat disagree,2,1698242139903,1698242144537,\Somewhat disagree\,\Somewhat disagree\,\2\,1698242144082,1698242144082,4179,4179,4634,buq,qns-item-noham,25,95802,0.0-1.0-0.24
<b>Reading lots of things is important for understanding the world.,Highly disagree,26/150,Somewhat agree,3,1698242144539,1698242146687,\Somewhat agree\,\Somewhat agree\,\3\,1698242146216,1698242146216,1677,1677,2148,buq,qns-item-noham,26,97952,0.0-1.0-0.25
<b>The world is complicated.,Highly disagree,27/150,Somewhat agree,3,1698242146689,1698242148326,\Somewhat agree\,\Somewhat agree\,\3\,1698242147859,1698242147859,1170,1170,1637,buq,qns-item-noham,27,99591,0.0-1.0-0.26
<b>I change my mind about specific policies pretty frequently.,Highly disagree,28/150,Somewhat disagree,2,1698242148327,1698242151095,\Somewhat disagree\,\Somewhat disagree\,\2\,1698242150652,1698242150652,2325,2325,2768,buq,qns-item-noham,28,102360,0.0-1.0-0.27
"<b>If a politician in my political party supports something I disagree with, I give them the benefit of the doubt, as such issues often involve hidden complexities that aren?t obvious.   ",Highly disagree,29/150,Somewhat agree,3,1698242151098,1698242155160,\Somewhat agree\,\Somewhat agree\,\3\,1698242154683,1698242154683,3585,3585,4062,buq,qns-item-noham,29,106425,0.0-1.0-0.28
<b>People?s bad politics are usually motivated by hatefulness.,Highly disagree,30/150,Somewhat agree,3,1698242155162,1698242158180,\Somewhat agree\,\Somewhat agree\,\3\,1698242157787,1698242157787,2625,2625,3018,buq,qns-item-noham,30,109445,0.0-1.0-0.29
"<b>Most new experiences are just like old ones, but a little bit different.",Highly disagree,31/150,Somewhat agree,3,1698242158181,1698242160654,\Somewhat agree\,\Somewhat agree\,\3\,1698242160161,1698242160161,1980,1980,2473,buq,qns-item-noham,31,111919,0.0-1.0-0.30
<b>I think a lot about how to reconcile my beliefs with one another.,Highly disagree,32/150,Somewhat disagree,2,1698242160656,1698242163408,\Somewhat disagree\,\Somewhat disagree\,\2\,1698242162827,1698242162827,2171,2171,2752,buq,qns-item-noham,32,114673,0.0-1.0-0.31
<b>Personal experience rarely leads people astray.,Highly disagree,33/150,Somewhat disagree,2,1698242163409,1698242166509,\Somewhat disagree\,\Somewhat disagree\,\2\,1698242165917,1698242165917,2508,2508,3100,buq,qns-item-noham,33,117774,0.0-1.0-0.32
<b>I might have false beliefs about important topics.,Highly disagree,34/150,Somewhat disagree,2,1698242166510,1698242168746,\Somewhat disagree\,\Somewhat disagree\,\2\,1698242168314,1698242168314,1804,1804,2236,buq,qns-item-noham,34,120011,0.0-1.0-0.33
"<b>If a good friend of mine does something unexpected that upsets me, I feel like I don?t know them anymore.",Highly disagree,35/150,Somewhat disagree,2,1698242168748,1698242172498,\Somewhat disagree\,\Somewhat disagree\,\2\,1698242172028,1698242172028,3280,3280,3750,buq,qns-item-noham,35,123763,0.0-1.0-0.34
<b>Other people?s beliefs are often incoherent.,Highly disagree,36/150,Somewhat disagree,2,1698242172499,1698242175503,\Somewhat disagree\,\Somewhat disagree\,\2\,1698242175060,1698242175060,2561,2561,3004,buq,qns-item-noham,36,126768,0.0-1.0-0.35
<b>It?s important to have friends who think about things differently than I do.,Highly disagree,37/150,Somewhat agree,3,1698242175504,1698242178310,\Somewhat agree\,\Somewhat agree\,\3\,1698242177868,1698242177868,2364,2364,2806,buq,qns-item-noham,37,129575,0.0-1.0-0.36
"<b>Every now and then, a new experience will unsettle beliefs I?ve had for a while.",Highly disagree,38/150,Somewhat agree,3,1698242178311,1698242181200,\Somewhat agree\,\Somewhat agree\,\3\,1698242180834,1698242180834,2523,2523,2889,buq,qns-item-noham,38,132465,0.0-1.0-0.37
<b>Some policies I agree with in principle are so bad I don?t support them. ,Highly disagree,39/150,Somewhat disagree,2,1698242181203,1698242185382,\Somewhat disagree\,\Somewhat disagree\,\2\,1698242184827,1698242184827,3624,3624,4179,buq,qns-item-noham,39,136647,0.0-1.0-0.38
<b>I?m pretty sure I?ve accidentally spread false information.,Highly disagree,40/150,Somewhat agree,3,1698242185383,1698242188402,\Somewhat agree\,\Somewhat agree\,\3\,1698242187578,1698242187578,2195,2195,3019,buq,qns-item-noham,40,139667,0.0-1.0-0.39
"<b>If I go to my favorite restaurant and the food is unexpectedly bad, then they have changed owners.",Highly disagree,41/150,Somewhat disagree,2,1698242188403,1698242192418,\Somewhat disagree\,\Somewhat disagree\,\2\,1698242191926,1698242191926,3523,3523,4015,buq,qns-item-noham,41,143683,0.0-1.0-0.40
"<b>In politics, it?s important to trust your friends and family.",Highly disagree,42/150,Somewhat agree,3,1698242192419,1698242195949,\Highly agree\,\Somewhat agree\,\4\,1698242194711,1698242195404,2292,2985,3530,buq,qns-item-noham,42,147214,0.0-1.0-0.41
<b>It?s OK to have some conflicting beliefs.,Highly disagree,43/150,Somewhat agree,3,1698242195950,1698242198154,\Somewhat agree\,\Somewhat agree\,\3\,1698242197688,1698242197688,1738,1738,2204,buq,qns-item-noham,43,149419,0.0-1.0-0.42
<b>Sometimes the details of a matter seem to conflict with the big picture.,Highly disagree,44/150,Somewhat agree,3,1698242198155,1698242200388,\Somewhat agree\,\Somewhat agree\,\3\,1698242199920,1698242199920,1765,1765,2233,buq,qns-item-noham,44,151653,0.0-1.0-0.43
<b>Listening to people I disagree with makes my opinions better.,Highly disagree,45/150,Somewhat agree,3,1698242200389,1698242202916,\Somewhat agree\,\Somewhat agree\,\3\,1698242202446,1698242202446,2057,2057,2527,buq,qns-item-noham,45,154181,0.0-1.0-0.44
<b>Policies that sound bad are sometimes fine when you find out about their details.,Highly disagree,46/150,Somewhat agree,3,1698242202917,1698242206025,\Somewhat agree\,\Somewhat agree\,\3\,1698242205610,1698242205610,2693,2693,3108,buq,qns-item-noham,46,157290,0.0-1.0-0.45
"<b>The world is always changing, so my beliefs are sometimes out-dated.",Highly disagree,47/150,Somewhat disagree,2,1698242206027,1698242209564,\Somewhat disagree\,\Somewhat disagree\,\2\,1698242209146,1698242209146,3119,3119,3537,buq,qns-item-noham,47,160829,0.0-1.0-0.46
"<b>If I receive a bad meal at my favorite restaurant and the food is surprisingly bad, I do not think much of it, and assume the chef is just having an ?off? day.",Highly disagree,48/150,Somewhat agree,3,1698242209565,1698242213076,\Somewhat agree\,\Somewhat agree\,\3\,1698242212484,1698242212484,2919,2919,3511,buq,qns-item-noham,48,164341,0.0-1.0-0.47
"<b>False information is unavoidable, to some extent.",Highly disagree,49/150,Somewhat agree,3,1698242213077,1698242215491,\Somewhat agree\,\Somewhat agree\,\3\,1698242215237,1698242215237,2160,2160,2414,buq,qns-item-noham,49,166756,0.0-1.0-0.48
<b>My moral compass sometimes makes it harder to determine what?s true.,Highly disagree,50/150,Somewhat agree,3,1698242215492,1698242220601,\Somewhat agree\,\Somewhat agree\,\3\,1698242219728,1698242219728,4236,4236,5109,buq,qns-item-noham,50,171866,0.0-1.0-0.49
"<b>When you disagree with someone, it?s important to listen to them carefully.",Highly disagree,51/150,Somewhat agree,3,1698242220603,1698242223408,\Somewhat agree\,\Somewhat agree\,\3\,1698242222554,1698242222554,1951,1951,2805,buq,qns-item-noham,51,174673,0.0-1.0-0.50
<b>Evidence pointing in the wrong direction isn?t really evidence at all.,Highly disagree,52/150,Somewhat disagree,2,1698242223410,1698242229419,\Somewhat agree\,\Somewhat disagree\,\3\,1698242225608,1698242228528,2198,5118,6009,buq,qns-item-noham,52,180684,0.0-1.0-0.51
"<b>If the political party I support messes up, it makes me think politics is rotten.",Highly disagree,53/150,Somewhat agree,3,1698242229421,1698242231686,\Somewhat agree\,\Somewhat agree\,\3\,1698242231331,1698242231331,1910,1910,2265,buq,qns-item-noham,53,182952,0.0-1.0-0.52
<b>Lots of important topics can only really be understood by some groups of people.,Highly disagree,54/150,Somewhat agree,3,1698242231689,1698242235587,\Somewhat agree\,\Somewhat agree\,\3\,1698242234630,1698242234630,2941,2941,3898,buq,qns-item-noham,54,186852,0.0-1.0-0.53
<b>Details almost always matter for being right about something.,Highly disagree,55/150,Somewhat agree,3,1698242235589,1698242238844,\Somewhat agree\,\Somewhat agree\,\3\,1698242237989,1698242237989,2400,2400,3255,buq,qns-item-noham,55,190109,0.0-1.0-0.54
"<b>The most important thing in politics is winning, not convincing people.",Highly disagree,56/150,Somewhat agree,3,1698242238846,1698242242573,\Somewhat agree\,\Somewhat agree\,\3\,1698242241653,1698242241653,2807,2807,3727,buq,qns-item-noham,56,193838,0.0-1.0-0.55
<b>Having conflicting beliefs means you haven?t thought about them enough.,Highly disagree,57/150,Somewhat disagree,2,1698242242575,1698242246646,\Somewhat disagree\,\Somewhat disagree\,\2\,1698242245917,1698242245917,3342,3342,4071,buq,qns-item-noham,57,197911,0.0-1.0-0.56
<b>Other people have sometimes convinced me to change my mind on important topics.,Highly disagree,58/150,Somewhat agree,3,1698242246647,1698242249694,\Somewhat agree\,\Somewhat agree\,\3\,1698242248930,1698242248930,2283,2283,3047,buq,qns-item-noham,58,200959,0.0-1.0-0.57
<b>I do not often change my political opinions.,Highly disagree,59/150,Somewhat agree,3,1698242249696,1698242252038,\Somewhat agree\,\Somewhat agree\,\3\,1698242251212,1698242251212,1516,1516,2342,buq,qns-item-noham,59,203303,0.0-1.0-0.58
<b>Thinking about how different things relate to one another is critical in life.,Highly disagree,60/150,Somewhat agree,3,1698242252040,1698242254474,\Somewhat agree\,\Somewhat agree\,\3\,1698242253665,1698242253665,1625,1625,2434,buq,qns-item-noham,60,205739,0.0-1.0-0.59
<b>True beliefs can have unfortunate implications.,Highly disagree,61/150,Somewhat agree,3,1698242254475,1698242257368,\Somewhat agree\,\Somewhat agree\,\3\,1698242256397,1698242256397,1922,1922,2893,buq,qns-item-noham,61,208633,0.0-1.0-0.60
<b>It?s difficult to not have at least some conflicting beliefs.,Highly disagree,62/150,Somewhat agree,3,1698242257370,1698242261532,\Somewhat agree\,\Somewhat agree\,\3\,1698242260786,1698242260786,3416,3416,4162,buq,qns-item-noham,62,212797,0.0-1.0-0.61
"<b>When I learn new things, I think deeply about how my opinions should change.",Highly disagree,63/150,Somewhat disagree,2,1698242261533,1698242264505,\Somewhat disagree\,\Somewhat disagree\,\2\,1698242263787,1698242263787,2254,2254,2972,buq,qns-item-noham,63,215770,0.0-1.0-0.62
<b>I think a lot about how to interpret different sorts of evidence.,Highly disagree,64/150,Somewhat disagree,2,1698242264506,1698242267729,\Somewhat disagree\,\Somewhat disagree\,\2\,1698242266862,1698242266862,2356,2356,3223,buq,qns-item-noham,64,218994,0.0-1.0-0.63
<b>Politics is about thinking together and finding compromises.,Highly disagree,65/150,Somewhat agree,3,1698242267730,1698242270376,\Somewhat agree\,\Somewhat agree\,\3\,1698242269653,1698242269653,1923,1923,2646,buq,qns-item-noham,65,221641,0.0-1.0-0.64
<b>Wishful thinking causes a lot of problems.,Highly disagree,66/150,Somewhat agree,3,1698242270377,1698242274852,\Somewhat agree\,\Somewhat agree\,\3\,1698242272707,1698242272707,2330,2330,4475,buq,qns-item-noham,66,226117,0.0-1.0-0.65
<b>I judge a food item only once I try it many times.,Highly disagree,67/150,Somewhat disagree,2,1698242274854,1698242281697,\Somewhat disagree\,\Somewhat disagree\,\2\,1698242280716,1698242280716,5862,5862,6843,buq,qns-item-noham,67,232962,0.0-1.0-0.66
"<b>When a person holds conflicting beliefs, they should really try to figure out what?s wrong.",Highly disagree,68/150,Somewhat disagree,2,1698242281699,1698242285049,\Somewhat disagree\,\Somewhat disagree\,\2\,1698242284314,1698242284314,2615,2615,3350,buq,qns-item-noham,68,236314,0.0-1.0-0.67
<b>Knowing what?s important in life is easy.,Highly disagree,69/150,Somewhat disagree,2,1698242285051,1698242287782,\Somewhat disagree\,\Somewhat disagree\,\2\,1698242287106,1698242287106,2055,2055,2731,buq,qns-item-noham,69,239047,0.0-1.0-0.68
<b>Lots of smart people disagree about basic political questions.,Highly disagree,70/150,Somewhat agree,3,1698242287784,1698242290237,\Somewhat agree\,\Somewhat agree\,\3\,1698242289406,1698242289406,1622,1622,2453,buq,qns-item-noham,70,241502,0.0-1.0-0.69
<b>I swim across the Atlantic Ocean to get to work every day.,Highly disagree,71/150,Highly disagree,1,1698242290239,1698242293171,\Highly disagree\,\Highly disagree\,\1\,1698242292037,1698242292037,1798,1798,2932,buq,qns-item-noham,71,244436,0.0-1.0-0.70
"<b>Sometimes, you just have to ignore evidence that you know is wrong.",Highly disagree,72/150,Highly agree,4,1698242293173,1698242298456,\Highly agree\,\Highly agree\,\4\,1698242297501,1698242297501,4328,4328,5283,buq,qns-item-noham,72,249721,0.0-1.0-0.71
<b>I have had some false beliefs.,Highly disagree,73/150,Somewhat agree,3,1698242298458,1698242301047,\Somewhat agree\,\Somewhat agree\,\3\,1698242300271,1698242300271,1813,1813,2589,buq,qns-item-noham,73,252312,0.0-1.0-0.72
"<b>If one friend does something that upsets me, I sometimes start to distrust people in general.",Highly disagree,74/150,Somewhat disagree,2,1698242301048,1698242304487,\Somewhat disagree\,\Somewhat disagree\,\2\,1698242304095,1698242304095,3047,3047,3439,buq,qns-item-noham,74,255752,0.0-1.0-0.73
<b>I easily apply what I learn in one situation to another.,Highly disagree,75/150,Somewhat agree,3,1698242304489,1698242307063,\Somewhat agree\,\Somewhat agree\,\3\,1698242306747,1698242306747,2258,2258,2574,buq,qns-item-noham,75,258328,0.0-1.0-0.74
<b>The facts about most important matters are easy to find.,Highly disagree,76/150,Somewhat agree,3,1698242307066,1698242310132,\Somewhat agree\,\Somewhat agree\,\3\,1698242309298,1698242309298,2232,2232,3066,buq,qns-item-noham,76,261397,0.0-1.0-0.75
<b>It?s better to know what?s true than to know what?s moral.,Highly disagree,77/150,Somewhat disagree,2,1698242310134,1698242313252,\Somewhat disagree\,\Somewhat disagree\,\2\,1698242312784,1698242312784,2650,2650,3118,buq,qns-item-noham,77,264517,0.0-1.0-0.76
<b>It?s good to be skeptical of people you agree with.,Highly disagree,78/150,Somewhat agree,3,1698242313253,1698242315363,\Somewhat agree\,\Somewhat agree\,\3\,1698242314832,1698242314832,1579,1579,2110,buq,qns-item-noham,78,266628,0.0-1.0-0.77
<b>Sometimes reasonable beliefs are wrong.,Highly disagree,79/150,Somewhat agree,3,1698242315366,1698242318684,\Somewhat agree\,\Somewhat agree\,\3\,1698242318245,1698242318245,2879,2879,3318,buq,qns-item-noham,79,269949,0.0-1.0-0.78
<b>I used to think the world was less complicated than I do now.,Highly disagree,80/150,Somewhat disagree,2,1698242318685,1698242321266,\Somewhat disagree\,\Somewhat disagree\,\2\,1698242320647,1698242320647,1962,1962,2581,buq,qns-item-noham,80,272531,0.0-1.0-0.79
<b>People are usually completely right or completely wrong.,Highly disagree,81/150,Somewhat disagree,2,1698242321268,1698242323487,\Somewhat disagree\,\Somewhat disagree\,\2\,1698242322969,1698242322969,1701,1701,2219,buq,qns-item-noham,81,274753,0.0-1.0-0.80
<b>I spend a lot of time considering alternatives to my beliefs.,Highly disagree,82/150,Somewhat agree,3,1698242323489,1698242325700,\Somewhat agree\,\Somewhat agree\,\3\,1698242325230,1698242325230,1741,1741,2211,buq,qns-item-noham,82,276965,0.0-1.0-0.81
"<b>Political enemies need to be defeated, not convinced.",Highly disagree,83/150,Somewhat disagree,2,1698242325702,1698242328061,\Somewhat disagree\,\Somewhat disagree\,\2\,1698242327670,1698242327670,1968,1968,2359,buq,qns-item-noham,83,279326,0.0-1.0-0.82
"<b>When forming an opinion about a restaurant, I am more swayed by my  latest meal there than  previous meals I?ve had there.",Highly disagree,84/150,Highly agree,4,1698242328063,1698242331434,\Highly agree\,\Highly agree\,\4\,1698242331068,1698242331068,3005,3005,3371,buq,qns-item-noham,84,282699,0.0-1.0-0.83
<b>I try to remain skeptical about most topics.,Highly disagree,85/150,Highly agree,4,1698242331436,1698242333316,\Highly agree\,\Highly agree\,\4\,1698242332937,1698242332937,1501,1501,1880,buq,qns-item-noham,85,284581,0.0-1.0-0.84
<b>Being wrong is usually obvious in retrospect.,Highly disagree,86/150,Somewhat disagree,2,1698242333318,1698242336310,\Somewhat disagree\,\Somewhat disagree\,\2\,1698242335883,1698242335883,2565,2565,2992,buq,qns-item-noham,86,287575,0.0-1.0-0.85
<b>It can be hard to realize that my beliefs are in conflict.,Highly disagree,87/150,Somewhat agree,3,1698242336311,1698242338637,\Somewhat agree\,\Somewhat agree\,\3\,1698242338331,1698242338331,2020,2020,2326,buq,qns-item-noham,87,289902,0.0-1.0-0.86
<b>I form my political views only after meticulously gathering historical and present information about their policies.,Highly disagree,88/150,Somewhat disagree,2,1698242338638,1698242341832,\Somewhat disagree\,\Somewhat disagree\,\2\,1698242341428,1698242341428,2790,2790,3194,buq,qns-item-noham,88,293097,0.0-1.0-0.87
<b>Skeptical people are usually just bad-tempered.,Highly disagree,89/150,Somewhat disagree,2,1698242341834,1698242343842,\Somewhat disagree\,\Somewhat disagree\,\2\,1698242343512,1698242343512,1678,1678,2008,buq,qns-item-noham,89,295107,0.0-1.0-0.88
<b>It is difficult for me to remember the last time I was surprised by politics.,Highly disagree,90/150,Somewhat disagree,2,1698242343845,1698242346253,\Somewhat disagree\,\Somewhat disagree\,\2\,1698242345939,1698242345939,2094,2094,2408,buq,qns-item-noham,90,297518,0.0-1.0-0.89
"<b>When I find out I?m wrong, I think a lot about my related beliefs.",Highly disagree,91/150,Somewhat disagree,2,1698242346254,1698242348882,\Somewhat disagree\,\Somewhat disagree\,\2\,1698242348450,1698242348450,2196,2196,2628,buq,qns-item-noham,91,300147,0.0-1.0-0.90
"<b>If the political party I support messes up, it makes me think you can?t trust anyone these days",Highly disagree,92/150,Somewhat disagree,2,1698242348884,1698242351283,\Somewhat disagree\,\Somewhat disagree\,\2\,1698242350901,1698242350901,2017,2017,2399,buq,qns-item-noham,92,302548,0.0-1.0-0.91
<b>People?s brains turn off when they talk about politics.,Highly disagree,93/150,Somewhat agree,3,1698242351284,1698242354124,\Somewhat agree\,\Somewhat agree\,\3\,1698242353859,1698242353859,2575,2575,2840,buq,qns-item-noham,93,305389,0.0-1.0-0.92
<b>People who are wrong are usually just ignoring the obvious.,Highly disagree,94/150,Somewhat disagree,2,1698242354125,1698242356487,\Somewhat disagree\,\Somewhat disagree\,\2\,1698242356222,1698242356222,2097,2097,2362,buq,qns-item-noham,94,307752,0.0-1.0-0.93
"<b>The world isn?t that complicated, but it?s still hard to figure out how it works.",Highly disagree,95/150,Somewhat disagree,2,1698242356489,1698242358887,\Somewhat disagree\,\Somewhat disagree\,\2\,1698242358609,1698242358609,2120,2120,2398,buq,qns-item-noham,95,310152,0.0-1.0-0.94
"<b>When forming my views on people, I rely more on what they are like now rather than rely on my past experience with them.",Highly disagree,96/150,Somewhat agree,3,1698242358888,1698242362299,\Somewhat agree\,\Somewhat agree\,\3\,1698242361968,1698242361968,3080,3080,3411,buq,qns-item-noham,96,313564,0.0-1.0-0.95
"<b>When people contradict my beliefs, I usually know about their evidence already.",Highly disagree,97/150,Somewhat disagree,2,1698242362300,1698242365122,\Somewhat disagree\,\Somewhat disagree\,\2\,1698242364837,1698242364837,2537,2537,2822,buq,qns-item-noham,97,316387,0.0-1.0-0.96
<b>Being wrong is a matter of degree.,Highly disagree,98/150,Somewhat disagree,2,1698242365124,1698242367149,\Somewhat disagree\,\Somewhat disagree\,\2\,1698242366858,1698242366858,1734,1734,2025,buq,qns-item-noham,98,318414,0.0-1.0-0.97
<b>Figuring out what?s true and what?s false mainly requires a strong moral compass.,Highly disagree,99/150,Somewhat agree,3,1698242367150,1698242370674,\Somewhat agree\,\Somewhat agree\,\3\,1698242370119,1698242370119,2969,2969,3524,buq,qns-item-noham,99,321939,0.0-1.0-0.98
<b>Most of the beliefs people have are at least somewhat understandable.,Highly disagree,100/150,Somewhat agree,3,1698242370675,1698242373771,\Somewhat agree\,\Somewhat agree\,\3\,1698242372887,1698242372887,2212,2212,3096,buq,qns-item-noham,100,325036,0.0-1.0-0.99
"<b>Usually I?m wrong about simple things, not complicated ones.",Highly disagree,101/150,Somewhat disagree,2,1698242373772,1698242376107,\Somewhat disagree\,\Somewhat disagree\,\2\,1698242375727,1698242375727,1955,1955,2335,buq,qns-item-noham,101,327372,0.0-1.0-0.100
<b>Getting all the information I want about important things is hard.,Highly disagree,102/150,Somewhat agree,3,1698242376108,1698242379051,\Somewhat agree\,\Somewhat agree\,\3\,1698242378660,1698242378660,2552,2552,2943,buq,qns-item-noham,102,330316,0.0-1.0-0.101
<b>Most false beliefs spread because people try to deceive one another.,Highly disagree,103/150,Somewhat disagree,2,1698242379052,1698242381857,\Somewhat disagree\,\Somewhat disagree\,\2\,1698242381540,1698242381540,2488,2488,2805,buq,qns-item-noham,103,333122,0.0-1.0-0.102
<b>I can usually find something to agree with in most people?s beliefs.,Highly disagree,104/150,Somewhat agree,3,1698242381859,1698242386571,\Somewhat agree\,\Somewhat agree\,\3\,1698242386104,1698242386104,4245,4245,4712,buq,qns-item-noham,104,337836,0.0-1.0-0.103
<b>I only form my views of people once I get to know them very well.,Highly disagree,105/150,Somewhat agree,3,1698242386573,1698242390549,\Somewhat agree\,\Somewhat agree\,\3\,1698242390107,1698242390107,3534,3534,3976,buq,qns-item-noham,105,341814,0.0-1.0-0.104
"<b>When people tell me important things about the world, I usually believe them.",Highly disagree,106/150,Somewhat disagree,2,1698242390550,1698242394658,\Somewhat disagree\,\Somewhat disagree\,\2\,1698242394251,1698242394251,3701,3701,4108,buq,qns-item-noham,106,345923,0.0-1.0-0.105
"<b>If a friend does something that upsets me, it reminds me what an unpredictable place the world is.",Highly disagree,107/150,Somewhat disagree,2,1698242394660,1698242397955,\Somewhat disagree\,\Somewhat disagree\,\2\,1698242397512,1698242397512,2852,2852,3295,buq,qns-item-noham,107,349220,0.0-1.0-0.106
<b>Having some conflicting beliefs is inevitable.,Highly disagree,108/150,Somewhat agree,3,1698242397956,1698242400025,\Somewhat agree\,\Somewhat agree\,\3\,1698242399621,1698242399621,1665,1665,2069,buq,qns-item-noham,108,351290,0.0-1.0-0.107
<b>People are wrong because they haven?t thought much about things.,Highly disagree,109/150,Somewhat disagree,2,1698242400026,1698242401894,\Somewhat disagree\,\Somewhat disagree\,\2\,1698242401490,1698242401490,1464,1464,1868,buq,qns-item-noham,109,353159,0.0-1.0-0.108
<b>People tend to believe whatever is good for their friends.,Highly disagree,110/150,Somewhat disagree,2,1698242401896,1698242405358,\Somewhat disagree\,\Somewhat disagree\,\2\,1698242404977,1698242404977,3081,3081,3462,buq,qns-item-noham,110,356623,0.0-1.0-0.109
"<b>When I talk about important topics, I try to make sure people know I?m not always right.",Highly disagree,111/150,Somewhat agree,3,1698242405359,1698242408186,\Somewhat agree\,\Somewhat agree\,\3\,1698242407795,1698242407795,2436,2436,2827,buq,qns-item-noham,111,359451,0.0-1.0-0.110
<b>I used to be more certain my beliefs were true.,Highly disagree,112/150,Somewhat disagree,2,1698242408188,1698242410400,\Somewhat disagree\,\Somewhat disagree\,\2\,1698242409904,1698242409904,1716,1716,2212,buq,qns-item-noham,112,361665,0.0-1.0-0.111
<b>It?s often pretty easy to figure out whether something is true based on who said it.,Highly disagree,113/150,Somewhat agree,3,1698242410402,1698242413734,\Somewhat agree\,\Somewhat agree\,\3\,1698242413316,1698242413316,2914,2914,3332,buq,qns-item-noham,113,364999,0.0-1.0-0.112
<b>Having bad food in my favorite restaurant will make me think the restaurant is no longer good.,Highly disagree,114/150,Somewhat agree,3,1698242413736,1698242417308,\Somewhat agree\,\Somewhat agree\,\3\,1698242416777,1698242416777,3041,3041,3572,buq,qns-item-noham,114,368573,0.0-1.0-0.113
<b>I transform into a hummingbird every day.,Highly disagree,115/150,Highly disagree,1,1698242417310,1698242419545,\Highly disagree\,\Highly disagree\,\1\,1698242419028,1698242419028,1718,1718,2235,buq,qns-item-noham,115,370811,0.0-1.0-0.114
"<b>Unfortunately, when people are wrong, it?s usually because they?re bad.",Highly disagree,116/150,Highly disagree,1,1698242419549,1698242423285,\Somewhat disagree\,\Highly disagree\,\2\,1698242421742,1698242422640,2193,3091,3736,buq,qns-item-noham,116,374550,0.0-1.0-0.115
<b>I think a lot about arguments against my views.,Highly disagree,117/150,Somewhat disagree,2,1698242423286,1698242426228,\Somewhat disagree\,\Somewhat disagree\,\2\,1698242425622,1698242425622,2336,2336,2942,buq,qns-item-noham,117,377493,0.0-1.0-0.116
<b>Details tend to matter a lot for knowing whether a policy is good.,Highly disagree,118/150,Somewhat agree,3,1698242426230,1698242429475,\Somewhat agree\,\Somewhat agree\,\3\,1698242429108,1698242429108,2878,2878,3245,buq,qns-item-noham,118,380740,0.0-1.0-0.117
<b>Personal experience is usually more important than facts and figures.,Highly disagree,119/150,Somewhat agree,3,1698242429477,1698242432748,\Somewhat agree\,\Somewhat agree\,\3\,1698242431572,1698242431572,2095,2095,3271,buq,qns-item-noham,119,384013,0.0-1.0-0.118
<b>I?ve been tricked before about important matters.,Highly disagree,120/150,Somewhat agree,3,1698242432750,1698242434820,\Somewhat agree\,\Somewhat agree\,\3\,1698242434152,1698242434152,1402,1402,2070,buq,qns-item-noham,120,386085,0.0-1.0-0.119
<b>I would need to be totally wowed if I were to change my opinion of a restaurant I don?t like.,Highly disagree,121/150,Somewhat agree,3,1698242434821,1698242438407,\Somewhat agree\,\Somewhat agree\,\3\,1698242437991,1698242437991,3170,3170,3586,buq,qns-item-noham,121,389672,0.0-1.0-0.120
<b>I care a lot about politics.,Highly disagree,122/150,Somewhat disagree,2,1698242438408,1698242440253,\Somewhat disagree\,\Somewhat disagree\,\2\,1698242439709,1698242439709,1301,1301,1845,buq,qns-item-noham,122,391518,0.0-1.0-0.121
<b>People with conflicting beliefs usually have some facts they disagree on.,Highly disagree,123/150,Somewhat agree,3,1698242440255,1698242442796,\Somewhat disagree\,\Somewhat agree\,\2\,1698242441847,1698242442328,1592,2073,2541,buq,qns-item-noham,123,394061,0.0-1.0-0.122
<b>There are some topics I?ve been really wrong about.,Highly disagree,124/150,Somewhat agree,3,1698242442799,1698242444893,\Somewhat agree\,\Somewhat agree\,\3\,1698242444436,1698242444436,1637,1637,2094,buq,qns-item-noham,124,396158,0.0-1.0-0.123
<b>Most beliefs can be supported with at least some evidence.,Highly disagree,125/150,Somewhat agree,3,1698242444895,1698242446736,\Somewhat agree\,\Somewhat agree\,\3\,1698242446409,1698242446409,1514,1514,1841,buq,qns-item-noham,125,398001,0.0-1.0-0.124
<b>Other people make life out to be more complicated than it really is.,Highly disagree,126/150,Somewhat agree,3,1698242446738,1698242448949,\Somewhat agree\,\Somewhat agree\,\3\,1698242448532,1698242448532,1794,1794,2211,buq,qns-item-noham,126,400214,0.0-1.0-0.125
"<b>My political views are being shaped continuously as I gather more information, rather than relying on what I?ve known to be true of my party in the past. ",Highly disagree,127/150,Somewhat agree,3,1698242448950,1698242452815,\Somewhat agree\,\Somewhat agree\,\3\,1698242452208,1698242452208,3258,3258,3865,buq,qns-item-noham,127,404080,0.0-1.0-0.126
<b>It?s pretty unusual for true things to seem false.,Highly disagree,128/150,Somewhat agree,3,1698242452816,1698242455709,\Somewhat agree\,\Somewhat agree\,\3\,1698242455038,1698242455038,2222,2222,2893,buq,qns-item-noham,128,406974,0.0-1.0-0.127
"<b>Policy details don?t matter much, just the big picture.",Highly disagree,129/150,Somewhat disagree,2,1698242455710,1698242457894,\Somewhat disagree\,\Somewhat disagree\,\2\,1698242457515,1698242457515,1805,1805,2184,buq,qns-item-noham,129,409159,0.0-1.0-0.128
<b>I know my friends so well they can hardly ever surprise me.,Highly disagree,130/150,Somewhat agree,3,1698242457896,1698242461368,\Somewhat agree\,\Somewhat agree\,\3\,1698242460864,1698242460864,2968,2968,3472,buq,qns-item-noham,130,412634,0.0-1.0-0.129
"<b>When I talk to people, I often think about why they have the beliefs they do.",Highly disagree,131/150,Somewhat agree,3,1698242461370,1698242464212,\Somewhat agree\,\Somewhat agree\,\3\,1698242463808,1698242463808,2438,2438,2842,buq,qns-item-noham,131,415477,0.0-1.0-0.130
<b>I do not often change my views on people.,Highly disagree,132/150,Somewhat disagree,2,1698242464214,1698242466233,\Somewhat disagree\,\Somewhat disagree\,\2\,1698242465412,1698242465412,1198,1198,2019,buq,qns-item-noham,132,417498,0.0-1.0-0.131
<b>I often wish I had more time to spend figuring out what?s true and what?s false in life.,Highly disagree,133/150,Somewhat disagree,2,1698242466234,1698242469443,\Somewhat disagree\,\Somewhat disagree\,\2\,1698242468989,1698242468989,2755,2755,3209,buq,qns-item-noham,133,420708,0.0-1.0-0.132
<b>I?m more certain about my beliefs than I used to be.,Highly disagree,134/150,Somewhat disagree,2,1698242469444,1698242471604,\Somewhat disagree\,\Somewhat disagree\,\2\,1698242471236,1698242471236,1792,1792,2160,buq,qns-item-noham,134,422869,0.0-1.0-0.133
"<b>Whenever I find out new information, I update my views on politics accordingly.",Highly disagree,135/150,Somewhat disagree,2,1698242471607,1698242473738,\Somewhat disagree\,\Somewhat disagree\,\2\,1698242473349,1698242473349,1742,1742,2131,buq,qns-item-noham,135,425004,0.0-1.0-0.134
<b>People often tell falsehoods unintentionally.,Highly disagree,136/150,Somewhat agree,3,1698242473741,1698242475649,\Somewhat agree\,\Somewhat agree\,\3\,1698242475180,1698242475180,1439,1439,1908,buq,qns-item-noham,136,426914,0.0-1.0-0.135
<b>Most people don?t know much about most things.,Highly disagree,137/150,Somewhat agree,3,1698242475651,1698242478823,\Somewhat agree\,\Somewhat agree\,\3\,1698242477557,1698242477557,1906,1906,3172,buq,qns-item-noham,137,430088,0.0-1.0-0.136
"<b>If I find out something new about someone, I easily change my views about them.",Highly disagree,138/150,Somewhat agree,3,1698242478824,1698242482066,\Somewhat agree\,\Somewhat agree\,\3\,1698242481586,1698242481586,2762,2762,3242,buq,qns-item-noham,138,433331,0.0-1.0-0.137
<b>Having true beliefs is difficult.,Highly disagree,139/150,Somewhat agree,3,1698242482067,1698242484516,\Somewhat agree\,\Somewhat agree\,\3\,1698242484076,1698242484076,2009,2009,2449,buq,qns-item-noham,139,435781,0.0-1.0-0.138
<b>I don?t try new foods since I know I won?t like them.,Highly disagree,140/150,Highly disagree,1,1698242484517,1698242488535,\Somewhat disagree\,\Highly disagree\,\2\,1698242486678,1698242487824,2161,3307,4018,buq,qns-item-noham,140,439800,0.0-1.0-0.139
<b>It?s easy to figure out what?s true or false based on who?s saying it.,Highly disagree,141/150,Somewhat agree,3,1698242488538,1698242491619,\Somewhat agree\,\Somewhat agree\,\3\,1698242491124,1698242491124,2586,2586,3081,buq,qns-item-noham,141,442885,0.0-1.0-0.140
<b>False things have seemed true to me many times.,Highly disagree,142/150,Somewhat agree,3,1698242491621,1698242495762,\Somewhat agree\,\Somewhat agree\,\3\,1698242494852,1698242494852,3231,3231,4141,buq,qns-item-noham,142,447027,0.0-1.0-0.141
<b>It?s pretty easy to sort out what?s true and what?s false in life.,Highly disagree,143/150,Somewhat agree,3,1698242495764,1698242497936,\Somewhat agree\,\Somewhat agree\,\3\,1698242497571,1698242497571,1807,1807,2172,buq,qns-item-noham,143,449201,0.0-1.0-0.142
<b>Knowing lots of statistics about something is usually important for understanding it.,Highly disagree,144/150,Somewhat agree,3,1698242497937,1698242502317,\Somewhat agree\,\Somewhat agree\,\3\,1698242500513,1698242500513,2576,2576,4380,buq,qns-item-noham,144,453582,0.0-1.0-0.143
<b>Other people trick each other a lot.,Highly disagree,145/150,Somewhat agree,3,1698242502319,1698242504136,\Somewhat agree\,\Somewhat agree\,\3\,1698242503810,1698242503810,1491,1491,1817,buq,qns-item-noham,145,455401,0.0-1.0-0.144
<b>I would need to learn a lot about a person for my opinion of them to be swayed.,Highly disagree,146/150,Somewhat agree,3,1698242504138,1698242509899,\Somewhat agree\,\Somewhat agree\,\3\,1698242508268,1698242508268,4130,4130,5761,buq,qns-item-noham,146,461164,0.0-1.0-0.145
<b>People can?t usually trick me when it comes to topics I care about.,Highly disagree,147/150,Somewhat agree,3,1698242509900,1698242514091,\Somewhat agree\,\Somewhat agree\,\3\,1698242513585,1698242513585,3685,3685,4191,buq,qns-item-noham,147,465356,0.0-1.0-0.146
<b>I do not often change my views on food.,Highly disagree,148/150,Somewhat disagree,2,1698242514092,1698242516455,\Somewhat disagree\,\Somewhat disagree\,\2\,1698242516049,1698242516049,1957,1957,2363,buq,qns-item-noham,148,467720,0.0-1.0-0.147
<b>Specific policies are often very important to me.,Highly disagree,149/150,Somewhat disagree,2,1698242516456,1698242518236,\Somewhat disagree\,\Somewhat disagree\,\2\,1698242517795,1698242517795,1339,1339,1780,buq,qns-item-noham,149,469501,0.0-1.0-0.148
<b>Most people are woefully under-informed.,Highly disagree,150/150,Somewhat agree,3,1698242518237,1698242520244,\Somewhat agree\,\Somewhat agree\,\3\,1698242519813,1698242519813,1576,1576,2007,buq,qns-item-noham,150,471509,0.0-1.0-0.149
