Question,qns_options,quest_num,answer,answer_num,question_load_timestamp,next_btn_timestamp,text_selected,final_text_selected,option_num_selected,preview_timestamps,final_text_selected_time_stamp,rt_first_option_click,rt_final_option_click,rt_submit_click,questionnaire,trial_type,trial_index,time_elapsed,internal_node_id
<b>Considering other people?s perspectives can help us figure out what?s true or false.,Highly disagree,1/150,Highly agree,4,1698242298292,1698242310389,\Highly agree\,\Highly agree\,\4\,1698242309698,1698242309698,11406,11406,12097,buq,qns-item-noham,1,19852,0.0-1.0-0.0
<b>Knowing what?s true and knowing what to do about it are usually basically the same.,Highly disagree,2/150,Somewhat disagree,2,1698242310391,1698242316389,\Somewhat disagree\,\Somewhat disagree\,\2\,1698242315814,1698242315814,5423,5423,5998,buq,qns-item-noham,2,25852,0.0-1.0-0.1
<b>Most people just believe whatever is convenient for them.,Highly disagree,3/150,Somewhat disagree,2,1698242316392,1698242319960,\Somewhat disagree\,\Somewhat disagree\,\2\,1698242319201,1698242319201,2809,2809,3568,buq,qns-item-noham,3,29423,0.0-1.0-0.2
<b>Even people who are wrong about most things can be right sometimes.,Highly disagree,4/150,Somewhat agree,3,1698242319961,1698242323725,\Somewhat agree\,\Somewhat agree\,\3\,1698242323085,1698242323085,3124,3124,3764,buq,qns-item-noham,4,33188,0.0-1.0-0.3
"<b>If the political party I support does something that upsets me, then the party may have changed, and I need to re-evaluate my support.",Highly disagree,5/150,Somewhat agree,3,1698242323727,1698242338894,\Somewhat agree\,\Somewhat agree\,\3\,1698242332575,1698242338188,8848,14461,15167,buq,qns-item-noham,5,48357,0.0-1.0-0.4
"<b>When people disagree, one side is usually completely right.",Highly disagree,6/150,Highly disagree,1,1698242338897,1698242343531,\Highly disagree\,\Highly disagree\,\1\,1698242341969,1698242341969,3072,3072,4634,buq,qns-item-noham,6,52994,0.0-1.0-0.5
<b>People have lots of false beliefs.,Highly disagree,7/150,Somewhat agree,3,1698242343535,1698242349614,\Somewhat agree\,\Somewhat agree\,\3\,1698242348166,1698242348166,4631,4631,6079,buq,qns-item-noham,7,59078,0.0-1.0-0.6
<b>Having some big beliefs helps me sort out minor ones.,Highly disagree,8/150,Somewhat agree,3,1698242349615,1698242370749,\Somewhat agree\,\Somewhat agree\,\3\,1698242370020,1698242370020,20405,20405,21134,buq,qns-item-noham,8,80212,0.0-1.0-0.7
<b>Political questions are usually pretty complicated.,Highly disagree,9/150,Somewhat agree,3,1698242370751,1698242380922,\Somewhat agree\,\Somewhat agree\,\3\,1698242380319,1698242380319,9568,9568,10171,buq,qns-item-noham,9,90385,0.0-1.0-0.8
<b>Figuring out what?s important in life requires learning a lot of facts.,Highly disagree,10/150,Highly agree,4,1698242380924,1698242386317,\Highly agree\,\Highly agree\,\4\,1698242383683,1698242383683,2759,2759,5393,buq,qns-item-noham,10,95780,0.0-1.0-0.9
<b>It is difficult for me to remember the last time I was surprised by politics.,Highly disagree,11/150,Somewhat disagree,2,1698242386318,1698242396374,\Somewhat disagree\,\Somewhat disagree\,\2\,1698242395614,1698242395614,9296,9296,10056,buq,qns-item-noham,11,105837,0.0-1.0-0.10
<b>People?s false beliefs are understandable.,Highly disagree,12/150,Somewhat disagree,2,1698242396376,1698242400784,\Somewhat disagree\,\Somewhat disagree\,\2\,1698242400072,1698242400072,3696,3696,4408,buq,qns-item-noham,12,110248,0.0-1.0-0.11
<b>I spend a lot of time trying to be informed about politics.,Highly disagree,13/150,Somewhat disagree,2,1698242400786,1698242420303,\Somewhat disagree\,\Somewhat disagree\,\2\,1698242407144,1698242407144,6358,6358,19517,buq,qns-item-noham,13,129766,0.0-1.0-0.12
<b>I think a lot about whether my beliefs are right.,Highly disagree,14/150,Somewhat agree,3,1698242420307,1698242425211,\Somewhat agree\,\Somewhat agree\,\3\,1698242423689,1698242423689,3382,3382,4904,buq,qns-item-noham,14,134674,0.0-1.0-0.13
<b>Statistics can be pretty misleading sometimes.,Highly disagree,15/150,Highly agree,4,1698242425214,1698242429894,\Highly agree\,\Highly agree\,\4\,1698242429333,1698242429333,4119,4119,4680,buq,qns-item-noham,15,139357,0.0-1.0-0.14
<b>Figuring out what?s true and what?s false takes a lot of time and effort.,Highly disagree,16/150,Somewhat agree,3,1698242429896,1698242433838,\Somewhat agree\,\Somewhat agree\,\3\,1698242433339,1698242433339,3443,3443,3942,buq,qns-item-noham,16,143301,0.0-1.0-0.15
"<b>If a friend does something bad to me, it was likely an error on their part.",Highly disagree,17/150,Somewhat agree,3,1698242433840,1698242437983,\Somewhat agree\,\Somewhat agree\,\3\,1698242437423,1698242437423,3583,3583,4143,buq,qns-item-noham,17,147447,0.0-1.0-0.16
<b>I have lots of beliefs that I?m only sort of sure about.,Highly disagree,18/150,Somewhat agree,3,1698242437985,1698242442909,\Somewhat agree\,\Somewhat agree\,\3\,1698242441924,1698242441924,3939,3939,4924,buq,qns-item-noham,18,152372,0.0-1.0-0.17
"<b>If I go to my favorite restaurant and the food is surprisingly bad, it reminds me there are many disappointments in life.",Highly disagree,19/150,Somewhat agree,3,1698242442911,1698242448896,\Somewhat agree\,\Somewhat agree\,\3\,1698242448143,1698242448143,5232,5232,5985,buq,qns-item-noham,19,158359,0.0-1.0-0.18
<b>Sometimes my beliefs are inconvenient for me.,Highly disagree,20/150,Somewhat agree,3,1698242448897,1698242451887,\Somewhat agree\,\Somewhat agree\,\3\,1698242451043,1698242451043,2146,2146,2990,buq,qns-item-noham,20,161350,0.0-1.0-0.19
<b>Paying attention to multiple news sources is important.,Highly disagree,21/150,Highly agree,4,1698242451889,1698242456608,\Highly agree\,\Highly agree\,\4\,1698242454991,1698242454991,3102,3102,4719,buq,qns-item-noham,21,166071,0.0-1.0-0.20
"<b>If you are paying attention, please select ?Somewhat agree?",Highly disagree,22/150,Somewhat agree,3,1698242456609,1698242462294,\Somewhat agree\,\Somewhat agree\,\3\,1698242461285,1698242461285,4676,4676,5685,buq,qns-item-noham,22,171757,0.0-1.0-0.21
"<b>When I talk to others, I often worry I?ll convince them of something I didn?t mean to.",Highly disagree,23/150,Somewhat disagree,2,1698242462295,1698242467844,\Somewhat disagree\,\Somewhat disagree\,\2\,1698242467219,1698242467219,4924,4924,5549,buq,qns-item-noham,23,177307,0.0-1.0-0.22
<b>I would need to learn something utterly shocking about my party in order to change my political views.,Highly disagree,24/150,Somewhat agree,3,1698242467846,1698242473193,\Somewhat agree\,\Somewhat agree\,\3\,1698242472641,1698242472641,4795,4795,5347,buq,qns-item-noham,24,182656,0.0-1.0-0.23
"<b>When I have new experiences, I tend to think of them as unique.",Highly disagree,25/150,Somewhat agree,3,1698242473194,1698242476922,\Somewhat agree\,\Somewhat agree\,\3\,1698242476300,1698242476300,3106,3106,3728,buq,qns-item-noham,25,186386,0.0-1.0-0.24
<b>Reading lots of things is important for understanding the world.,Highly disagree,26/150,Highly agree,4,1698242476924,1698242501532,\Highly agree\,\Highly agree\,\4\,1698242500876,1698242500876,23952,23952,24608,buq,qns-item-noham,26,210995,0.0-1.0-0.25
<b>The world is complicated.,Highly disagree,27/150,Highly agree,4,1698242501533,1698242505487,\Highly agree\,\Highly agree\,\4\,1698242504968,1698242504968,3435,3435,3954,buq,qns-item-noham,27,214950,0.0-1.0-0.26
<b>I change my mind about specific policies pretty frequently.,Highly disagree,28/150,Somewhat disagree,2,1698242505488,1698242509004,\Somewhat disagree\,\Somewhat disagree\,\2\,1698242508252,1698242508252,2764,2764,3516,buq,qns-item-noham,28,218467,0.0-1.0-0.27
"<b>If a politician in my political party supports something I disagree with, I give them the benefit of the doubt, as such issues often involve hidden complexities that aren?t obvious.   ",Highly disagree,29/150,Somewhat agree,3,1698242509005,1698242515542,\Somewhat agree\,\Somewhat agree\,\3\,1698242514959,1698242514959,5954,5954,6537,buq,qns-item-noham,29,225005,0.0-1.0-0.28
<b>People?s bad politics are usually motivated by hatefulness.,Highly disagree,30/150,Somewhat disagree,2,1698242515544,1698242519117,\Somewhat disagree\,\Somewhat disagree\,\2\,1698242518466,1698242518466,2922,2922,3573,buq,qns-item-noham,30,228580,0.0-1.0-0.29
"<b>Most new experiences are just like old ones, but a little bit different.",Highly disagree,31/150,Somewhat disagree,2,1698242519118,1698242524882,\Somewhat agree\,\Somewhat disagree\,\3\,1698242521958,1698242524169,2840,5051,5764,buq,qns-item-noham,31,234345,0.0-1.0-0.30
<b>I think a lot about how to reconcile my beliefs with one another.,Highly disagree,32/150,Somewhat agree,3,1698242524885,1698242528309,\Somewhat agree\,\Somewhat agree\,\3\,1698242527725,1698242527725,2840,2840,3424,buq,qns-item-noham,32,237772,0.0-1.0-0.31
<b>Personal experience rarely leads people astray.,Highly disagree,33/150,Somewhat agree,3,1698242528310,1698242533763,\Somewhat agree\,\Somewhat agree\,\3\,1698242533099,1698242533099,4789,4789,5453,buq,qns-item-noham,33,243226,0.0-1.0-0.32
<b>I might have false beliefs about important topics.,Highly disagree,34/150,Somewhat agree,3,1698242533765,1698242548870,\Somewhat agree\,\Somewhat agree\,\3\,1698242548122,1698242548122,14357,14357,15105,buq,qns-item-noham,34,258333,0.0-1.0-0.33
"<b>If a good friend of mine does something unexpected that upsets me, I feel like I don?t know them anymore.",Highly disagree,35/150,Somewhat disagree,2,1698242548871,1698242553603,\Somewhat disagree\,\Somewhat disagree\,\2\,1698242552799,1698242552799,3928,3928,4732,buq,qns-item-noham,35,263066,0.0-1.0-0.34
<b>Other people?s beliefs are often incoherent.,Highly disagree,36/150,Somewhat disagree,2,1698242553604,1698242572240,\Somewhat disagree\,\Somewhat disagree\,\2\,1698242571470,1698242571470,17866,17866,18636,buq,qns-item-noham,36,281703,0.0-1.0-0.35
<b>It?s important to have friends who think about things differently than I do.,Highly disagree,37/150,Highly agree,4,1698242572241,1698242576621,\Highly agree\,\Highly agree\,\4\,1698242576156,1698242576156,3915,3915,4380,buq,qns-item-noham,37,286084,0.0-1.0-0.36
"<b>Every now and then, a new experience will unsettle beliefs I?ve had for a while.",Highly disagree,38/150,Somewhat agree,3,1698242576622,1698242582807,\Somewhat agree\,\Somewhat agree\,\3\,1698242581931,1698242581931,5309,5309,6185,buq,qns-item-noham,38,292270,0.0-1.0-0.37
<b>Some policies I agree with in principle are so bad I don?t support them. ,Highly disagree,39/150,Somewhat disagree,2,1698242582809,1698242588843,\Somewhat disagree\,\Somewhat disagree\,\2\,1698242586576,1698242586576,3767,3767,6034,buq,qns-item-noham,39,298306,0.0-1.0-0.38
<b>I?m pretty sure I?ve accidentally spread false information.,Highly disagree,40/150,Somewhat disagree,2,1698242588846,1698242593456,\Somewhat disagree\,\Somewhat disagree\,\2\,1698242592230,1698242592230,3384,3384,4610,buq,qns-item-noham,40,302919,0.0-1.0-0.39
"<b>If I go to my favorite restaurant and the food is unexpectedly bad, then they have changed owners.",Highly disagree,41/150,Somewhat disagree,2,1698242593459,1698242599874,\Somewhat disagree\,\Somewhat disagree\,\2\,1698242599347,1698242599347,5888,5888,6415,buq,qns-item-noham,41,309337,0.0-1.0-0.40
"<b>In politics, it?s important to trust your friends and family.",Highly disagree,42/150,Somewhat agree,3,1698242599875,1698242603222,\Somewhat agree\,\Somewhat agree\,\3\,1698242602694,1698242602694,2819,2819,3347,buq,qns-item-noham,42,312685,0.0-1.0-0.41
<b>It?s OK to have some conflicting beliefs.,Highly disagree,43/150,Somewhat agree,3,1698242603223,1698242606573,\Somewhat agree\,\Somewhat agree\,\3\,1698242605825,1698242605825,2602,2602,3350,buq,qns-item-noham,43,316036,0.0-1.0-0.42
<b>Sometimes the details of a matter seem to conflict with the big picture.,Highly disagree,44/150,Somewhat agree,3,1698242606575,1698242610873,\Somewhat agree\,\Somewhat agree\,\3\,1698242610377,1698242610377,3802,3802,4298,buq,qns-item-noham,44,320336,0.0-1.0-0.43
<b>Listening to people I disagree with makes my opinions better.,Highly disagree,45/150,Somewhat agree,3,1698242610874,1698242617105,\Somewhat agree\,\Somewhat agree\,\3\,1698242613597,1698242613597,2723,2723,6231,buq,qns-item-noham,45,326568,0.0-1.0-0.44
<b>Policies that sound bad are sometimes fine when you find out about their details.,Highly disagree,46/150,Somewhat agree,3,1698242617108,1698242624618,\Somewhat disagree\,\Somewhat agree\,\2\,1698242621103,1698242623922,3995,6814,7510,buq,qns-item-noham,46,334081,0.0-1.0-0.45
"<b>The world is always changing, so my beliefs are sometimes out-dated.",Highly disagree,47/150,Somewhat agree,3,1698242624619,1698242627806,\Somewhat agree\,\Somewhat agree\,\3\,1698242627190,1698242627190,2571,2571,3187,buq,qns-item-noham,47,337269,0.0-1.0-0.46
"<b>If I receive a bad meal at my favorite restaurant and the food is surprisingly bad, I do not think much of it, and assume the chef is just having an ?off? day.",Highly disagree,48/150,Somewhat agree,3,1698242627807,1698242633236,\Somewhat agree\,\Somewhat agree\,\3\,1698242632586,1698242632586,4779,4779,5429,buq,qns-item-noham,48,342699,0.0-1.0-0.47
"<b>False information is unavoidable, to some extent.",Highly disagree,49/150,Somewhat agree,3,1698242633238,1698242636230,\Somewhat agree\,\Somewhat agree\,\3\,1698242635606,1698242635606,2368,2368,2992,buq,qns-item-noham,49,345693,0.0-1.0-0.48
<b>My moral compass sometimes makes it harder to determine what?s true.,Highly disagree,50/150,Somewhat agree,3,1698242636232,1698242640780,\Somewhat agree\,\Somewhat agree\,\3\,1698242639339,1698242639339,3107,3107,4548,buq,qns-item-noham,50,350243,0.0-1.0-0.49
"<b>When you disagree with someone, it?s important to listen to them carefully.",Highly disagree,51/150,Highly agree,4,1698242640783,1698242644535,\Highly agree\,\Highly agree\,\4\,1698242643929,1698242643929,3146,3146,3752,buq,qns-item-noham,51,353998,0.0-1.0-0.50
<b>Evidence pointing in the wrong direction isn?t really evidence at all.,Highly disagree,52/150,Somewhat disagree,2,1698242644536,1698242648284,\Somewhat disagree\,\Somewhat disagree\,\2\,1698242647563,1698242647563,3027,3027,3748,buq,qns-item-noham,52,357747,0.0-1.0-0.51
"<b>If the political party I support messes up, it makes me think politics is rotten.",Highly disagree,53/150,Somewhat disagree,2,1698242648285,1698242652850,\Somewhat disagree\,\Somewhat disagree\,\2\,1698242652249,1698242652249,3964,3964,4565,buq,qns-item-noham,53,362313,0.0-1.0-0.52
<b>Lots of important topics can only really be understood by some groups of people.,Highly disagree,54/150,Somewhat disagree,2,1698242652852,1698242658519,\Somewhat disagree\,\Somewhat disagree\,\2\,1698242657959,1698242657959,5107,5107,5667,buq,qns-item-noham,54,367982,0.0-1.0-0.53
<b>Details almost always matter for being right about something.,Highly disagree,55/150,Somewhat agree,3,1698242658520,1698242664548,\Somewhat agree\,\Somewhat agree\,\3\,1698242663669,1698242663669,5149,5149,6028,buq,qns-item-noham,55,374011,0.0-1.0-0.54
"<b>The most important thing in politics is winning, not convincing people.",Highly disagree,56/150,Somewhat disagree,2,1698242664549,1698242669457,\Somewhat disagree\,\Somewhat disagree\,\2\,1698242668546,1698242668546,3997,3997,4908,buq,qns-item-noham,56,378920,0.0-1.0-0.55
<b>Having conflicting beliefs means you haven?t thought about them enough.,Highly disagree,57/150,Somewhat disagree,2,1698242669458,1698242674631,\Somewhat disagree\,\Somewhat disagree\,\2\,1698242673839,1698242673839,4381,4381,5173,buq,qns-item-noham,57,384094,0.0-1.0-0.56
<b>Other people have sometimes convinced me to change my mind on important topics.,Highly disagree,58/150,Somewhat agree,3,1698242674633,1698242677858,\Somewhat agree\,\Somewhat agree\,\3\,1698242677322,1698242677322,2689,2689,3225,buq,qns-item-noham,58,387321,0.0-1.0-0.57
<b>I do not often change my political opinions.,Highly disagree,59/150,Somewhat disagree,2,1698242677860,1698242681750,\Somewhat disagree\,\Somewhat disagree\,\2\,1698242681118,1698242681118,3258,3258,3890,buq,qns-item-noham,59,391213,0.0-1.0-0.58
<b>Thinking about how different things relate to one another is critical in life.,Highly disagree,60/150,Somewhat agree,3,1698242681752,1698242686691,\Somewhat agree\,\Somewhat agree\,\3\,1698242685955,1698242685955,4203,4203,4939,buq,qns-item-noham,60,396154,0.0-1.0-0.59
<b>True beliefs can have unfortunate implications.,Highly disagree,61/150,Somewhat agree,3,1698242686693,1698242690839,\Somewhat agree\,\Somewhat agree\,\3\,1698242690191,1698242690191,3498,3498,4146,buq,qns-item-noham,61,400302,0.0-1.0-0.60
<b>It?s difficult to not have at least some conflicting beliefs.,Highly disagree,62/150,Somewhat agree,3,1698242690841,1698242693850,\Somewhat agree\,\Somewhat agree\,\3\,1698242693106,1698242693106,2265,2265,3009,buq,qns-item-noham,62,403313,0.0-1.0-0.61
"<b>When I learn new things, I think deeply about how my opinions should change.",Highly disagree,63/150,Somewhat agree,3,1698242693852,1698242698671,\Somewhat agree\,\Somewhat agree\,\3\,1698242697927,1698242697927,4075,4075,4819,buq,qns-item-noham,63,408134,0.0-1.0-0.62
<b>I think a lot about how to interpret different sorts of evidence.,Highly disagree,64/150,Somewhat agree,3,1698242698673,1698242712515,\Somewhat agree\,\Somewhat agree\,\3\,1698242711987,1698242711987,13314,13314,13842,buq,qns-item-noham,64,421978,0.0-1.0-0.63
<b>Politics is about thinking together and finding compromises.,Highly disagree,65/150,Somewhat agree,3,1698242712517,1698242717975,\Somewhat agree\,\Somewhat agree\,\3\,1698242717279,1698242717279,4762,4762,5458,buq,qns-item-noham,65,427438,0.0-1.0-0.64
<b>Wishful thinking causes a lot of problems.,Highly disagree,66/150,Somewhat disagree,2,1698242717977,1698242721290,\Somewhat disagree\,\Somewhat disagree\,\2\,1698242720723,1698242720723,2746,2746,3313,buq,qns-item-noham,66,430753,0.0-1.0-0.65
<b>I judge a food item only once I try it many times.,Highly disagree,67/150,Somewhat agree,3,1698242721292,1698242726080,\Somewhat agree\,\Somewhat agree\,\3\,1698242725554,1698242725554,4262,4262,4788,buq,qns-item-noham,67,435544,0.0-1.0-0.66
"<b>When a person holds conflicting beliefs, they should really try to figure out what?s wrong.",Highly disagree,68/150,Somewhat agree,3,1698242726082,1698242730106,\Somewhat agree\,\Somewhat agree\,\3\,1698242729521,1698242729521,3439,3439,4024,buq,qns-item-noham,68,439569,0.0-1.0-0.67
<b>Knowing what?s important in life is easy.,Highly disagree,69/150,Somewhat disagree,2,1698242730107,1698242732292,\Somewhat disagree\,\Somewhat disagree\,\2\,1698242731756,1698242731756,1649,1649,2185,buq,qns-item-noham,69,441755,0.0-1.0-0.68
<b>Lots of smart people disagree about basic political questions.,Highly disagree,70/150,Somewhat agree,3,1698242732293,1698242735615,\Somewhat agree\,\Somewhat agree\,\3\,1698242735103,1698242735103,2810,2810,3322,buq,qns-item-noham,70,445078,0.0-1.0-0.69
<b>I swim across the Atlantic Ocean to get to work every day.,Highly disagree,71/150,Highly disagree,1,1698242735617,1698242741982,\Highly disagree\,\Highly disagree\,\1\,1698242741206,1698242741206,5589,5589,6365,buq,qns-item-noham,71,451445,0.0-1.0-0.70
"<b>Sometimes, you just have to ignore evidence that you know is wrong.",Highly disagree,72/150,Somewhat disagree,2,1698242741983,1698242746330,\Somewhat disagree\,\Somewhat disagree\,\2\,1698242744808,1698242744808,2825,2825,4347,buq,qns-item-noham,72,455793,0.0-1.0-0.71
<b>I have had some false beliefs.,Highly disagree,73/150,Somewhat agree,3,1698242746332,1698242749917,\Somewhat agree\,\Somewhat agree\,\3\,1698242749229,1698242749229,2897,2897,3585,buq,qns-item-noham,73,459380,0.0-1.0-0.72
"<b>If one friend does something that upsets me, I sometimes start to distrust people in general.",Highly disagree,74/150,Somewhat disagree,2,1698242749919,1698242753923,\Somewhat disagree\,\Somewhat disagree\,\2\,1698242753297,1698242753297,3378,3378,4004,buq,qns-item-noham,74,463386,0.0-1.0-0.73
<b>I easily apply what I learn in one situation to another.,Highly disagree,75/150,Somewhat agree,3,1698242753925,1698242757380,\Somewhat agree\,\Somewhat agree\,\3\,1698242756828,1698242756828,2903,2903,3455,buq,qns-item-noham,75,466843,0.0-1.0-0.74
<b>The facts about most important matters are easy to find.,Highly disagree,76/150,Somewhat disagree,2,1698242757381,1698242762036,\Somewhat disagree\,\Somewhat disagree\,\2\,1698242761372,1698242761372,3991,3991,4655,buq,qns-item-noham,76,471499,0.0-1.0-0.75
<b>It?s better to know what?s true than to know what?s moral.,Highly disagree,77/150,Somewhat agree,3,1698242762038,1698242766945,\Somewhat agree\,\Somewhat agree\,\3\,1698242766065,1698242766065,4027,4027,4907,buq,qns-item-noham,77,476408,0.0-1.0-0.76
<b>It?s good to be skeptical of people you agree with.,Highly disagree,78/150,Somewhat agree,3,1698242766947,1698242770055,\Somewhat agree\,\Somewhat agree\,\3\,1698242769411,1698242769411,2464,2464,3108,buq,qns-item-noham,78,479518,0.0-1.0-0.77
<b>Sometimes reasonable beliefs are wrong.,Highly disagree,79/150,Somewhat agree,3,1698242770056,1698242773359,\Somewhat agree\,\Somewhat agree\,\3\,1698242772687,1698242772687,2631,2631,3303,buq,qns-item-noham,79,482822,0.0-1.0-0.78
<b>I used to think the world was less complicated than I do now.,Highly disagree,80/150,Highly agree,4,1698242773360,1698242777891,\Highly agree\,\Highly agree\,\4\,1698242777083,1698242777083,3723,3723,4531,buq,qns-item-noham,80,487354,0.0-1.0-0.79
<b>People are usually completely right or completely wrong.,Highly disagree,81/150,Highly disagree,1,1698242777892,1698242781327,\Highly disagree\,\Highly disagree\,\1\,1698242780503,1698242780503,2611,2611,3435,buq,qns-item-noham,81,490790,0.0-1.0-0.80
<b>I spend a lot of time considering alternatives to my beliefs.,Highly disagree,82/150,Somewhat agree,3,1698242781328,1698242784450,\Somewhat agree\,\Somewhat agree\,\3\,1698242783873,1698242783873,2545,2545,3122,buq,qns-item-noham,82,493913,0.0-1.0-0.81
"<b>Political enemies need to be defeated, not convinced.",Highly disagree,83/150,Somewhat disagree,2,1698242784452,1698242788109,\Somewhat disagree\,\Somewhat disagree\,\2\,1698242787429,1698242787429,2977,2977,3657,buq,qns-item-noham,83,497572,0.0-1.0-0.82
"<b>When forming an opinion about a restaurant, I am more swayed by my  latest meal there than  previous meals I?ve had there.",Highly disagree,84/150,Somewhat agree,3,1698242788111,1698242796693,\Somewhat agree\,\Somewhat agree\,\3\,1698242796094,1698242796094,7983,7983,8582,buq,qns-item-noham,84,506156,0.0-1.0-0.83
<b>I try to remain skeptical about most topics.,Highly disagree,85/150,Somewhat agree,3,1698242796695,1698242800105,\Somewhat agree\,\Somewhat agree\,\3\,1698242799577,1698242799577,2882,2882,3410,buq,qns-item-noham,85,509568,0.0-1.0-0.84
<b>Being wrong is usually obvious in retrospect.,Highly disagree,86/150,Somewhat disagree,2,1698242800107,1698242804445,\Somewhat disagree\,\Somewhat disagree\,\2\,1698242803806,1698242803806,3699,3699,4338,buq,qns-item-noham,86,513908,0.0-1.0-0.85
<b>It can be hard to realize that my beliefs are in conflict.,Highly disagree,87/150,Somewhat agree,3,1698242804446,1698242807600,\Somewhat agree\,\Somewhat agree\,\3\,1698242807127,1698242807127,2681,2681,3154,buq,qns-item-noham,87,517063,0.0-1.0-0.86
<b>I form my political views only after meticulously gathering historical and present information about their policies.,Highly disagree,88/150,Somewhat disagree,2,1698242807602,1698242812004,\Somewhat disagree\,\Somewhat disagree\,\2\,1698242811437,1698242811437,3835,3835,4402,buq,qns-item-noham,88,521467,0.0-1.0-0.87
<b>Skeptical people are usually just bad-tempered.,Highly disagree,89/150,Somewhat disagree,2,1698242812005,1698242815311,\Somewhat disagree\,\Somewhat disagree\,\2\,1698242814678,1698242814678,2673,2673,3306,buq,qns-item-noham,89,524774,0.0-1.0-0.88
<b>It is difficult for me to remember the last time I was surprised by politics.,Highly disagree,90/150,Somewhat disagree,2,1698242815312,1698242819906,\Somewhat disagree\,\Somewhat disagree\,\2\,1698242819346,1698242819346,4034,4034,4594,buq,qns-item-noham,90,529369,0.0-1.0-0.89
"<b>When I find out I?m wrong, I think a lot about my related beliefs.",Highly disagree,91/150,Somewhat agree,3,1698242819908,1698242824342,\Somewhat agree\,\Somewhat agree\,\3\,1698242823614,1698242823614,3706,3706,4434,buq,qns-item-noham,91,533805,0.0-1.0-0.90
"<b>If the political party I support messes up, it makes me think you can?t trust anyone these days",Highly disagree,92/150,Somewhat disagree,2,1698242824343,1698242829223,\Somewhat disagree\,\Somewhat disagree\,\2\,1698242828342,1698242828342,3999,3999,4880,buq,qns-item-noham,92,538686,0.0-1.0-0.91
<b>People?s brains turn off when they talk about politics.,Highly disagree,93/150,Somewhat disagree,2,1698242829225,1698242834203,\Somewhat disagree\,\Somewhat disagree\,\2\,1698242832241,1698242832241,3016,3016,4978,buq,qns-item-noham,93,543667,0.0-1.0-0.92
<b>People who are wrong are usually just ignoring the obvious.,Highly disagree,94/150,Somewhat disagree,2,1698242834206,1698242837181,\Somewhat disagree\,\Somewhat disagree\,\2\,1698242836341,1698242836341,2135,2135,2975,buq,qns-item-noham,94,546644,0.0-1.0-0.93
"<b>The world isn?t that complicated, but it?s still hard to figure out how it works.",Highly disagree,95/150,Somewhat disagree,2,1698242837183,1698242845422,\Somewhat agree\,\Somewhat disagree\,\3\,1698242842892,1698242844769,5709,7586,8239,buq,qns-item-noham,95,554885,0.0-1.0-0.94
"<b>When forming my views on people, I rely more on what they are like now rather than rely on my past experience with them.",Highly disagree,96/150,Somewhat agree,3,1698242845424,1698242853054,\Somewhat agree\,\Somewhat agree\,\3\,1698242852519,1698242852519,7095,7095,7630,buq,qns-item-noham,96,562517,0.0-1.0-0.95
"<b>When people contradict my beliefs, I usually know about their evidence already.",Highly disagree,97/150,Somewhat agree,3,1698242853055,1698242861587,\Somewhat agree\,\Somewhat agree\,\3\,1698242860864,1698242860864,7809,7809,8532,buq,qns-item-noham,97,571050,0.0-1.0-0.96
<b>Being wrong is a matter of degree.,Highly disagree,98/150,Somewhat disagree,2,1698242861588,1698242864204,\Somewhat disagree\,\Somewhat disagree\,\2\,1698242863371,1698242863371,1783,1783,2616,buq,qns-item-noham,98,573667,0.0-1.0-0.97
<b>Figuring out what?s true and what?s false mainly requires a strong moral compass.,Highly disagree,99/150,Somewhat agree,3,1698242864206,1698242870289,\Somewhat agree\,\Somewhat agree\,\3\,1698242869449,1698242869449,5243,5243,6083,buq,qns-item-noham,99,579753,0.0-1.0-0.98
<b>Most of the beliefs people have are at least somewhat understandable.,Highly disagree,100/150,Somewhat agree,3,1698242870291,1698242878402,\Somewhat agree\,\Somewhat agree\,\3\,1698242877842,1698242877842,7551,7551,8111,buq,qns-item-noham,100,587865,0.0-1.0-0.99
"<b>Usually I?m wrong about simple things, not complicated ones.",Highly disagree,101/150,Somewhat disagree,2,1698242878404,1698242882357,\Somewhat disagree\,\Somewhat disagree\,\2\,1698242881806,1698242881806,3402,3402,3953,buq,qns-item-noham,101,591820,0.0-1.0-0.100
<b>Getting all the information I want about important things is hard.,Highly disagree,102/150,Somewhat agree,3,1698242882359,1698242885905,\Somewhat agree\,\Somewhat agree\,\3\,1698242885290,1698242885290,2931,2931,3546,buq,qns-item-noham,102,595368,0.0-1.0-0.101
<b>Most false beliefs spread because people try to deceive one another.,Highly disagree,103/150,Somewhat agree,3,1698242885907,1698242891920,\Somewhat agree\,\Somewhat agree\,\3\,1698242889767,1698242889767,3860,3860,6013,buq,qns-item-noham,103,601383,0.0-1.0-0.102
<b>I can usually find something to agree with in most people?s beliefs.,Highly disagree,104/150,Somewhat disagree,2,1698242891923,1698242896196,\Somewhat disagree\,\Somewhat disagree\,\2\,1698242895324,1698242895324,3401,3401,4273,buq,qns-item-noham,104,605659,0.0-1.0-0.103
<b>I only form my views of people once I get to know them very well.,Highly disagree,105/150,Somewhat agree,3,1698242896197,1698242900388,\Somewhat agree\,\Somewhat agree\,\3\,1698242899463,1698242899463,3266,3266,4191,buq,qns-item-noham,105,609851,0.0-1.0-0.104
"<b>When people tell me important things about the world, I usually believe them.",Highly disagree,106/150,Somewhat agree,3,1698242900389,1698242904917,\Somewhat agree\,\Somewhat agree\,\3\,1698242904061,1698242904061,3672,3672,4528,buq,qns-item-noham,106,614380,0.0-1.0-0.105
"<b>If a friend does something that upsets me, it reminds me what an unpredictable place the world is.",Highly disagree,107/150,Somewhat disagree,2,1698242904919,1698242909371,\Somewhat disagree\,\Somewhat disagree\,\2\,1698242908746,1698242908746,3827,3827,4452,buq,qns-item-noham,107,618834,0.0-1.0-0.106
<b>Having some conflicting beliefs is inevitable.,Highly disagree,108/150,Somewhat agree,3,1698242909373,1698242912725,\Somewhat agree\,\Somewhat agree\,\3\,1698242911845,1698242911845,2472,2472,3352,buq,qns-item-noham,108,622188,0.0-1.0-0.107
<b>People are wrong because they haven?t thought much about things.,Highly disagree,109/150,Somewhat disagree,2,1698242912726,1698242919292,\Somewhat disagree\,\Somewhat disagree\,\2\,1698242918460,1698242918460,5734,5734,6566,buq,qns-item-noham,109,628755,0.0-1.0-0.108
<b>People tend to believe whatever is good for their friends.,Highly disagree,110/150,Somewhat agree,3,1698242919294,1698242924497,\Somewhat agree\,\Somewhat agree\,\3\,1698242923865,1698242923865,4571,4571,5203,buq,qns-item-noham,110,633960,0.0-1.0-0.109
"<b>When I talk about important topics, I try to make sure people know I?m not always right.",Highly disagree,111/150,Somewhat agree,3,1698242924499,1698242928704,\Somewhat agree\,\Somewhat agree\,\3\,1698242927780,1698242927780,3281,3281,4205,buq,qns-item-noham,111,638167,0.0-1.0-0.110
<b>I used to be more certain my beliefs were true.,Highly disagree,112/150,Somewhat disagree,2,1698242928706,1698242931971,\Somewhat disagree\,\Somewhat disagree\,\2\,1698242931392,1698242931392,2686,2686,3265,buq,qns-item-noham,112,641434,0.0-1.0-0.111
<b>It?s often pretty easy to figure out whether something is true based on who said it.,Highly disagree,113/150,Somewhat disagree,2,1698242931972,1698242935780,\Somewhat disagree\,\Somewhat disagree\,\2\,1698242935116,1698242935116,3144,3144,3808,buq,qns-item-noham,113,645243,0.0-1.0-0.112
<b>Having bad food in my favorite restaurant will make me think the restaurant is no longer good.,Highly disagree,114/150,Somewhat disagree,2,1698242935781,1698242941241,\Somewhat disagree\,\Somewhat disagree\,\2\,1698242940665,1698242940665,4884,4884,5460,buq,qns-item-noham,114,650704,0.0-1.0-0.113
<b>I transform into a hummingbird every day.,Highly disagree,115/150,Highly disagree,1,1698242941242,1698242946061,\Highly disagree\,\Highly disagree\,\1\,1698242945406,1698242945406,4164,4164,4819,buq,qns-item-noham,115,655524,0.0-1.0-0.114
"<b>Unfortunately, when people are wrong, it?s usually because they?re bad.",Highly disagree,116/150,Somewhat disagree,2,1698242946062,1698242949737,\Somewhat disagree\,\Somewhat disagree\,\2\,1698242948536,1698242948536,2474,2474,3675,buq,qns-item-noham,116,659200,0.0-1.0-0.115
<b>I think a lot about arguments against my views.,Highly disagree,117/150,Somewhat agree,3,1698242949741,1698242954171,\Somewhat agree\,\Somewhat agree\,\3\,1698242953339,1698242953339,3598,3598,4430,buq,qns-item-noham,117,663634,0.0-1.0-0.116
<b>Details tend to matter a lot for knowing whether a policy is good.,Highly disagree,118/150,Somewhat agree,3,1698242954172,1698242958641,\Somewhat agree\,\Somewhat agree\,\3\,1698242958162,1698242958162,3990,3990,4469,buq,qns-item-noham,118,668104,0.0-1.0-0.117
<b>Personal experience is usually more important than facts and figures.,Highly disagree,119/150,Somewhat agree,3,1698242958643,1698242962710,\Somewhat agree\,\Somewhat agree\,\3\,1698242962182,1698242962182,3539,3539,4067,buq,qns-item-noham,119,672173,0.0-1.0-0.118
<b>I?ve been tricked before about important matters.,Highly disagree,120/150,Somewhat agree,3,1698242962711,1698242966270,\Somewhat agree\,\Somewhat agree\,\3\,1698242965730,1698242965730,3019,3019,3559,buq,qns-item-noham,120,675733,0.0-1.0-0.119
<b>I would need to be totally wowed if I were to change my opinion of a restaurant I don?t like.,Highly disagree,121/150,Somewhat agree,3,1698242966271,1698242973424,\Somewhat agree\,\Somewhat agree\,\3\,1698242972792,1698242972792,6521,6521,7153,buq,qns-item-noham,121,682887,0.0-1.0-0.120
<b>I care a lot about politics.,Highly disagree,122/150,Somewhat agree,3,1698242973425,1698242977287,\Somewhat agree\,\Somewhat agree\,\3\,1698242976411,1698242976411,2986,2986,3862,buq,qns-item-noham,122,686750,0.0-1.0-0.121
<b>People with conflicting beliefs usually have some facts they disagree on.,Highly disagree,123/150,Somewhat agree,3,1698242977288,1698242981872,\Somewhat agree\,\Somewhat agree\,\3\,1698242981040,1698242981040,3752,3752,4584,buq,qns-item-noham,123,691335,0.0-1.0-0.122
<b>There are some topics I?ve been really wrong about.,Highly disagree,124/150,Somewhat agree,3,1698242981873,1698242989356,\Somewhat agree\,\Somewhat agree\,\3\,1698242988828,1698242988828,6955,6955,7483,buq,qns-item-noham,124,698819,0.0-1.0-0.123
<b>Most beliefs can be supported with at least some evidence.,Highly disagree,125/150,Somewhat agree,3,1698242989357,1698242992502,\Somewhat agree\,\Somewhat agree\,\3\,1698242991999,1698242991999,2642,2642,3145,buq,qns-item-noham,125,701965,0.0-1.0-0.124
<b>Other people make life out to be more complicated than it really is.,Highly disagree,126/150,Somewhat disagree,2,1698242992504,1698242996822,\Somewhat disagree\,\Somewhat disagree\,\2\,1698242996199,1698242996199,3695,3695,4318,buq,qns-item-noham,126,706286,0.0-1.0-0.125
"<b>My political views are being shaped continuously as I gather more information, rather than relying on what I?ve known to be true of my party in the past. ",Highly disagree,127/150,Somewhat agree,3,1698242996824,1698243001402,\Somewhat agree\,\Somewhat agree\,\3\,1698243000650,1698243000650,3826,3826,4578,buq,qns-item-noham,127,710865,0.0-1.0-0.126
<b>It?s pretty unusual for true things to seem false.,Highly disagree,128/150,Somewhat disagree,2,1698243001404,1698243004983,\Somewhat disagree\,\Somewhat disagree\,\2\,1698243004421,1698243004421,3017,3017,3579,buq,qns-item-noham,128,714446,0.0-1.0-0.127
"<b>Policy details don?t matter much, just the big picture.",Highly disagree,129/150,Somewhat disagree,2,1698243004984,1698243009979,\Somewhat disagree\,\Somewhat disagree\,\2\,1698243009363,1698243009363,4379,4379,4995,buq,qns-item-noham,129,719442,0.0-1.0-0.128
<b>I know my friends so well they can hardly ever surprise me.,Highly disagree,130/150,Somewhat disagree,2,1698243009980,1698243013238,\Somewhat disagree\,\Somewhat disagree\,\2\,1698243012612,1698243012612,2632,2632,3258,buq,qns-item-noham,130,722701,0.0-1.0-0.129
"<b>When I talk to people, I often think about why they have the beliefs they do.",Highly disagree,131/150,Somewhat agree,3,1698243013239,1698243017498,\Somewhat agree\,\Somewhat agree\,\3\,1698243016794,1698243016794,3555,3555,4259,buq,qns-item-noham,131,726961,0.0-1.0-0.130
<b>I do not often change my views on people.,Highly disagree,132/150,Somewhat disagree,2,1698243017500,1698243020108,\Somewhat disagree\,\Somewhat disagree\,\2\,1698243019532,1698243019532,2032,2032,2608,buq,qns-item-noham,132,729571,0.0-1.0-0.131
<b>I often wish I had more time to spend figuring out what?s true and what?s false in life.,Highly disagree,133/150,Somewhat agree,3,1698243020109,1698243024753,\Somewhat agree\,\Somewhat agree\,\3\,1698243024241,1698243024241,4132,4132,4644,buq,qns-item-noham,133,734216,0.0-1.0-0.132
<b>I?m more certain about my beliefs than I used to be.,Highly disagree,134/150,Somewhat agree,3,1698243024754,1698243027659,\Somewhat agree\,\Somewhat agree\,\3\,1698243027020,1698243027020,2266,2266,2905,buq,qns-item-noham,134,737123,0.0-1.0-0.133
"<b>Whenever I find out new information, I update my views on politics accordingly.",Highly disagree,135/150,Somewhat agree,3,1698243027661,1698243030525,\Somewhat agree\,\Somewhat agree\,\3\,1698243030023,1698243030023,2362,2362,2864,buq,qns-item-noham,135,739988,0.0-1.0-0.134
<b>People often tell falsehoods unintentionally.,Highly disagree,136/150,Somewhat agree,3,1698243030526,1698243033570,\Somewhat agree\,\Somewhat agree\,\3\,1698243033041,1698243033041,2515,2515,3044,buq,qns-item-noham,136,743033,0.0-1.0-0.135
<b>Most people don?t know much about most things.,Highly disagree,137/150,Somewhat agree,3,1698243033571,1698243037941,\Somewhat agree\,\Somewhat agree\,\3\,1698243037334,1698243037334,3763,3763,4370,buq,qns-item-noham,137,747404,0.0-1.0-0.136
"<b>If I find out something new about someone, I easily change my views about them.",Highly disagree,138/150,Somewhat disagree,2,1698243037942,1698243042198,\Somewhat disagree\,\Somewhat disagree\,\2\,1698243041549,1698243041549,3607,3607,4256,buq,qns-item-noham,138,751661,0.0-1.0-0.137
<b>Having true beliefs is difficult.,Highly disagree,139/150,Somewhat agree,3,1698243042200,1698243045553,\Somewhat agree\,\Somewhat agree\,\3\,1698243044800,1698243044800,2600,2600,3353,buq,qns-item-noham,139,755016,0.0-1.0-0.138
<b>I don?t try new foods since I know I won?t like them.,Highly disagree,140/150,Somewhat disagree,2,1698243045554,1698243050208,\Somewhat disagree\,\Somewhat disagree\,\2\,1698243049585,1698243049585,4031,4031,4654,buq,qns-item-noham,140,759671,0.0-1.0-0.139
<b>It?s easy to figure out what?s true or false based on who?s saying it.,Highly disagree,141/150,Somewhat disagree,2,1698243050210,1698243053676,\Somewhat disagree\,\Somewhat disagree\,\2\,1698243052948,1698243052948,2738,2738,3466,buq,qns-item-noham,141,763139,0.0-1.0-0.140
<b>False things have seemed true to me many times.,Highly disagree,142/150,Somewhat agree,3,1698243053678,1698243058128,\Somewhat agree\,\Somewhat agree\,\3\,1698243057641,1698243057641,3963,3963,4450,buq,qns-item-noham,142,767591,0.0-1.0-0.141
<b>It?s pretty easy to sort out what?s true and what?s false in life.,Highly disagree,143/150,Somewhat disagree,2,1698243058130,1698243061148,\Somewhat disagree\,\Somewhat disagree\,\2\,1698243060387,1698243060387,2257,2257,3018,buq,qns-item-noham,143,770611,0.0-1.0-0.142
<b>Knowing lots of statistics about something is usually important for understanding it.,Highly disagree,144/150,Somewhat agree,3,1698243061150,1698243064753,\Somewhat agree\,\Somewhat agree\,\3\,1698243063983,1698243063983,2833,2833,3603,buq,qns-item-noham,144,774216,0.0-1.0-0.143
<b>Other people trick each other a lot.,Highly disagree,145/150,Somewhat agree,3,1698243064755,1698243067553,\Somewhat agree\,\Somewhat agree\,\3\,1698243067057,1698243067057,2302,2302,2798,buq,qns-item-noham,145,777016,0.0-1.0-0.144
<b>I would need to learn a lot about a person for my opinion of them to be swayed.,Highly disagree,146/150,Somewhat agree,3,1698243067555,1698243072336,\Somewhat agree\,\Somewhat agree\,\3\,1698243071510,1698243071510,3955,3955,4781,buq,qns-item-noham,146,781799,0.0-1.0-0.145
<b>People can?t usually trick me when it comes to topics I care about.,Highly disagree,147/150,Somewhat disagree,2,1698243072338,1698243077522,\Somewhat disagree\,\Somewhat disagree\,\2\,1698243076676,1698243076676,4338,4338,5184,buq,qns-item-noham,147,786986,0.0-1.0-0.146
<b>I do not often change my views on food.,Highly disagree,148/150,Somewhat agree,3,1698243077524,1698243082065,\Somewhat disagree\,\Somewhat agree\,\2\,1698243080327,1698243081343,2803,3819,4541,buq,qns-item-noham,148,791528,0.0-1.0-0.147
<b>Specific policies are often very important to me.,Highly disagree,149/150,Somewhat agree,3,1698243082067,1698243087030,\Somewhat agree\,\Somewhat agree\,\3\,1698243085948,1698243085948,3881,3881,4963,buq,qns-item-noham,149,796493,0.0-1.0-0.148
<b>Most people are woefully under-informed.,Highly disagree,150/150,Somewhat agree,3,1698243087033,1698243090202,\Somewhat agree\,\Somewhat agree\,\3\,1698243089608,1698243089608,2575,2575,3169,buq,qns-item-noham,150,799665,0.0-1.0-0.149
