Question,qns_options,quest_num,answer,answer_num,question_load_timestamp,next_btn_timestamp,text_selected,final_text_selected,option_num_selected,preview_timestamps,final_text_selected_time_stamp,rt_first_option_click,rt_final_option_click,rt_submit_click,questionnaire,trial_type,trial_index,time_elapsed,internal_node_id
<b>Considering other people?s perspectives can help us figure out what?s true or false.,Highly disagree,1/150,Somewhat agree,3,1698242422327,1698242428772,\Somewhat agree\,\Somewhat agree\,\3\,1698242427622,1698242427622,5295,5295,6445,buq,qns-item-noham,1,15190,0.0-1.0-0.0
<b>Knowing what?s true and knowing what to do about it are usually basically the same.,Highly disagree,2/150,Somewhat disagree,2,1698242428781,1698242435629,\Somewhat disagree\,\Somewhat disagree\,\2\,1698242435021,1698242435021,6240,6240,6848,buq,qns-item-noham,2,22047,0.0-1.0-0.1
<b>Most people just believe whatever is convenient for them.,Highly disagree,3/150,Somewhat agree,3,1698242435632,1698242439873,\Somewhat agree\,\Somewhat agree\,\3\,1698242439277,1698242439277,3645,3645,4241,buq,qns-item-noham,3,26291,0.0-1.0-0.2
<b>Even people who are wrong about most things can be right sometimes.,Highly disagree,4/150,Somewhat agree,3,1698242439875,1698242444253,\Somewhat agree\,\Somewhat agree\,\3\,1698242443587,1698242443587,3712,3712,4378,buq,qns-item-noham,4,30671,0.0-1.0-0.3
"<b>If the political party I support does something that upsets me, then the party may have changed, and I need to re-evaluate my support.",Highly disagree,5/150,Somewhat agree,3,1698242444255,1698242452561,\Somewhat agree\,\Somewhat agree\,\3\,1698242451843,1698242451843,7588,7588,8306,buq,qns-item-noham,5,38979,0.0-1.0-0.4
"<b>When people disagree, one side is usually completely right.",Highly disagree,6/150,Somewhat disagree,2,1698242452563,1698242457717,\Somewhat disagree\,\Somewhat disagree\,\2\,1698242457065,1698242457065,4502,4502,5154,buq,qns-item-noham,6,44135,0.0-1.0-0.5
<b>People have lots of false beliefs.,Highly disagree,7/150,Highly agree,4,1698242457719,1698242461556,\Highly agree\,\Highly agree\,\4\,1698242460967,1698242460967,3248,3248,3837,buq,qns-item-noham,7,47974,0.0-1.0-0.6
<b>Having some big beliefs helps me sort out minor ones.,Highly disagree,8/150,Somewhat disagree,2,1698242461558,1698242466537,\Somewhat disagree\,\Somewhat disagree\,\2\,1698242465965,1698242465965,4407,4407,4979,buq,qns-item-noham,8,52955,0.0-1.0-0.7
<b>Political questions are usually pretty complicated.,Highly disagree,9/150,Somewhat agree,3,1698242466539,1698242470269,\Somewhat agree\,\Somewhat agree\,\3\,1698242469683,1698242469683,3144,3144,3730,buq,qns-item-noham,9,56687,0.0-1.0-0.8
<b>Figuring out what?s important in life requires learning a lot of facts.,Highly disagree,10/150,Somewhat agree,3,1698242470271,1698242474485,\Somewhat agree\,\Somewhat agree\,\3\,1698242474007,1698242474007,3736,3736,4214,buq,qns-item-noham,10,60903,0.0-1.0-0.9
<b>It is difficult for me to remember the last time I was surprised by politics.,Highly disagree,11/150,Highly disagree,1,1698242474487,1698242481971,\Highly disagree\,\Highly disagree\,\1\,1698242481393,1698242481393,6906,6906,7484,buq,qns-item-noham,11,68389,0.0-1.0-0.10
<b>People?s false beliefs are understandable.,Highly disagree,12/150,Somewhat disagree,2,1698242481973,1698242485967,\Somewhat disagree\,\Somewhat disagree\,\2\,1698242485365,1698242485365,3392,3392,3994,buq,qns-item-noham,12,72385,0.0-1.0-0.11
<b>I spend a lot of time trying to be informed about politics.,Highly disagree,13/150,Highly disagree,1,1698242485976,1698242488917,\Highly disagree\,\Highly disagree\,\1\,1698242488369,1698242488369,2393,2393,2941,buq,qns-item-noham,13,75335,0.0-1.0-0.12
<b>I think a lot about whether my beliefs are right.,Highly disagree,14/150,Somewhat disagree,2,1698242488919,1698242492533,\Somewhat disagree\,\Somewhat disagree\,\2\,1698242492023,1698242492023,3104,3104,3614,buq,qns-item-noham,14,78951,0.0-1.0-0.13
<b>Statistics can be pretty misleading sometimes.,Highly disagree,15/150,Somewhat disagree,2,1698242492535,1698242497596,\Somewhat disagree\,\Somewhat disagree\,\2\,1698242496811,1698242496811,4276,4276,5061,buq,qns-item-noham,15,84014,0.0-1.0-0.14
<b>Figuring out what?s true and what?s false takes a lot of time and effort.,Highly disagree,16/150,Somewhat agree,3,1698242497598,1698242501839,\Somewhat agree\,\Somewhat agree\,\3\,1698242501260,1698242501260,3662,3662,4241,buq,qns-item-noham,16,88257,0.0-1.0-0.15
"<b>If a friend does something bad to me, it was likely an error on their part.",Highly disagree,17/150,Somewhat agree,3,1698242501841,1698242507858,\Somewhat agree\,\Somewhat agree\,\3\,1698242507346,1698242507346,5505,5505,6017,buq,qns-item-noham,17,94276,0.0-1.0-0.16
<b>I have lots of beliefs that I?m only sort of sure about.,Highly disagree,18/150,Somewhat agree,3,1698242507860,1698242511832,\Somewhat agree\,\Somewhat agree\,\3\,1698242511334,1698242511334,3474,3474,3972,buq,qns-item-noham,18,98250,0.0-1.0-0.17
"<b>If I go to my favorite restaurant and the food is surprisingly bad, it reminds me there are many disappointments in life.",Highly disagree,19/150,Somewhat agree,3,1698242511834,1698242518302,\Somewhat agree\,\Somewhat agree\,\3\,1698242517656,1698242517656,5822,5822,6468,buq,qns-item-noham,19,104720,0.0-1.0-0.18
<b>Sometimes my beliefs are inconvenient for me.,Highly disagree,20/150,Somewhat disagree,2,1698242518304,1698242522066,\Somewhat disagree\,\Somewhat disagree\,\2\,1698242521562,1698242521562,3258,3258,3762,buq,qns-item-noham,20,108484,0.0-1.0-0.19
<b>Paying attention to multiple news sources is important.,Highly disagree,21/150,Somewhat agree,3,1698242522068,1698242527522,\Somewhat agree\,\Somewhat agree\,\3\,1698242526610,1698242526610,4542,4542,5454,buq,qns-item-noham,21,113940,0.0-1.0-0.20
"<b>If you are paying attention, please select ?Somewhat agree?",Highly disagree,22/150,Somewhat agree,3,1698242527524,1698242532508,\Somewhat agree\,\Somewhat agree\,\3\,1698242531860,1698242531860,4336,4336,4984,buq,qns-item-noham,22,118926,0.0-1.0-0.21
"<b>When I talk to others, I often worry I?ll convince them of something I didn?t mean to.",Highly disagree,23/150,Somewhat agree,3,1698242532510,1698242539410,\Somewhat agree\,\Somewhat agree\,\3\,1698242538898,1698242538898,6388,6388,6900,buq,qns-item-noham,23,125828,0.0-1.0-0.22
<b>I would need to learn something utterly shocking about my party in order to change my political views.,Highly disagree,24/150,Somewhat agree,3,1698242539412,1698242545192,\Somewhat agree\,\Somewhat agree\,\3\,1698242544578,1698242544578,5166,5166,5780,buq,qns-item-noham,24,131610,0.0-1.0-0.23
"<b>When I have new experiences, I tend to think of them as unique.",Highly disagree,25/150,Somewhat agree,3,1698242545194,1698242549786,\Somewhat agree\,\Somewhat agree\,\3\,1698242549242,1698242549242,4048,4048,4592,buq,qns-item-noham,25,136204,0.0-1.0-0.24
<b>Reading lots of things is important for understanding the world.,Highly disagree,26/150,Highly agree,4,1698242549789,1698242552892,\Highly agree\,\Highly agree\,\4\,1698242552338,1698242552338,2549,2549,3103,buq,qns-item-noham,26,139310,0.0-1.0-0.25
<b>The world is complicated.,Highly disagree,27/150,Highly agree,4,1698242552893,1698242554794,\Highly agree\,\Highly agree\,\4\,1698242554272,1698242554272,1379,1379,1901,buq,qns-item-noham,27,141212,0.0-1.0-0.26
<b>I change my mind about specific policies pretty frequently.,Highly disagree,28/150,Somewhat disagree,2,1698242554795,1698242558292,\Somewhat disagree\,\Somewhat disagree\,\2\,1698242557695,1698242557695,2900,2900,3497,buq,qns-item-noham,28,144710,0.0-1.0-0.27
"<b>If a politician in my political party supports something I disagree with, I give them the benefit of the doubt, as such issues often involve hidden complexities that aren?t obvious.   ",Highly disagree,29/150,Somewhat disagree,2,1698242558293,1698242565142,\Somewhat disagree\,\Somewhat disagree\,\2\,1698242564621,1698242564621,6328,6328,6849,buq,qns-item-noham,29,151560,0.0-1.0-0.28
<b>People?s bad politics are usually motivated by hatefulness.,Highly disagree,30/150,Somewhat disagree,2,1698242565144,1698242568905,\Somewhat disagree\,\Somewhat disagree\,\2\,1698242568403,1698242568403,3259,3259,3761,buq,qns-item-noham,30,155323,0.0-1.0-0.29
"<b>Most new experiences are just like old ones, but a little bit different.",Highly disagree,31/150,Somewhat agree,3,1698242568907,1698242573967,\Somewhat agree\,\Somewhat agree\,\3\,1698242573331,1698242573331,4424,4424,5060,buq,qns-item-noham,31,160386,0.0-1.0-0.30
<b>I think a lot about how to reconcile my beliefs with one another.,Highly disagree,32/150,Somewhat disagree,2,1698242573969,1698242577233,\Somewhat disagree\,\Somewhat disagree\,\2\,1698242576739,1698242576739,2770,2770,3264,buq,qns-item-noham,32,163651,0.0-1.0-0.31
<b>Personal experience rarely leads people astray.,Highly disagree,33/150,Somewhat agree,3,1698242577235,1698242583269,\Somewhat agree\,\Somewhat agree\,\3\,1698242582785,1698242582785,5550,5550,6034,buq,qns-item-noham,33,169687,0.0-1.0-0.32
<b>I might have false beliefs about important topics.,Highly disagree,34/150,Somewhat disagree,2,1698242583271,1698242587179,\Somewhat disagree\,\Somewhat disagree\,\2\,1698242586707,1698242586707,3436,3436,3908,buq,qns-item-noham,34,173597,0.0-1.0-0.33
"<b>If a good friend of mine does something unexpected that upsets me, I feel like I don?t know them anymore.",Highly disagree,35/150,Somewhat agree,3,1698242587180,1698242594419,\Somewhat agree\,\Somewhat agree\,\3\,1698242593873,1698242593873,6693,6693,7239,buq,qns-item-noham,35,180837,0.0-1.0-0.34
<b>Other people?s beliefs are often incoherent.,Highly disagree,36/150,Somewhat agree,3,1698242594421,1698242598931,\Somewhat agree\,\Somewhat agree\,\3\,1698242598445,1698242598445,4024,4024,4510,buq,qns-item-noham,36,185349,0.0-1.0-0.35
<b>It?s important to have friends who think about things differently than I do.,Highly disagree,37/150,Somewhat disagree,2,1698242598933,1698242603340,\Somewhat disagree\,\Somewhat disagree\,\2\,1698242602898,1698242602898,3965,3965,4407,buq,qns-item-noham,37,189758,0.0-1.0-0.36
"<b>Every now and then, a new experience will unsettle beliefs I?ve had for a while.",Highly disagree,38/150,Somewhat disagree,2,1698242603342,1698242607823,\Somewhat disagree\,\Somewhat disagree\,\2\,1698242607316,1698242607316,3974,3974,4481,buq,qns-item-noham,38,194241,0.0-1.0-0.37
<b>Some policies I agree with in principle are so bad I don?t support them. ,Highly disagree,39/150,Somewhat disagree,2,1698242607825,1698242616098,\Somewhat disagree\,\Somewhat disagree\,\2\,1698242615602,1698242615602,7777,7777,8273,buq,qns-item-noham,39,202516,0.0-1.0-0.38
<b>I?m pretty sure I?ve accidentally spread false information.,Highly disagree,40/150,Highly disagree,1,1698242616100,1698242620826,\Highly disagree\,\Highly disagree\,\1\,1698242620280,1698242620280,4180,4180,4726,buq,qns-item-noham,40,207244,0.0-1.0-0.39
"<b>If I go to my favorite restaurant and the food is unexpectedly bad, then they have changed owners.",Highly disagree,41/150,Highly disagree,1,1698242620828,1698242627090,\Highly disagree\,\Highly disagree\,\1\,1698242626312,1698242626312,5484,5484,6262,buq,qns-item-noham,41,213508,0.0-1.0-0.40
"<b>In politics, it?s important to trust your friends and family.",Highly disagree,42/150,Highly disagree,1,1698242627092,1698242630978,\Highly disagree\,\Highly disagree\,\1\,1698242630490,1698242630490,3398,3398,3886,buq,qns-item-noham,42,217396,0.0-1.0-0.41
<b>It?s OK to have some conflicting beliefs.,Highly disagree,43/150,Somewhat agree,3,1698242630980,1698242634690,\Somewhat agree\,\Somewhat agree\,\3\,1698242634020,1698242634020,3040,3040,3710,buq,qns-item-noham,43,221108,0.0-1.0-0.42
<b>Sometimes the details of a matter seem to conflict with the big picture.,Highly disagree,44/150,Somewhat agree,3,1698242634691,1698242639895,\Somewhat agree\,\Somewhat agree\,\3\,1698242639472,1698242639472,4781,4781,5204,buq,qns-item-noham,44,226313,0.0-1.0-0.43
<b>Listening to people I disagree with makes my opinions better.,Highly disagree,45/150,Somewhat disagree,2,1698242639897,1698242643480,\Somewhat disagree\,\Somewhat disagree\,\2\,1698242642952,1698242642952,3055,3055,3583,buq,qns-item-noham,45,229898,0.0-1.0-0.44
<b>Policies that sound bad are sometimes fine when you find out about their details.,Highly disagree,46/150,Somewhat agree,3,1698242643482,1698242648956,\Somewhat agree\,\Somewhat agree\,\3\,1698242648460,1698242648460,4978,4978,5474,buq,qns-item-noham,46,235374,0.0-1.0-0.45
"<b>The world is always changing, so my beliefs are sometimes out-dated.",Highly disagree,47/150,Somewhat agree,3,1698242648957,1698242654106,\Somewhat agree\,\Somewhat agree\,\3\,1698242653650,1698242653650,4693,4693,5149,buq,qns-item-noham,47,240524,0.0-1.0-0.46
"<b>If I receive a bad meal at my favorite restaurant and the food is surprisingly bad, I do not think much of it, and assume the chef is just having an ?off? day.",Highly disagree,48/150,Somewhat agree,3,1698242654107,1698242661714,\Somewhat agree\,\Somewhat agree\,\3\,1698242661238,1698242661238,7131,7131,7607,buq,qns-item-noham,48,248132,0.0-1.0-0.47
"<b>False information is unavoidable, to some extent.",Highly disagree,49/150,Somewhat agree,3,1698242661716,1698242664574,\Somewhat agree\,\Somewhat agree\,\3\,1698242664091,1698242664091,2375,2375,2858,buq,qns-item-noham,49,250992,0.0-1.0-0.48
<b>My moral compass sometimes makes it harder to determine what?s true.,Highly disagree,50/150,Somewhat disagree,2,1698242664576,1698242669359,\Somewhat disagree\,\Somewhat disagree\,\2\,1698242668727,1698242668727,4151,4151,4783,buq,qns-item-noham,50,255777,0.0-1.0-0.49
"<b>When you disagree with someone, it?s important to listen to them carefully.",Highly disagree,51/150,Somewhat agree,3,1698242669361,1698242672240,\Somewhat agree\,\Somewhat agree\,\3\,1698242671859,1698242671859,2498,2498,2879,buq,qns-item-noham,51,258658,0.0-1.0-0.50
<b>Evidence pointing in the wrong direction isn?t really evidence at all.,Highly disagree,52/150,Somewhat agree,3,1698242672242,1698242676638,\Somewhat agree\,\Somewhat agree\,\3\,1698242676244,1698242676244,4002,4002,4396,buq,qns-item-noham,52,263056,0.0-1.0-0.51
"<b>If the political party I support messes up, it makes me think politics is rotten.",Highly disagree,53/150,Somewhat disagree,2,1698242676640,1698242684186,\Somewhat disagree\,\Somewhat disagree\,\2\,1698242683607,1698242683607,6967,6967,7546,buq,qns-item-noham,53,270604,0.0-1.0-0.52
<b>Lots of important topics can only really be understood by some groups of people.,Highly disagree,54/150,Somewhat agree,3,1698242684188,1698242688647,\Somewhat agree\,\Somewhat agree\,\3\,1698242688135,1698242688135,3947,3947,4459,buq,qns-item-noham,54,275065,0.0-1.0-0.53
<b>Details almost always matter for being right about something.,Highly disagree,55/150,Highly agree,4,1698242688649,1698242692214,\Highly agree\,\Highly agree\,\4\,1698242691761,1698242691761,3112,3112,3565,buq,qns-item-noham,55,278632,0.0-1.0-0.54
"<b>The most important thing in politics is winning, not convincing people.",Highly disagree,56/150,Highly disagree,1,1698242692216,1698242697715,\Highly disagree\,\Highly disagree\,\1\,1698242697223,1698242697223,5007,5007,5499,buq,qns-item-noham,56,284133,0.0-1.0-0.55
<b>Having conflicting beliefs means you haven?t thought about them enough.,Highly disagree,57/150,Somewhat disagree,2,1698242697717,1698242702645,\Somewhat disagree\,\Somewhat disagree\,\2\,1698242702163,1698242702163,4446,4446,4928,buq,qns-item-noham,57,289063,0.0-1.0-0.56
<b>Other people have sometimes convinced me to change my mind on important topics.,Highly disagree,58/150,Somewhat disagree,2,1698242702647,1698242707663,\Somewhat disagree\,\Somewhat disagree\,\2\,1698242707089,1698242707089,4442,4442,5016,buq,qns-item-noham,58,294081,0.0-1.0-0.57
<b>I do not often change my political opinions.,Highly disagree,59/150,Highly disagree,1,1698242707665,1698242710993,\Highly disagree\,\Highly disagree\,\1\,1698242710449,1698242710449,2784,2784,3328,buq,qns-item-noham,59,297411,0.0-1.0-0.58
<b>Thinking about how different things relate to one another is critical in life.,Highly disagree,60/150,Somewhat agree,3,1698242710995,1698242714767,\Somewhat agree\,\Somewhat agree\,\3\,1698242714362,1698242714362,3367,3367,3772,buq,qns-item-noham,60,301185,0.0-1.0-0.59
<b>True beliefs can have unfortunate implications.,Highly disagree,61/150,Somewhat agree,3,1698242714769,1698242717857,\Somewhat agree\,\Somewhat agree\,\3\,1698242717458,1698242717458,2689,2689,3088,buq,qns-item-noham,61,304275,0.0-1.0-0.60
<b>It?s difficult to not have at least some conflicting beliefs.,Highly disagree,62/150,Somewhat agree,3,1698242717858,1698242722181,\Somewhat agree\,\Somewhat agree\,\3\,1698242721719,1698242721719,3861,3861,4323,buq,qns-item-noham,62,308599,0.0-1.0-0.61
"<b>When I learn new things, I think deeply about how my opinions should change.",Highly disagree,63/150,Somewhat agree,3,1698242722182,1698242725514,\Somewhat agree\,\Somewhat agree\,\3\,1698242725094,1698242725094,2912,2912,3332,buq,qns-item-noham,63,311933,0.0-1.0-0.62
<b>I think a lot about how to interpret different sorts of evidence.,Highly disagree,64/150,Highly agree,4,1698242725516,1698242728903,\Highly agree\,\Highly agree\,\4\,1698242728458,1698242728458,2942,2942,3387,buq,qns-item-noham,64,315321,0.0-1.0-0.63
<b>Politics is about thinking together and finding compromises.,Highly disagree,65/150,Somewhat agree,3,1698242728905,1698242732644,\Somewhat agree\,\Somewhat agree\,\3\,1698242732184,1698242732184,3279,3279,3739,buq,qns-item-noham,65,319062,0.0-1.0-0.64
<b>Wishful thinking causes a lot of problems.,Highly disagree,66/150,Highly disagree,1,1698242732646,1698242735598,\Highly disagree\,\Highly disagree\,\1\,1698242735152,1698242735152,2506,2506,2952,buq,qns-item-noham,66,322016,0.0-1.0-0.65
<b>I judge a food item only once I try it many times.,Highly disagree,67/150,Highly disagree,1,1698242735600,1698242741288,\Highly disagree\,\Highly disagree\,\1\,1698242740850,1698242740850,5250,5250,5688,buq,qns-item-noham,67,327706,0.0-1.0-0.66
"<b>When a person holds conflicting beliefs, they should really try to figure out what?s wrong.",Highly disagree,68/150,Somewhat agree,3,1698242741290,1698242745816,\Somewhat agree\,\Somewhat agree\,\3\,1698242745380,1698242745380,4090,4090,4526,buq,qns-item-noham,68,332234,0.0-1.0-0.67
<b>Knowing what?s important in life is easy.,Highly disagree,69/150,Somewhat agree,3,1698242745818,1698242749516,\Somewhat agree\,\Somewhat agree\,\3\,1698242748104,1698242748104,2286,2286,3698,buq,qns-item-noham,69,335934,0.0-1.0-0.68
<b>Lots of smart people disagree about basic political questions.,Highly disagree,70/150,Highly disagree,1,1698242749518,1698242753098,\Highly disagree\,\Highly disagree\,\1\,1698242752618,1698242752618,3100,3100,3580,buq,qns-item-noham,70,339516,0.0-1.0-0.69
<b>I swim across the Atlantic Ocean to get to work every day.,Highly disagree,71/150,Highly disagree,1,1698242753099,1698242759385,\Highly disagree\,\Highly disagree\,\1\,1698242758451,1698242758451,5352,5352,6286,buq,qns-item-noham,71,345803,0.0-1.0-0.70
"<b>Sometimes, you just have to ignore evidence that you know is wrong.",Highly disagree,72/150,Somewhat agree,3,1698242759387,1698242765247,\Somewhat agree\,\Somewhat agree\,\3\,1698242764757,1698242764757,5370,5370,5860,buq,qns-item-noham,72,351665,0.0-1.0-0.71
<b>I have had some false beliefs.,Highly disagree,73/150,Somewhat disagree,2,1698242765250,1698242767725,\Somewhat disagree\,\Somewhat disagree\,\2\,1698242767283,1698242767283,2033,2033,2475,buq,qns-item-noham,73,354143,0.0-1.0-0.72
"<b>If one friend does something that upsets me, I sometimes start to distrust people in general.",Highly disagree,74/150,Somewhat agree,3,1698242767727,1698242773477,\Somewhat agree\,\Somewhat agree\,\3\,1698242772955,1698242772955,5228,5228,5750,buq,qns-item-noham,74,359895,0.0-1.0-0.73
<b>I easily apply what I learn in one situation to another.,Highly disagree,75/150,Highly agree,4,1698242773478,1698242776483,\Highly agree\,\Highly agree\,\4\,1698242776113,1698242776113,2635,2635,3005,buq,qns-item-noham,75,362901,0.0-1.0-0.74
<b>The facts about most important matters are easy to find.,Highly disagree,76/150,Somewhat agree,3,1698242776484,1698242779907,\Somewhat agree\,\Somewhat agree\,\3\,1698242779346,1698242779346,2862,2862,3423,buq,qns-item-noham,76,366325,0.0-1.0-0.75
<b>It?s better to know what?s true than to know what?s moral.,Highly disagree,77/150,Somewhat agree,3,1698242779908,1698242786507,\Somewhat agree\,\Somewhat agree\,\3\,1698242785919,1698242785919,6011,6011,6599,buq,qns-item-noham,77,372925,0.0-1.0-0.76
<b>It?s good to be skeptical of people you agree with.,Highly disagree,78/150,Somewhat agree,3,1698242786509,1698242789752,\Somewhat agree\,\Somewhat agree\,\3\,1698242789216,1698242789216,2707,2707,3243,buq,qns-item-noham,78,376171,0.0-1.0-0.77
<b>Sometimes reasonable beliefs are wrong.,Highly disagree,79/150,Somewhat agree,3,1698242789754,1698242792204,\Somewhat agree\,\Somewhat agree\,\3\,1698242791736,1698242791736,1982,1982,2450,buq,qns-item-noham,79,378622,0.0-1.0-0.78
<b>I used to think the world was less complicated than I do now.,Highly disagree,80/150,Somewhat agree,3,1698242792206,1698242796154,\Somewhat agree\,\Somewhat agree\,\3\,1698242795644,1698242795644,3438,3438,3948,buq,qns-item-noham,80,382572,0.0-1.0-0.79
<b>People are usually completely right or completely wrong.,Highly disagree,81/150,Highly disagree,1,1698242796156,1698242799284,\Highly disagree\,\Highly disagree\,\1\,1698242798714,1698242798714,2558,2558,3128,buq,qns-item-noham,81,385702,0.0-1.0-0.80
<b>I spend a lot of time considering alternatives to my beliefs.,Highly disagree,82/150,Somewhat disagree,2,1698242799287,1698242802514,\Somewhat disagree\,\Somewhat disagree\,\2\,1698242801954,1698242801954,2667,2667,3227,buq,qns-item-noham,82,388932,0.0-1.0-0.81
"<b>Political enemies need to be defeated, not convinced.",Highly disagree,83/150,Somewhat disagree,2,1698242802516,1698242807412,\Somewhat disagree\,\Somewhat disagree\,\2\,1698242806808,1698242806808,4292,4292,4896,buq,qns-item-noham,83,393830,0.0-1.0-0.82
"<b>When forming an opinion about a restaurant, I am more swayed by my  latest meal there than  previous meals I?ve had there.",Highly disagree,84/150,Somewhat disagree,2,1698242807414,1698242813724,\Somewhat disagree\,\Somewhat disagree\,\2\,1698242813256,1698242813256,5842,5842,6310,buq,qns-item-noham,84,400142,0.0-1.0-0.83
<b>I try to remain skeptical about most topics.,Highly disagree,85/150,Highly agree,4,1698242813726,1698242816308,\Highly agree\,\Highly agree\,\4\,1698242815900,1698242815900,2174,2174,2582,buq,qns-item-noham,85,402726,0.0-1.0-0.84
<b>Being wrong is usually obvious in retrospect.,Highly disagree,86/150,Somewhat agree,3,1698242816309,1698242819912,\Somewhat agree\,\Somewhat agree\,\3\,1698242819526,1698242819526,3217,3217,3603,buq,qns-item-noham,86,406330,0.0-1.0-0.85
<b>It can be hard to realize that my beliefs are in conflict.,Highly disagree,87/150,Somewhat disagree,2,1698242819914,1698242823696,\Somewhat disagree\,\Somewhat disagree\,\2\,1698242823134,1698242823134,3220,3220,3782,buq,qns-item-noham,87,410114,0.0-1.0-0.86
<b>I form my political views only after meticulously gathering historical and present information about their policies.,Highly disagree,88/150,Somewhat disagree,2,1698242823698,1698242828488,\Somewhat disagree\,\Somewhat disagree\,\2\,1698242828088,1698242828088,4390,4390,4790,buq,qns-item-noham,88,414906,0.0-1.0-0.87
<b>Skeptical people are usually just bad-tempered.,Highly disagree,89/150,Highly disagree,1,1698242828489,1698242831736,\Highly disagree\,\Highly disagree\,\1\,1698242831305,1698242831305,2816,2816,3247,buq,qns-item-noham,89,418154,0.0-1.0-0.88
<b>It is difficult for me to remember the last time I was surprised by politics.,Highly disagree,90/150,Highly disagree,1,1698242831738,1698242836146,\Highly disagree\,\Highly disagree\,\1\,1698242835346,1698242835346,3608,3608,4408,buq,qns-item-noham,90,422564,0.0-1.0-0.89
"<b>When I find out I?m wrong, I think a lot about my related beliefs.",Highly disagree,91/150,Somewhat agree,3,1698242836147,1698242840372,\Somewhat agree\,\Somewhat agree\,\3\,1698242839988,1698242839988,3841,3841,4225,buq,qns-item-noham,91,426790,0.0-1.0-0.90
"<b>If the political party I support messes up, it makes me think you can?t trust anyone these days",Highly disagree,92/150,Somewhat agree,3,1698242840373,1698242849276,\Somewhat agree\,\Somewhat agree\,\3\,1698242848742,1698242848742,8369,8369,8903,buq,qns-item-noham,92,435694,0.0-1.0-0.91
<b>People?s brains turn off when they talk about politics.,Highly disagree,93/150,Somewhat agree,3,1698242849277,1698242853829,\Somewhat agree\,\Somewhat agree\,\3\,1698242853338,1698242853338,4061,4061,4552,buq,qns-item-noham,93,440247,0.0-1.0-0.92
<b>People who are wrong are usually just ignoring the obvious.,Highly disagree,94/150,Somewhat agree,3,1698242853831,1698242859853,\Somewhat agree\,\Somewhat agree\,\3\,1698242859335,1698242859335,5504,5504,6022,buq,qns-item-noham,94,446271,0.0-1.0-0.93
"<b>The world isn?t that complicated, but it?s still hard to figure out how it works.",Highly disagree,95/150,Somewhat disagree,2,1698242859855,1698242864095,\Somewhat disagree\,\Somewhat disagree\,\2\,1698242863667,1698242863667,3812,3812,4240,buq,qns-item-noham,95,450513,0.0-1.0-0.94
"<b>When forming my views on people, I rely more on what they are like now rather than rely on my past experience with them.",Highly disagree,96/150,Somewhat agree,3,1698242864097,1698242871277,\Somewhat agree\,\Somewhat agree\,\3\,1698242870749,1698242870749,6652,6652,7180,buq,qns-item-noham,96,457695,0.0-1.0-0.95
"<b>When people contradict my beliefs, I usually know about their evidence already.",Highly disagree,97/150,Somewhat disagree,2,1698242871279,1698242875503,\Somewhat disagree\,\Somewhat disagree\,\2\,1698242875133,1698242875133,3854,3854,4224,buq,qns-item-noham,97,461921,0.0-1.0-0.96
<b>Being wrong is a matter of degree.,Highly disagree,98/150,Somewhat disagree,2,1698242875505,1698242878649,\Somewhat disagree\,\Somewhat disagree\,\2\,1698242877991,1698242877991,2486,2486,3144,buq,qns-item-noham,98,465067,0.0-1.0-0.97
<b>Figuring out what?s true and what?s false mainly requires a strong moral compass.,Highly disagree,99/150,Somewhat disagree,2,1698242878651,1698242884003,\Somewhat disagree\,\Somewhat disagree\,\2\,1698242883543,1698242883543,4892,4892,5352,buq,qns-item-noham,99,470421,0.0-1.0-0.98
<b>Most of the beliefs people have are at least somewhat understandable.,Highly disagree,100/150,Somewhat agree,3,1698242884005,1698242888509,\Somewhat agree\,\Somewhat agree\,\3\,1698242887987,1698242887987,3982,3982,4504,buq,qns-item-noham,100,474927,0.0-1.0-0.99
"<b>Usually I?m wrong about simple things, not complicated ones.",Highly disagree,101/150,Somewhat agree,3,1698242888510,1698242894297,\Somewhat agree\,\Somewhat agree\,\3\,1698242893835,1698242893835,5325,5325,5787,buq,qns-item-noham,101,480716,0.0-1.0-0.100
<b>Getting all the information I want about important things is hard.,Highly disagree,102/150,Somewhat disagree,2,1698242894299,1698242897745,\Somewhat disagree\,\Somewhat disagree\,\2\,1698242897334,1698242897334,3035,3035,3446,buq,qns-item-noham,102,484163,0.0-1.0-0.101
<b>Most false beliefs spread because people try to deceive one another.,Highly disagree,103/150,Somewhat agree,3,1698242897746,1698242901291,\Somewhat agree\,\Somewhat agree\,\3\,1698242900866,1698242900866,3120,3120,3545,buq,qns-item-noham,103,487709,0.0-1.0-0.102
<b>I can usually find something to agree with in most people?s beliefs.,Highly disagree,104/150,Somewhat agree,3,1698242901293,1698242904544,\Somewhat agree\,\Somewhat agree\,\3\,1698242904176,1698242904176,2883,2883,3251,buq,qns-item-noham,104,490962,0.0-1.0-0.103
<b>I only form my views of people once I get to know them very well.,Highly disagree,105/150,Somewhat agree,3,1698242904546,1698242909750,\Somewhat agree\,\Somewhat agree\,\3\,1698242909328,1698242909328,4782,4782,5204,buq,qns-item-noham,105,496168,0.0-1.0-0.104
"<b>When people tell me important things about the world, I usually believe them.",Highly disagree,106/150,Somewhat agree,3,1698242909752,1698242913904,\Somewhat agree\,\Somewhat agree\,\3\,1698242913446,1698242913446,3694,3694,4152,buq,qns-item-noham,106,500322,0.0-1.0-0.105
"<b>If a friend does something that upsets me, it reminds me what an unpredictable place the world is.",Highly disagree,107/150,Somewhat agree,3,1698242913906,1698242918356,\Somewhat agree\,\Somewhat agree\,\3\,1698242917894,1698242917894,3988,3988,4450,buq,qns-item-noham,107,504774,0.0-1.0-0.106
<b>Having some conflicting beliefs is inevitable.,Highly disagree,108/150,Somewhat agree,3,1698242918358,1698242921532,\Somewhat agree\,\Somewhat agree\,\3\,1698242921078,1698242921078,2720,2720,3174,buq,qns-item-noham,108,507950,0.0-1.0-0.107
<b>People are wrong because they haven?t thought much about things.,Highly disagree,109/150,Somewhat agree,3,1698242921534,1698242924648,\Somewhat agree\,\Somewhat agree\,\3\,1698242924304,1698242924304,2770,2770,3114,buq,qns-item-noham,109,511066,0.0-1.0-0.108
<b>People tend to believe whatever is good for their friends.,Highly disagree,110/150,Somewhat agree,3,1698242924650,1698242927823,\Somewhat agree\,\Somewhat agree\,\3\,1698242927406,1698242927406,2756,2756,3173,buq,qns-item-noham,110,514241,0.0-1.0-0.109
"<b>When I talk about important topics, I try to make sure people know I?m not always right.",Highly disagree,111/150,Somewhat agree,3,1698242927825,1698242932480,\Somewhat agree\,\Somewhat agree\,\3\,1698242932074,1698242932074,4249,4249,4655,buq,qns-item-noham,111,518898,0.0-1.0-0.110
<b>I used to be more certain my beliefs were true.,Highly disagree,112/150,Somewhat disagree,2,1698242932481,1698242935290,\Somewhat disagree\,\Somewhat disagree\,\2\,1698242934904,1698242934904,2423,2423,2809,buq,qns-item-noham,112,521708,0.0-1.0-0.111
<b>It?s often pretty easy to figure out whether something is true based on who said it.,Highly disagree,113/150,Somewhat disagree,2,1698242935292,1698242939647,\Somewhat disagree\,\Somewhat disagree\,\2\,1698242939259,1698242939259,3967,3967,4355,buq,qns-item-noham,113,526066,0.0-1.0-0.112
<b>Having bad food in my favorite restaurant will make me think the restaurant is no longer good.,Highly disagree,114/150,Somewhat agree,3,1698242939649,1698242946075,\Somewhat agree\,\Somewhat agree\,\3\,1698242944844,1698242944844,5195,5195,6426,buq,qns-item-noham,114,532493,0.0-1.0-0.113
<b>I transform into a hummingbird every day.,Highly disagree,115/150,Highly disagree,1,1698242946077,1698242950663,\Highly disagree\,\Highly disagree\,\1\,1698242949917,1698242949917,3840,3840,4586,buq,qns-item-noham,115,537081,0.0-1.0-0.114
"<b>Unfortunately, when people are wrong, it?s usually because they?re bad.",Highly disagree,116/150,Somewhat disagree,2,1698242950665,1698242954460,\Somewhat disagree\,\Somewhat disagree\,\2\,1698242954019,1698242954019,3354,3354,3795,buq,qns-item-noham,116,540878,0.0-1.0-0.115
<b>I think a lot about arguments against my views.,Highly disagree,117/150,Somewhat disagree,2,1698242954462,1698242958407,\Somewhat disagree\,\Somewhat disagree\,\2\,1698242957911,1698242957911,3449,3449,3945,buq,qns-item-noham,117,544825,0.0-1.0-0.116
<b>Details tend to matter a lot for knowing whether a policy is good.,Highly disagree,118/150,Somewhat agree,3,1698242958409,1698242962471,\Somewhat agree\,\Somewhat agree\,\3\,1698242962023,1698242962023,3614,3614,4062,buq,qns-item-noham,118,548889,0.0-1.0-0.117
<b>Personal experience is usually more important than facts and figures.,Highly disagree,119/150,Somewhat disagree,2,1698242962473,1698242965853,\Somewhat disagree\,\Somewhat disagree\,\2\,1698242965403,1698242965403,2930,2930,3380,buq,qns-item-noham,119,552271,0.0-1.0-0.118
<b>I?ve been tricked before about important matters.,Highly disagree,120/150,Somewhat disagree,2,1698242965855,1698242971189,\Somewhat disagree\,\Somewhat disagree\,\2\,1698242970735,1698242970735,4880,4880,5334,buq,qns-item-noham,120,557607,0.0-1.0-0.119
<b>I would need to be totally wowed if I were to change my opinion of a restaurant I don?t like.,Highly disagree,121/150,Somewhat agree,3,1698242971191,1698242976655,\Somewhat agree\,\Somewhat agree\,\3\,1698242976176,1698242976176,4985,4985,5464,buq,qns-item-noham,121,563073,0.0-1.0-0.120
<b>I care a lot about politics.,Highly disagree,122/150,Highly disagree,1,1698242976656,1698242978795,\Highly disagree\,\Highly disagree\,\1\,1698242978205,1698242978205,1549,1549,2139,buq,qns-item-noham,122,565213,0.0-1.0-0.121
<b>People with conflicting beliefs usually have some facts they disagree on.,Highly disagree,123/150,Somewhat agree,3,1698242978796,1698242982441,\Somewhat agree\,\Somewhat agree\,\3\,1698242982047,1698242982047,3251,3251,3645,buq,qns-item-noham,123,568859,0.0-1.0-0.122
<b>There are some topics I?ve been really wrong about.,Highly disagree,124/150,Somewhat disagree,2,1698242982442,1698242986107,\Somewhat disagree\,\Somewhat disagree\,\2\,1698242985682,1698242985682,3240,3240,3665,buq,qns-item-noham,124,572525,0.0-1.0-0.123
<b>Most beliefs can be supported with at least some evidence.,Highly disagree,125/150,Somewhat agree,3,1698242986109,1698242990439,\Somewhat agree\,\Somewhat agree\,\3\,1698242990051,1698242990051,3942,3942,4330,buq,qns-item-noham,125,576857,0.0-1.0-0.124
<b>Other people make life out to be more complicated than it really is.,Highly disagree,126/150,Somewhat disagree,2,1698242990441,1698242993430,\Somewhat disagree\,\Somewhat disagree\,\2\,1698242992938,1698242992938,2497,2497,2989,buq,qns-item-noham,126,579848,0.0-1.0-0.125
"<b>My political views are being shaped continuously as I gather more information, rather than relying on what I?ve known to be true of my party in the past. ",Highly disagree,127/150,Somewhat agree,3,1698242993432,1698242998832,\Somewhat agree\,\Somewhat agree\,\3\,1698242998491,1698242998491,5059,5059,5400,buq,qns-item-noham,127,585250,0.0-1.0-0.126
<b>It?s pretty unusual for true things to seem false.,Highly disagree,128/150,Somewhat disagree,2,1698242998834,1698243003103,\Somewhat disagree\,\Somewhat disagree\,\2\,1698243002760,1698243002760,3926,3926,4269,buq,qns-item-noham,128,589521,0.0-1.0-0.127
"<b>Policy details don?t matter much, just the big picture.",Highly disagree,129/150,Somewhat disagree,2,1698243003104,1698243006993,\Somewhat disagree\,\Somewhat disagree\,\2\,1698243006251,1698243006251,3147,3147,3889,buq,qns-item-noham,129,593411,0.0-1.0-0.128
<b>I know my friends so well they can hardly ever surprise me.,Highly disagree,130/150,Somewhat agree,3,1698243006995,1698243011594,\Somewhat agree\,\Somewhat agree\,\3\,1698243011181,1698243011181,4186,4186,4599,buq,qns-item-noham,130,598013,0.0-1.0-0.129
"<b>When I talk to people, I often think about why they have the beliefs they do.",Highly disagree,131/150,Highly agree,4,1698243011596,1698243018610,\Highly agree\,\Highly agree\,\4\,1698243018108,1698243018108,6512,6512,7014,buq,qns-item-noham,131,605028,0.0-1.0-0.130
<b>I do not often change my views on people.,Highly disagree,132/150,Somewhat agree,3,1698243018612,1698243023536,\Somewhat agree\,\Somewhat agree\,\3\,1698243023203,1698243023203,4591,4591,4924,buq,qns-item-noham,132,609954,0.0-1.0-0.131
<b>I often wish I had more time to spend figuring out what?s true and what?s false in life.,Highly disagree,133/150,Somewhat disagree,2,1698243023538,1698243028252,\Somewhat disagree\,\Somewhat disagree\,\2\,1698243027912,1698243027912,4374,4374,4714,buq,qns-item-noham,133,614670,0.0-1.0-0.132
<b>I?m more certain about my beliefs than I used to be.,Highly disagree,134/150,Somewhat disagree,2,1698243028254,1698243031508,\Somewhat disagree\,\Somewhat disagree\,\2\,1698243031048,1698243031048,2794,2794,3254,buq,qns-item-noham,134,617926,0.0-1.0-0.133
"<b>Whenever I find out new information, I update my views on politics accordingly.",Highly disagree,135/150,Somewhat agree,3,1698243031510,1698243035892,\Somewhat agree\,\Somewhat agree\,\3\,1698243035460,1698243035460,3950,3950,4382,buq,qns-item-noham,135,622310,0.0-1.0-0.134
<b>People often tell falsehoods unintentionally.,Highly disagree,136/150,Highly agree,4,1698243035894,1698243039782,\Highly agree\,\Highly agree\,\4\,1698243039304,1698243039304,3410,3410,3888,buq,qns-item-noham,136,626200,0.0-1.0-0.135
<b>Most people don?t know much about most things.,Highly disagree,137/150,Somewhat agree,3,1698243039784,1698243043094,\Somewhat agree\,\Somewhat agree\,\3\,1698243042636,1698243042636,2852,2852,3310,buq,qns-item-noham,137,629512,0.0-1.0-0.136
"<b>If I find out something new about someone, I easily change my views about them.",Highly disagree,138/150,Somewhat agree,3,1698243043096,1698243048334,\Somewhat agree\,\Somewhat agree\,\3\,1698243047782,1698243047782,4686,4686,5238,buq,qns-item-noham,138,634752,0.0-1.0-0.137
<b>Having true beliefs is difficult.,Highly disagree,139/150,Somewhat agree,3,1698243048336,1698243050556,\Somewhat agree\,\Somewhat agree\,\3\,1698243050090,1698243050090,1754,1754,2220,buq,qns-item-noham,139,636974,0.0-1.0-0.138
<b>I don?t try new foods since I know I won?t like them.,Highly disagree,140/150,Somewhat disagree,2,1698243050558,1698243054570,\Somewhat disagree\,\Somewhat disagree\,\2\,1698243054131,1698243054131,3573,3573,4012,buq,qns-item-noham,140,640988,0.0-1.0-0.139
<b>It?s easy to figure out what?s true or false based on who?s saying it.,Highly disagree,141/150,Somewhat disagree,2,1698243054572,1698243058460,\Somewhat disagree\,\Somewhat disagree\,\2\,1698243057917,1698243057917,3345,3345,3888,buq,qns-item-noham,141,644878,0.0-1.0-0.140
<b>False things have seemed true to me many times.,Highly disagree,142/150,Somewhat disagree,2,1698243058461,1698243062241,\Somewhat disagree\,\Somewhat disagree\,\2\,1698243061904,1698243061904,3443,3443,3780,buq,qns-item-noham,142,648659,0.0-1.0-0.141
<b>It?s pretty easy to sort out what?s true and what?s false in life.,Highly disagree,143/150,Somewhat disagree,2,1698243062243,1698243066748,\Somewhat disagree\,\Somewhat disagree\,\2\,1698243066295,1698243066295,4052,4052,4505,buq,qns-item-noham,143,653166,0.0-1.0-0.142
<b>Knowing lots of statistics about something is usually important for understanding it.,Highly disagree,144/150,Somewhat agree,3,1698243066749,1698243070053,\Somewhat agree\,\Somewhat agree\,\3\,1698243069495,1698243069495,2746,2746,3304,buq,qns-item-noham,144,656471,0.0-1.0-0.143
<b>Other people trick each other a lot.,Highly disagree,145/150,Somewhat agree,3,1698243070055,1698243072729,\Somewhat agree\,\Somewhat agree\,\3\,1698243072259,1698243072259,2204,2204,2674,buq,qns-item-noham,145,659147,0.0-1.0-0.144
<b>I would need to learn a lot about a person for my opinion of them to be swayed.,Highly disagree,146/150,Somewhat agree,3,1698243072732,1698243077803,\Somewhat agree\,\Somewhat agree\,\3\,1698243077405,1698243077405,4673,4673,5071,buq,qns-item-noham,146,664221,0.0-1.0-0.145
<b>People can?t usually trick me when it comes to topics I care about.,Highly disagree,147/150,Highly agree,4,1698243077805,1698243083635,\Highly agree\,\Highly agree\,\4\,1698243082855,1698243082855,5050,5050,5830,buq,qns-item-noham,147,670053,0.0-1.0-0.146
<b>I do not often change my views on food.,Highly disagree,148/150,Highly agree,4,1698243083637,1698243089227,\Highly agree\,\Highly agree\,\4\,1698243088557,1698243088557,4920,4920,5590,buq,qns-item-noham,148,675645,0.0-1.0-0.147
<b>Specific policies are often very important to me.,Highly disagree,149/150,Somewhat agree,3,1698243089229,1698243092971,\Somewhat disagree\,\Somewhat agree\,\2\,1698243092008,1698243092605,2779,3376,3742,buq,qns-item-noham,149,679389,0.0-1.0-0.148
<b>Most people are woefully under-informed.,Highly disagree,150/150,Highly agree,4,1698243092973,1698243098447,\Highly agree\,\Highly agree\,\4\,1698243097961,1698243097961,4988,4988,5474,buq,qns-item-noham,150,684865,0.0-1.0-0.149
