Question,qns_options,quest_num,answer,answer_num,question_load_timestamp,next_btn_timestamp,text_selected,final_text_selected,option_num_selected,preview_timestamps,final_text_selected_time_stamp,rt_first_option_click,rt_final_option_click,rt_submit_click,questionnaire,trial_type,trial_index,time_elapsed,internal_node_id
<b>Considering other people?s perspectives can help us figure out what?s true or false.,Highly disagree,1/150,Highly agree,4,1698243273089,1698243279828,\Highly agree\,\Highly agree\,\4\,1698243278870,1698243278870,5781,5781,6739,buq,qns-item-noham,1,45463,0.0-1.0-0.0
<b>Knowing what?s true and knowing what to do about it are usually basically the same.,Highly disagree,2/150,Somewhat disagree,2,1698243279830,1698243283845,\Somewhat disagree\,\Somewhat disagree\,\2\,1698243283363,1698243283363,3533,3533,4015,buq,qns-item-noham,2,49480,0.0-1.0-0.1
<b>Most people just believe whatever is convenient for them.,Highly disagree,3/150,Highly agree,4,1698243283846,1698243286675,\Highly agree\,\Highly agree\,\4\,1698243286279,1698243286279,2433,2433,2829,buq,qns-item-noham,3,52310,0.0-1.0-0.2
<b>Even people who are wrong about most things can be right sometimes.,Highly disagree,4/150,Somewhat agree,3,1698243286676,1698243290073,\Somewhat agree\,\Somewhat agree\,\3\,1698243289581,1698243289581,2905,2905,3397,buq,qns-item-noham,4,55709,0.0-1.0-0.3
"<b>If the political party I support does something that upsets me, then the party may have changed, and I need to re-evaluate my support.",Highly disagree,5/150,Somewhat agree,3,1698243290076,1698243294540,\Somewhat agree\,\Somewhat agree\,\3\,1698243294080,1698243294080,4004,4004,4464,buq,qns-item-noham,5,60175,0.0-1.0-0.4
"<b>When people disagree, one side is usually completely right.",Highly disagree,6/150,Somewhat disagree,2,1698243294541,1698243298171,\Somewhat disagree\,\Somewhat disagree\,\2\,1698243297426,1698243297426,2885,2885,3630,buq,qns-item-noham,6,63806,0.0-1.0-0.5
<b>People have lots of false beliefs.,Highly disagree,7/150,Somewhat agree,3,1698243298172,1698243300229,\Somewhat agree\,\Somewhat agree\,\3\,1698243299821,1698243299821,1649,1649,2057,buq,qns-item-noham,7,65864,0.0-1.0-0.6
<b>Having some big beliefs helps me sort out minor ones.,Highly disagree,8/150,Somewhat agree,3,1698243300230,1698243305485,\Somewhat agree\,\Somewhat agree\,\3\,1698243303152,1698243303152,2922,2922,5255,buq,qns-item-noham,8,71120,0.0-1.0-0.7
<b>Political questions are usually pretty complicated.,Highly disagree,9/150,Somewhat disagree,2,1698243305487,1698243330375,\Somewhat disagree\,\Somewhat disagree\,\2\,1698243329909,1698243329909,24422,24422,24888,buq,qns-item-noham,9,96010,0.0-1.0-0.8
<b>Figuring out what?s important in life requires learning a lot of facts.,Highly disagree,10/150,Somewhat agree,3,1698243330376,1698243333019,\Somewhat agree\,\Somewhat agree\,\3\,1698243332305,1698243332305,1929,1929,2643,buq,qns-item-noham,10,98655,0.0-1.0-0.9
<b>It is difficult for me to remember the last time I was surprised by politics.,Highly disagree,11/150,Somewhat agree,3,1698243333021,1698243335673,\Somewhat agree\,\Somewhat agree\,\3\,1698243334785,1698243334785,1764,1764,2652,buq,qns-item-noham,11,101308,0.0-1.0-0.10
<b>People?s false beliefs are understandable.,Highly disagree,12/150,Somewhat disagree,2,1698243335674,1698243341750,\Somewhat disagree\,\Somewhat disagree\,\2\,1698243341197,1698243341197,5523,5523,6076,buq,qns-item-noham,12,107385,0.0-1.0-0.11
<b>I spend a lot of time trying to be informed about politics.,Highly disagree,13/150,Highly agree,4,1698243341751,1698243344258,\Highly agree\,\Highly agree\,\4\,1698243343690,1698243343690,1939,1939,2507,buq,qns-item-noham,13,109893,0.0-1.0-0.12
<b>I think a lot about whether my beliefs are right.,Highly disagree,14/150,Somewhat agree,3,1698243344259,1698243371390,\Somewhat agree\,\Somewhat agree\,\3\,1698243370885,1698243370885,26626,26626,27131,buq,qns-item-noham,14,137025,0.0-1.0-0.13
<b>Statistics can be pretty misleading sometimes.,Highly disagree,15/150,Somewhat agree,3,1698243371390,1698243373905,\Somewhat agree\,\Somewhat agree\,\3\,1698243373422,1698243373422,2032,2032,2515,buq,qns-item-noham,15,139540,0.0-1.0-0.14
<b>Figuring out what?s true and what?s false takes a lot of time and effort.,Highly disagree,16/150,Somewhat agree,3,1698243373906,1698243377064,\Somewhat agree\,\Somewhat agree\,\3\,1698243376573,1698243376573,2667,2667,3158,buq,qns-item-noham,16,142699,0.0-1.0-0.15
"<b>If a friend does something bad to me, it was likely an error on their part.",Highly disagree,17/150,Somewhat disagree,2,1698243377065,1698243380426,\Somewhat disagree\,\Somewhat disagree\,\2\,1698243380005,1698243380005,2940,2940,3361,buq,qns-item-noham,17,146061,0.0-1.0-0.16
<b>I have lots of beliefs that I?m only sort of sure about.,Highly disagree,18/150,Somewhat disagree,2,1698243380427,1698243382702,\Somewhat disagree\,\Somewhat disagree\,\2\,1698243382246,1698243382246,1819,1819,2275,buq,qns-item-noham,18,148337,0.0-1.0-0.17
"<b>If I go to my favorite restaurant and the food is surprisingly bad, it reminds me there are many disappointments in life.",Highly disagree,19/150,Somewhat agree,3,1698243382703,1698243385664,\Somewhat agree\,\Somewhat agree\,\3\,1698243385185,1698243385185,2482,2482,2961,buq,qns-item-noham,19,151299,0.0-1.0-0.18
<b>Sometimes my beliefs are inconvenient for me.,Highly disagree,20/150,Somewhat agree,3,1698243385666,1698243388011,\Somewhat agree\,\Somewhat agree\,\3\,1698243387531,1698243387531,1865,1865,2345,buq,qns-item-noham,20,153646,0.0-1.0-0.19
<b>Paying attention to multiple news sources is important.,Highly disagree,21/150,Highly agree,4,1698243388012,1698243514631,\Highly agree\,\Highly agree\,\4\,1698243513527,1698243513527,125515,125515,126619,buq,qns-item-noham,21,280266,0.0-1.0-0.20
"<b>If you are paying attention, please select ?Somewhat agree?",Highly disagree,22/150,Somewhat agree,3,1698243514632,1698243516496,\Somewhat agree\,\Somewhat agree\,\3\,1698243516100,1698243516100,1468,1468,1864,buq,qns-item-noham,22,282131,0.0-1.0-0.21
"<b>When I talk to others, I often worry I?ll convince them of something I didn?t mean to.",Highly disagree,23/150,Somewhat disagree,2,1698243516498,1698243518777,\Somewhat disagree\,\Somewhat disagree\,\2\,1698243518304,1698243518304,1806,1806,2279,buq,qns-item-noham,23,284412,0.0-1.0-0.22
<b>I would need to learn something utterly shocking about my party in order to change my political views.,Highly disagree,24/150,Somewhat disagree,2,1698243518778,1698243523501,\Somewhat disagree\,\Somewhat disagree\,\2\,1698243521814,1698243523034,3036,4256,4723,buq,qns-item-noham,24,289136,0.0-1.0-0.23
"<b>When I have new experiences, I tend to think of them as unique.",Highly disagree,25/150,Somewhat agree,3,1698243523502,1698243526211,\Somewhat agree\,\Somewhat agree\,\3\,1698243525763,1698243525763,2261,2261,2709,buq,qns-item-noham,25,291846,0.0-1.0-0.24
<b>Reading lots of things is important for understanding the world.,Highly disagree,26/150,Somewhat agree,3,1698243526211,1698243527819,\Somewhat agree\,\Somewhat agree\,\3\,1698243527430,1698243527430,1219,1219,1608,buq,qns-item-noham,26,293454,0.0-1.0-0.25
<b>The world is complicated.,Highly disagree,27/150,Somewhat agree,3,1698243527820,1698243529226,\Somewhat agree\,\Somewhat agree\,\3\,1698243528878,1698243528878,1058,1058,1406,buq,qns-item-noham,27,294861,0.0-1.0-0.26
<b>I change my mind about specific policies pretty frequently.,Highly disagree,28/150,Somewhat agree,3,1698243529227,1698243530736,\Somewhat agree\,\Somewhat agree\,\3\,1698243530334,1698243530334,1107,1107,1509,buq,qns-item-noham,28,296371,0.0-1.0-0.27
"<b>If a politician in my political party supports something I disagree with, I give them the benefit of the doubt, as such issues often involve hidden complexities that aren?t obvious.   ",Highly disagree,29/150,Somewhat agree,3,1698243530736,1698243536962,\Somewhat agree\,\Somewhat agree\,\3\,1698243536359,1698243536359,5623,5623,6226,buq,qns-item-noham,29,302597,0.0-1.0-0.28
<b>People?s bad politics are usually motivated by hatefulness.,Highly disagree,30/150,Somewhat disagree,2,1698243536963,1698243545981,\Somewhat agree\,\Somewhat disagree\,\3\,1698243543104,1698243545474,6141,8511,9018,buq,qns-item-noham,30,311616,0.0-1.0-0.29
"<b>Most new experiences are just like old ones, but a little bit different.",Highly disagree,31/150,Somewhat disagree,2,1698243545982,1698243577141,\Somewhat disagree\,\Somewhat disagree\,\2\,1698243576657,1698243576657,30675,30675,31159,buq,qns-item-noham,31,342776,0.0-1.0-0.30
<b>I think a lot about how to reconcile my beliefs with one another.,Highly disagree,32/150,Somewhat disagree,2,1698243577142,1698243578726,\Somewhat disagree\,\Somewhat disagree\,\2\,1698243578104,1698243578104,962,962,1584,buq,qns-item-noham,32,344361,0.0-1.0-0.31
<b>Personal experience rarely leads people astray.,Highly disagree,33/150,Somewhat disagree,2,1698243578727,1698243582796,\Somewhat disagree\,\Somewhat disagree\,\2\,1698243579512,1698243579512,785,785,4069,buq,qns-item-noham,33,348431,0.0-1.0-0.32
<b>I might have false beliefs about important topics.,Highly disagree,34/150,Somewhat disagree,2,1698243582797,1698243584933,\Somewhat disagree\,\Somewhat disagree\,\2\,1698243584154,1698243584154,1357,1357,2136,buq,qns-item-noham,34,350568,0.0-1.0-0.33
"<b>If a good friend of mine does something unexpected that upsets me, I feel like I don?t know them anymore.",Highly disagree,35/150,Somewhat disagree,2,1698243584933,1698243587598,\Somewhat disagree\,\Somewhat disagree\,\2\,1698243587004,1698243587004,2071,2071,2665,buq,qns-item-noham,35,353233,0.0-1.0-0.34
<b>Other people?s beliefs are often incoherent.,Highly disagree,36/150,Somewhat disagree,2,1698243587599,1698243589588,\Somewhat disagree\,\Somewhat disagree\,\2\,1698243589130,1698243589130,1531,1531,1989,buq,qns-item-noham,36,355223,0.0-1.0-0.35
<b>It?s important to have friends who think about things differently than I do.,Highly disagree,37/150,Somewhat agree,3,1698243589589,1698243591522,\Somewhat agree\,\Somewhat agree\,\3\,1698243591075,1698243591075,1486,1486,1933,buq,qns-item-noham,37,357157,0.0-1.0-0.36
"<b>Every now and then, a new experience will unsettle beliefs I?ve had for a while.",Highly disagree,38/150,Somewhat disagree,2,1698243591523,1698243593955,\Somewhat disagree\,\Somewhat disagree\,\2\,1698243593460,1698243593460,1937,1937,2432,buq,qns-item-noham,38,359590,0.0-1.0-0.37
<b>Some policies I agree with in principle are so bad I don?t support them. ,Highly disagree,39/150,Somewhat disagree,2,1698243593956,1698243595881,\Somewhat disagree\,\Somewhat disagree\,\2\,1698243595481,1698243595481,1525,1525,1925,buq,qns-item-noham,39,361516,0.0-1.0-0.38
<b>I?m pretty sure I?ve accidentally spread false information.,Highly disagree,40/150,Somewhat disagree,2,1698243595883,1698243598421,\Somewhat disagree\,\Somewhat disagree\,\2\,1698243596400,1698243596400,517,517,2538,buq,qns-item-noham,40,364056,0.0-1.0-0.39
"<b>If I go to my favorite restaurant and the food is unexpectedly bad, then they have changed owners.",Highly disagree,41/150,Highly disagree,1,1698243598422,1698243602780,\Highly disagree\,\Highly disagree\,\1\,1698243602021,1698243602272,3599,3850,4358,buq,qns-item-noham,41,368415,0.0-1.0-0.40
"<b>In politics, it?s important to trust your friends and family.",Highly disagree,42/150,Somewhat disagree,2,1698243602781,1698243628172,\Somewhat disagree\,\Somewhat disagree\,\2\,1698243627746,1698243627746,24965,24965,25391,buq,qns-item-noham,42,393807,0.0-1.0-0.41
<b>It?s OK to have some conflicting beliefs.,Highly disagree,43/150,Somewhat disagree,2,1698243628173,1698243630404,\Somewhat disagree\,\Somewhat disagree\,\2\,1698243629906,1698243629906,1733,1733,2231,buq,qns-item-noham,43,396039,0.0-1.0-0.42
<b>Sometimes the details of a matter seem to conflict with the big picture.,Highly disagree,44/150,Somewhat disagree,2,1698243630405,1698243632094,\Somewhat disagree\,\Somewhat disagree\,\2\,1698243631264,1698243631264,859,859,1689,buq,qns-item-noham,44,397729,0.0-1.0-0.43
<b>Listening to people I disagree with makes my opinions better.,Highly disagree,45/150,Somewhat disagree,2,1698243632095,1698243634311,\Somewhat disagree\,\Somewhat disagree\,\2\,1698243632752,1698243632752,657,657,2216,buq,qns-item-noham,45,399946,0.0-1.0-0.44
<b>Policies that sound bad are sometimes fine when you find out about their details.,Highly disagree,46/150,Somewhat disagree,2,1698243634312,1698243670593,\Somewhat disagree\,\Somewhat disagree\,\2\,1698243670197,1698243670197,35885,35885,36281,buq,qns-item-noham,46,436228,0.0-1.0-0.45
"<b>The world is always changing, so my beliefs are sometimes out-dated.",Highly disagree,47/150,Somewhat agree,3,1698243670595,1698243673623,\Somewhat disagree\,\Somewhat agree\,\2\,1698243671844,1698243673065,1249,2470,3028,buq,qns-item-noham,47,439258,0.0-1.0-0.46
"<b>If I receive a bad meal at my favorite restaurant and the food is surprisingly bad, I do not think much of it, and assume the chef is just having an ?off? day.",Highly disagree,48/150,Somewhat agree,3,1698243673624,1698243676957,\Somewhat agree\,\Somewhat agree\,\3\,1698243676391,1698243676391,2767,2767,3333,buq,qns-item-noham,48,442592,0.0-1.0-0.47
"<b>False information is unavoidable, to some extent.",Highly disagree,49/150,Somewhat agree,3,1698243676957,1698243678957,\Somewhat agree\,\Somewhat agree\,\3\,1698243678501,1698243678501,1544,1544,2000,buq,qns-item-noham,49,444592,0.0-1.0-0.48
<b>My moral compass sometimes makes it harder to determine what?s true.,Highly disagree,50/150,Somewhat disagree,2,1698243678958,1698243681046,\Somewhat disagree\,\Somewhat disagree\,\2\,1698243680624,1698243680624,1666,1666,2088,buq,qns-item-noham,50,446681,0.0-1.0-0.49
"<b>When you disagree with someone, it?s important to listen to them carefully.",Highly disagree,51/150,Somewhat agree,3,1698243681046,1698243683200,\Somewhat agree\,\Somewhat agree\,\3\,1698243682761,1698243682761,1715,1715,2154,buq,qns-item-noham,51,448835,0.0-1.0-0.50
<b>Evidence pointing in the wrong direction isn?t really evidence at all.,Highly disagree,52/150,Somewhat disagree,2,1698243683201,1698243686230,\Somewhat agree\,\Somewhat disagree\,\3\,1698243685508,1698243685773,2307,2572,3029,buq,qns-item-noham,52,451865,0.0-1.0-0.51
"<b>If the political party I support messes up, it makes me think politics is rotten.",Highly disagree,53/150,Somewhat disagree,2,1698243686231,1698243689523,\Somewhat disagree\,\Somewhat disagree\,\2\,1698243689036,1698243689036,2805,2805,3292,buq,qns-item-noham,53,455158,0.0-1.0-0.52
<b>Lots of important topics can only really be understood by some groups of people.,Highly disagree,54/150,Somewhat disagree,2,1698243689524,1698243691924,\Somewhat disagree\,\Somewhat disagree\,\2\,1698243691512,1698243691512,1988,1988,2400,buq,qns-item-noham,54,457559,0.0-1.0-0.53
<b>Details almost always matter for being right about something.,Highly disagree,55/150,Somewhat agree,3,1698243691925,1698243697475,\Somewhat disagree\,\Somewhat agree\,\2\,1698243693270,1698243697109,1345,5184,5550,buq,qns-item-noham,55,463110,0.0-1.0-0.54
"<b>The most important thing in politics is winning, not convincing people.",Highly disagree,56/150,Highly disagree,1,1698243697476,1698243700025,\Somewhat disagree\,\Highly disagree\,\2\,1698243699053,1698243699526,1577,2050,2549,buq,qns-item-noham,56,465660,0.0-1.0-0.55
<b>Having conflicting beliefs means you haven?t thought about them enough.,Highly disagree,57/150,Somewhat agree,3,1698243700026,1698243703433,\Somewhat agree\,\Somewhat agree\,\3\,1698243702447,1698243702447,2421,2421,3407,buq,qns-item-noham,57,469068,0.0-1.0-0.56
<b>Other people have sometimes convinced me to change my mind on important topics.,Highly disagree,58/150,Somewhat disagree,2,1698243703434,1698243706068,\Somewhat disagree\,\Somewhat disagree\,\2\,1698243705598,1698243705598,2164,2164,2634,buq,qns-item-noham,58,471703,0.0-1.0-0.57
<b>I do not often change my political opinions.,Highly disagree,59/150,Highly agree,4,1698243706070,1698243725199,\Somewhat agree\,\Highly agree\,\3\,1698243724189,1698243724534,18119,18464,19129,buq,qns-item-noham,59,490834,0.0-1.0-0.58
<b>Thinking about how different things relate to one another is critical in life.,Highly disagree,60/150,Somewhat disagree,2,1698243725200,1698243728310,\Somewhat disagree\,\Somewhat disagree\,\2\,1698243727923,1698243727923,2723,2723,3110,buq,qns-item-noham,60,493945,0.0-1.0-0.59
<b>True beliefs can have unfortunate implications.,Highly disagree,61/150,Somewhat disagree,2,1698243728311,1698243729900,\Somewhat disagree\,\Somewhat disagree\,\2\,1698243729465,1698243729465,1154,1154,1589,buq,qns-item-noham,61,495535,0.0-1.0-0.60
<b>It?s difficult to not have at least some conflicting beliefs.,Highly disagree,62/150,Somewhat disagree,2,1698243729901,1698243731419,\Somewhat disagree\,\Somewhat disagree\,\2\,1698243730638,1698243730638,737,737,1518,buq,qns-item-noham,62,497054,0.0-1.0-0.61
"<b>When I learn new things, I think deeply about how my opinions should change.",Highly disagree,63/150,Somewhat agree,3,1698243731420,1698243733532,\Somewhat disagree\,\Somewhat agree\,\2\,1698243731995,1698243733152,575,1732,2112,buq,qns-item-noham,63,499167,0.0-1.0-0.62
<b>I think a lot about how to interpret different sorts of evidence.,Highly disagree,64/150,Somewhat agree,3,1698243733533,1698243735442,\Somewhat agree\,\Somewhat agree\,\3\,1698243734948,1698243734948,1415,1415,1909,buq,qns-item-noham,64,501077,0.0-1.0-0.63
<b>Politics is about thinking together and finding compromises.,Highly disagree,65/150,Somewhat disagree,2,1698243735442,1698243737591,\Somewhat disagree\,\Somewhat disagree\,\2\,1698243736972,1698243736972,1530,1530,2149,buq,qns-item-noham,65,503226,0.0-1.0-0.64
<b>Wishful thinking causes a lot of problems.,Highly disagree,66/150,Somewhat disagree,2,1698243737592,1698243885943,\Somewhat disagree\,\Somewhat disagree\,\2\,1698243885495,1698243885495,147903,147903,148351,buq,qns-item-noham,66,651578,0.0-1.0-0.65
<b>I judge a food item only once I try it many times.,Highly disagree,67/150,Somewhat disagree,2,1698243885943,1698244005727,\Somewhat disagree\,\Somewhat disagree\,\2\,1698243928450,1698244004138,42507,118195,119784,buq,qns-item-noham,67,771362,0.0-1.0-0.66
"<b>When a person holds conflicting beliefs, they should really try to figure out what?s wrong.",Highly disagree,68/150,Somewhat disagree,2,1698244005727,1698244009552,\Somewhat disagree\,\Somewhat disagree\,\2\,1698244008789,1698244008789,3062,3062,3825,buq,qns-item-noham,68,775187,0.0-1.0-0.67
<b>Knowing what?s important in life is easy.,Highly disagree,69/150,Somewhat agree,3,1698244009553,1698244040202,\Somewhat agree\,\Somewhat agree\,\3\,1698244039671,1698244039671,30118,30118,30649,buq,qns-item-noham,69,805837,0.0-1.0-0.68
<b>Lots of smart people disagree about basic political questions.,Highly disagree,70/150,Somewhat disagree,2,1698244040203,1698244107972,\Somewhat disagree\,\Somewhat disagree\,\2\,1698244107546,1698244107546,67343,67343,67769,buq,qns-item-noham,70,873607,0.0-1.0-0.69
<b>I swim across the Atlantic Ocean to get to work every day.,Highly disagree,71/150,Highly disagree,1,1698244107972,1698244110187,\Highly disagree\,\Highly disagree\,\1\,1698244109411,1698244109411,1439,1439,2215,buq,qns-item-noham,71,875822,0.0-1.0-0.70
"<b>Sometimes, you just have to ignore evidence that you know is wrong.",Highly disagree,72/150,Somewhat disagree,2,1698244110189,1698244112951,\Somewhat disagree\,\Somewhat disagree\,\2\,1698244112295,1698244112295,2106,2106,2762,buq,qns-item-noham,72,878586,0.0-1.0-0.71
<b>I have had some false beliefs.,Highly disagree,73/150,Somewhat disagree,2,1698244112952,1698244114602,\Somewhat disagree\,\Somewhat disagree\,\2\,1698244114246,1698244114246,1294,1294,1650,buq,qns-item-noham,73,880237,0.0-1.0-0.72
"<b>If one friend does something that upsets me, I sometimes start to distrust people in general.",Highly disagree,74/150,Somewhat disagree,2,1698244114602,1698244116973,\Somewhat disagree\,\Somewhat disagree\,\2\,1698244116487,1698244116487,1885,1885,2371,buq,qns-item-noham,74,882608,0.0-1.0-0.73
<b>I easily apply what I learn in one situation to another.,Highly disagree,75/150,Somewhat agree,3,1698244116974,1698244123187,\Somewhat agree\,\Somewhat agree\,\3\,1698244122758,1698244122758,5784,5784,6213,buq,qns-item-noham,75,888822,0.0-1.0-0.74
<b>The facts about most important matters are easy to find.,Highly disagree,76/150,Somewhat disagree,2,1698244123188,1698244125513,\Somewhat disagree\,\Somewhat disagree\,\2\,1698244125062,1698244125062,1874,1874,2325,buq,qns-item-noham,76,891148,0.0-1.0-0.75
<b>It?s better to know what?s true than to know what?s moral.,Highly disagree,77/150,Somewhat disagree,2,1698244125514,1698244129097,\Somewhat disagree\,\Somewhat disagree\,\2\,1698244127101,1698244127101,1587,1587,3583,buq,qns-item-noham,77,894732,0.0-1.0-0.76
<b>It?s good to be skeptical of people you agree with.,Highly disagree,78/150,Somewhat disagree,2,1698244129098,1698244161335,\Somewhat disagree\,\Somewhat disagree\,\2\,1698244160811,1698244160811,31713,31713,32237,buq,qns-item-noham,78,926970,0.0-1.0-0.77
<b>Sometimes reasonable beliefs are wrong.,Highly disagree,79/150,Somewhat disagree,2,1698244161336,1698244163344,\Somewhat disagree\,\Somewhat disagree\,\2\,1698244161952,1698244161952,616,616,2008,buq,qns-item-noham,79,928979,0.0-1.0-0.78
<b>I used to think the world was less complicated than I do now.,Highly disagree,80/150,Somewhat disagree,2,1698244163345,1698244165536,\Somewhat disagree\,\Somewhat disagree\,\2\,1698244165013,1698244165013,1668,1668,2191,buq,qns-item-noham,80,931171,0.0-1.0-0.79
<b>People are usually completely right or completely wrong.,Highly disagree,81/150,Somewhat disagree,2,1698244165537,1698244168245,\Somewhat disagree\,\Somewhat disagree\,\2\,1698244166760,1698244166760,1223,1223,2708,buq,qns-item-noham,81,933880,0.0-1.0-0.80
<b>I spend a lot of time considering alternatives to my beliefs.,Highly disagree,82/150,Somewhat agree,3,1698244168246,1698244171630,\Somewhat disagree\,\Somewhat agree\,\2\,1698244169538,1698244170571,1292,2325,3384,buq,qns-item-noham,82,937265,0.0-1.0-0.81
"<b>Political enemies need to be defeated, not convinced.",Highly disagree,83/150,Somewhat disagree,2,1698244171631,1698244173934,\Somewhat disagree\,\Somewhat disagree\,\2\,1698244173198,1698244173198,1567,1567,2303,buq,qns-item-noham,83,939569,0.0-1.0-0.82
"<b>When forming an opinion about a restaurant, I am more swayed by my  latest meal there than  previous meals I?ve had there.",Highly disagree,84/150,Somewhat disagree,2,1698244173935,1698244176587,\Somewhat disagree\,\Somewhat disagree\,\2\,1698244176030,1698244176030,2095,2095,2652,buq,qns-item-noham,84,942222,0.0-1.0-0.83
<b>I try to remain skeptical about most topics.,Highly disagree,85/150,Somewhat agree,3,1698244176587,1698244178491,\Somewhat agree\,\Somewhat agree\,\3\,1698244177975,1698244177975,1388,1388,1904,buq,qns-item-noham,85,944126,0.0-1.0-0.84
<b>Being wrong is usually obvious in retrospect.,Highly disagree,86/150,Somewhat disagree,2,1698244178492,1698244180376,\Somewhat disagree\,\Somewhat disagree\,\2\,1698244179799,1698244179799,1307,1307,1884,buq,qns-item-noham,86,946011,0.0-1.0-0.85
<b>It can be hard to realize that my beliefs are in conflict.,Highly disagree,87/150,Somewhat disagree,2,1698244180377,1698244182294,\Somewhat disagree\,\Somewhat disagree\,\2\,1698244181703,1698244181703,1326,1326,1917,buq,qns-item-noham,87,947929,0.0-1.0-0.86
<b>I form my political views only after meticulously gathering historical and present information about their policies.,Highly disagree,88/150,Somewhat disagree,2,1698244182295,1698244184406,\Somewhat disagree\,\Somewhat disagree\,\2\,1698244183599,1698244183599,1304,1304,2111,buq,qns-item-noham,88,950041,0.0-1.0-0.87
<b>Skeptical people are usually just bad-tempered.,Highly disagree,89/150,Somewhat disagree,2,1698244184407,1698244211760,\Somewhat disagree\,\Somewhat disagree\,\2\,1698244207357,1698244207357,22950,22950,27353,buq,qns-item-noham,89,977395,0.0-1.0-0.88
<b>It is difficult for me to remember the last time I was surprised by politics.,Highly disagree,90/150,Somewhat disagree,2,1698244211761,1698244213658,\Somewhat disagree\,\Somewhat disagree\,\2\,1698244213031,1698244213031,1270,1270,1897,buq,qns-item-noham,90,979293,0.0-1.0-0.89
"<b>When I find out I?m wrong, I think a lot about my related beliefs.",Highly disagree,91/150,Somewhat agree,3,1698244213659,1698244216782,\Somewhat disagree\,\Somewhat agree\,\2\,1698244215551,1698244216192,1892,2533,3123,buq,qns-item-noham,91,982417,0.0-1.0-0.90
"<b>If the political party I support messes up, it makes me think you can?t trust anyone these days",Highly disagree,92/150,Somewhat disagree,2,1698244216783,1698244218744,\Somewhat disagree\,\Somewhat disagree\,\2\,1698244218199,1698244218199,1416,1416,1961,buq,qns-item-noham,92,984379,0.0-1.0-0.91
<b>People?s brains turn off when they talk about politics.,Highly disagree,93/150,Somewhat disagree,2,1698244218744,1698244220418,\Somewhat disagree\,\Somewhat disagree\,\2\,1698244219896,1698244219896,1152,1152,1674,buq,qns-item-noham,93,986053,0.0-1.0-0.92
<b>People who are wrong are usually just ignoring the obvious.,Highly disagree,94/150,Somewhat agree,3,1698244220419,1698244223720,\Somewhat disagree\,\Somewhat agree\,\2\,1698244221899,1698244222762,1480,2343,3301,buq,qns-item-noham,94,989355,0.0-1.0-0.93
"<b>The world isn?t that complicated, but it?s still hard to figure out how it works.",Highly disagree,95/150,Somewhat disagree,2,1698244223721,1698244225954,\Somewhat disagree\,\Somewhat disagree\,\2\,1698244225160,1698244225160,1439,1439,2233,buq,qns-item-noham,95,991589,0.0-1.0-0.94
"<b>When forming my views on people, I rely more on what they are like now rather than rely on my past experience with them.",Highly disagree,96/150,Somewhat disagree,2,1698244225955,1698244227302,\Somewhat disagree\,\Somewhat disagree\,\2\,1698244226622,1698244226622,667,667,1347,buq,qns-item-noham,96,992937,0.0-1.0-0.95
"<b>When people contradict my beliefs, I usually know about their evidence already.",Highly disagree,97/150,Somewhat disagree,2,1698244227302,1698244230073,\Somewhat agree\,\Somewhat disagree\,\3\,1698244228888,1698244229677,1586,2375,2771,buq,qns-item-noham,97,995709,0.0-1.0-0.96
<b>Being wrong is a matter of degree.,Highly disagree,98/150,Somewhat disagree,2,1698244230074,1698244234069,\Somewhat disagree\,\Somewhat disagree\,\2\,1698244232308,1698244232308,2234,2234,3995,buq,qns-item-noham,98,999704,0.0-1.0-0.97
<b>Figuring out what?s true and what?s false mainly requires a strong moral compass.,Highly disagree,99/150,Somewhat disagree,2,1698244234069,1698244236359,\Somewhat disagree\,\Somewhat disagree\,\2\,1698244235545,1698244235545,1476,1476,2290,buq,qns-item-noham,99,1001994,0.0-1.0-0.98
<b>Most of the beliefs people have are at least somewhat understandable.,Highly disagree,100/150,Somewhat disagree,2,1698244236360,1698244238815,\Somewhat disagree\,\Somewhat disagree\,\2\,1698244238062,1698244238062,1702,1702,2455,buq,qns-item-noham,100,1004451,0.0-1.0-0.99
"<b>Usually I?m wrong about simple things, not complicated ones.",Highly disagree,101/150,Somewhat disagree,2,1698244238816,1698244240575,\Somewhat disagree\,\Somewhat disagree\,\2\,1698244240043,1698244240043,1227,1227,1759,buq,qns-item-noham,101,1006210,0.0-1.0-0.100
<b>Getting all the information I want about important things is hard.,Highly disagree,102/150,Highly disagree,1,1698244240575,1698244243294,\Somewhat disagree\,\Highly disagree\,\2\,1698244241951,1698244242816,1376,2241,2719,buq,qns-item-noham,102,1008929,0.0-1.0-0.101
<b>Most false beliefs spread because people try to deceive one another.,Highly disagree,103/150,Somewhat agree,3,1698244243295,1698244245512,\Somewhat agree\,\Somewhat agree\,\3\,1698244245108,1698244245108,1813,1813,2217,buq,qns-item-noham,103,1011147,0.0-1.0-0.102
<b>I can usually find something to agree with in most people?s beliefs.,Highly disagree,104/150,Somewhat disagree,2,1698244245513,1698244247614,\Somewhat disagree\,\Somewhat disagree\,\2\,1698244246936,1698244246936,1423,1423,2101,buq,qns-item-noham,104,1013249,0.0-1.0-0.103
<b>I only form my views of people once I get to know them very well.,Highly disagree,105/150,Somewhat disagree,2,1698244247615,1698244249743,\Somewhat disagree\,\Somewhat disagree\,\2\,1698244248549,1698244248549,934,934,2128,buq,qns-item-noham,105,1015378,0.0-1.0-0.104
"<b>When people tell me important things about the world, I usually believe them.",Highly disagree,106/150,Somewhat disagree,2,1698244249744,1698244291346,\Somewhat disagree\,\Somewhat disagree\,\2\,1698244252180,1698244252180,2436,2436,41602,buq,qns-item-noham,106,1056981,0.0-1.0-0.105
"<b>If a friend does something that upsets me, it reminds me what an unpredictable place the world is.",Highly disagree,107/150,Somewhat disagree,2,1698244291347,1698244293530,\Somewhat disagree\,\Somewhat disagree\,\2\,1698244292830,1698244292830,1483,1483,2183,buq,qns-item-noham,107,1059165,0.0-1.0-0.106
<b>Having some conflicting beliefs is inevitable.,Highly disagree,108/150,Somewhat agree,3,1698244293532,1698244296804,\Highly disagree\,\Somewhat agree\,\1\,1698244295018,1698244296337,1486,2805,3272,buq,qns-item-noham,108,1062439,0.0-1.0-0.107
<b>People are wrong because they haven?t thought much about things.,Highly disagree,109/150,Somewhat disagree,2,1698244296805,1698244298437,\Somewhat disagree\,\Somewhat disagree\,\2\,1698244297776,1698244297776,971,971,1632,buq,qns-item-noham,109,1064072,0.0-1.0-0.108
<b>People tend to believe whatever is good for their friends.,Highly disagree,110/150,Somewhat disagree,2,1698244298439,1698244299968,\Somewhat disagree\,\Somewhat disagree\,\2\,1698244299338,1698244299338,899,899,1529,buq,qns-item-noham,110,1065603,0.0-1.0-0.109
"<b>When I talk about important topics, I try to make sure people know I?m not always right.",Highly disagree,111/150,Somewhat agree,3,1698244299969,1698244304693,\Somewhat agree\,\Somewhat agree\,\3\,1698244301886,1698244301886,1917,1917,4724,buq,qns-item-noham,111,1070328,0.0-1.0-0.110
<b>I used to be more certain my beliefs were true.,Highly disagree,112/150,Somewhat disagree,2,1698244304694,1698244306797,\Somewhat disagree\,\Somewhat disagree\,\2\,1698244306249,1698244306249,1555,1555,2103,buq,qns-item-noham,112,1072432,0.0-1.0-0.111
<b>It?s often pretty easy to figure out whether something is true based on who said it.,Highly disagree,113/150,Somewhat disagree,2,1698244306798,1698244308465,\Somewhat disagree\,\Somewhat disagree\,\2\,1698244307727,1698244307727,929,929,1667,buq,qns-item-noham,113,1074100,0.0-1.0-0.112
<b>Having bad food in my favorite restaurant will make me think the restaurant is no longer good.,Highly disagree,114/150,Somewhat disagree,2,1698244308466,1698244371094,\Somewhat disagree\,\Somewhat disagree\,\2\,1698244354027,1698244354027,45561,45561,62628,buq,qns-item-noham,114,1136729,0.0-1.0-0.113
<b>I transform into a hummingbird every day.,Highly disagree,115/150,Highly disagree,1,1698244371095,1698244373769,\Highly disagree\,\Highly disagree\,\1\,1698244373179,1698244373179,2084,2084,2674,buq,qns-item-noham,115,1139404,0.0-1.0-0.114
"<b>Unfortunately, when people are wrong, it?s usually because they?re bad.",Highly disagree,116/150,Somewhat disagree,2,1698244373770,1698244377193,\Somewhat disagree\,\Somewhat disagree\,\2\,1698244376344,1698244376344,2574,2574,3423,buq,qns-item-noham,116,1142828,0.0-1.0-0.115
<b>I think a lot about arguments against my views.,Highly disagree,117/150,Somewhat agree,3,1698244377194,1698244379817,\Somewhat agree\,\Somewhat agree\,\3\,1698244379413,1698244379413,2219,2219,2623,buq,qns-item-noham,117,1145452,0.0-1.0-0.116
<b>Details tend to matter a lot for knowing whether a policy is good.,Highly disagree,118/150,Somewhat disagree,2,1698244379818,1698244381620,\Somewhat disagree\,\Somewhat disagree\,\2\,1698244380829,1698244380829,1011,1011,1802,buq,qns-item-noham,118,1147255,0.0-1.0-0.117
<b>Personal experience is usually more important than facts and figures.,Highly disagree,119/150,Somewhat disagree,2,1698244381621,1698244384042,\Somewhat disagree\,\Somewhat disagree\,\2\,1698244383363,1698244383363,1742,1742,2421,buq,qns-item-noham,119,1149677,0.0-1.0-0.118
<b>I?ve been tricked before about important matters.,Highly disagree,120/150,Somewhat disagree,2,1698244384043,1698244385623,\Somewhat disagree\,\Somewhat disagree\,\2\,1698244384984,1698244384984,941,941,1580,buq,qns-item-noham,120,1151258,0.0-1.0-0.119
<b>I would need to be totally wowed if I were to change my opinion of a restaurant I don?t like.,Highly disagree,121/150,Somewhat disagree,2,1698244385624,1698244387184,\Somewhat disagree\,\Somewhat disagree\,\2\,1698244386616,1698244386616,992,992,1560,buq,qns-item-noham,121,1152819,0.0-1.0-0.120
<b>I care a lot about politics.,Highly disagree,122/150,Somewhat agree,3,1698244387185,1698244388626,\Somewhat agree\,\Somewhat agree\,\3\,1698244388206,1698244388206,1021,1021,1441,buq,qns-item-noham,122,1154261,0.0-1.0-0.121
<b>People with conflicting beliefs usually have some facts they disagree on.,Highly disagree,123/150,Somewhat agree,3,1698244388628,1698244390522,\Somewhat agree\,\Somewhat agree\,\3\,1698244389715,1698244389715,1087,1087,1894,buq,qns-item-noham,123,1156157,0.0-1.0-0.122
<b>There are some topics I?ve been really wrong about.,Highly disagree,124/150,Somewhat disagree,2,1698244390523,1698244393873,\Somewhat disagree\,\Somewhat disagree\,\2\,1698244393388,1698244393388,2865,2865,3350,buq,qns-item-noham,124,1159508,0.0-1.0-0.123
<b>Most beliefs can be supported with at least some evidence.,Highly disagree,125/150,Somewhat disagree,2,1698244393874,1698244395589,\Somewhat disagree\,\Somewhat disagree\,\2\,1698244394812,1698244394812,938,938,1715,buq,qns-item-noham,125,1161224,0.0-1.0-0.124
<b>Other people make life out to be more complicated than it really is.,Highly disagree,126/150,Somewhat disagree,2,1698244395590,1698244396798,\Somewhat disagree\,\Somewhat disagree\,\2\,1698244396270,1698244396270,680,680,1208,buq,qns-item-noham,126,1162433,0.0-1.0-0.125
"<b>My political views are being shaped continuously as I gather more information, rather than relying on what I?ve known to be true of my party in the past. ",Highly disagree,127/150,Somewhat disagree,2,1698244396798,1698244400819,\Somewhat disagree\,\Somewhat disagree\,\2\,1698244397393,1698244397393,595,595,4021,buq,qns-item-noham,127,1166454,0.0-1.0-0.126
<b>It?s pretty unusual for true things to seem false.,Highly disagree,128/150,Somewhat disagree,2,1698244400820,1698244402134,\Somewhat disagree\,\Somewhat disagree\,\2\,1698244401633,1698244401633,813,813,1314,buq,qns-item-noham,128,1167769,0.0-1.0-0.127
"<b>Policy details don?t matter much, just the big picture.",Highly disagree,129/150,Somewhat disagree,2,1698244402134,1698244404926,\Somewhat disagree\,\Somewhat disagree\,\2\,1698244403148,1698244403148,1014,1014,2792,buq,qns-item-noham,129,1170561,0.0-1.0-0.128
<b>I know my friends so well they can hardly ever surprise me.,Highly disagree,130/150,Somewhat disagree,2,1698244404927,1698244407087,\Somewhat disagree\,\Somewhat disagree\,\2\,1698244405737,1698244405737,810,810,2160,buq,qns-item-noham,130,1172722,0.0-1.0-0.129
"<b>When I talk to people, I often think about why they have the beliefs they do.",Highly disagree,131/150,Somewhat agree,3,1698244407087,1698244409034,\Somewhat agree\,\Somewhat agree\,\3\,1698244408666,1698244408666,1579,1579,1947,buq,qns-item-noham,131,1174669,0.0-1.0-0.130
<b>I do not often change my views on people.,Highly disagree,132/150,Somewhat disagree,2,1698244409035,1698244410707,\Somewhat disagree\,\Somewhat disagree\,\2\,1698244410178,1698244410178,1143,1143,1672,buq,qns-item-noham,132,1176343,0.0-1.0-0.131
<b>I often wish I had more time to spend figuring out what?s true and what?s false in life.,Highly disagree,133/150,Somewhat disagree,2,1698244410708,1698244412299,\Somewhat disagree\,\Somewhat disagree\,\2\,1698244411761,1698244411761,1053,1053,1591,buq,qns-item-noham,133,1177934,0.0-1.0-0.132
<b>I?m more certain about my beliefs than I used to be.,Highly disagree,134/150,Somewhat disagree,2,1698244412300,1698244415480,\Somewhat disagree\,\Somewhat disagree\,\2\,1698244412804,1698244412804,504,504,3180,buq,qns-item-noham,134,1181115,0.0-1.0-0.133
"<b>Whenever I find out new information, I update my views on politics accordingly.",Highly disagree,135/150,Somewhat disagree,2,1698244415481,1698244417456,\Somewhat disagree\,\Somewhat disagree\,\2\,1698244416223,1698244416223,742,742,1975,buq,qns-item-noham,135,1183091,0.0-1.0-0.134
<b>People often tell falsehoods unintentionally.,Highly disagree,136/150,Highly disagree,1,1698244417458,1698244419348,\Highly disagree\,\Highly disagree\,\1\,1698244418819,1698244418819,1361,1361,1890,buq,qns-item-noham,136,1184983,0.0-1.0-0.135
<b>Most people don?t know much about most things.,Highly disagree,137/150,Somewhat disagree,2,1698244419349,1698244421564,\Somewhat disagree\,\Somewhat disagree\,\2\,1698244420916,1698244420916,1567,1567,2215,buq,qns-item-noham,137,1187199,0.0-1.0-0.136
"<b>If I find out something new about someone, I easily change my views about them.",Highly disagree,138/150,Somewhat disagree,2,1698244421564,1698244425182,\Somewhat disagree\,\Somewhat disagree\,\2\,1698244423331,1698244423331,1767,1767,3618,buq,qns-item-noham,138,1190817,0.0-1.0-0.137
<b>Having true beliefs is difficult.,Highly disagree,139/150,Somewhat disagree,2,1698244425183,1698244444010,\Somewhat disagree\,\Somewhat disagree\,\2\,1698244442572,1698244442572,17389,17389,18827,buq,qns-item-noham,139,1209645,0.0-1.0-0.138
<b>I don?t try new foods since I know I won?t like them.,Highly disagree,140/150,Somewhat disagree,2,1698244444012,1698244446982,\Somewhat disagree\,\Somewhat disagree\,\2\,1698244446087,1698244446087,2075,2075,2970,buq,qns-item-noham,140,1212617,0.0-1.0-0.139
<b>It?s easy to figure out what?s true or false based on who?s saying it.,Highly disagree,141/150,Somewhat disagree,2,1698244446983,1698244448066,\Somewhat disagree\,\Somewhat disagree\,\2\,1698244447502,1698244447502,519,519,1083,buq,qns-item-noham,141,1213701,0.0-1.0-0.140
<b>False things have seemed true to me many times.,Highly disagree,142/150,Somewhat agree,3,1698244448069,1698244449994,\Somewhat disagree\,\Somewhat agree\,\2\,1698244449205,1698244449623,1136,1554,1925,buq,qns-item-noham,142,1215629,0.0-1.0-0.141
<b>It?s pretty easy to sort out what?s true and what?s false in life.,Highly disagree,143/150,Somewhat disagree,2,1698244449995,1698244451326,\Somewhat disagree\,\Somewhat disagree\,\2\,1698244450587,1698244450587,592,592,1331,buq,qns-item-noham,143,1216961,0.0-1.0-0.142
<b>Knowing lots of statistics about something is usually important for understanding it.,Highly disagree,144/150,Somewhat disagree,2,1698244451327,1698244452216,\Somewhat disagree\,\Somewhat disagree\,\2\,1698244451750,1698244451750,423,423,889,buq,qns-item-noham,144,1217851,0.0-1.0-0.143
<b>Other people trick each other a lot.,Highly disagree,145/150,Somewhat agree,3,1698244452217,1698244454124,\Somewhat disagree\,\Somewhat agree\,\2\,1698244453078,1698244453770,861,1553,1907,buq,qns-item-noham,145,1219759,0.0-1.0-0.144
<b>I would need to learn a lot about a person for my opinion of them to be swayed.,Highly disagree,146/150,Somewhat disagree,2,1698244454124,1698244459367,\Somewhat disagree\,\Somewhat disagree\,\2\,1698244458114,1698244458114,3990,3990,5243,buq,qns-item-noham,146,1225002,0.0-1.0-0.145
<b>People can?t usually trick me when it comes to topics I care about.,Highly disagree,147/150,Somewhat disagree,2,1698244459368,1698244460610,\Somewhat disagree\,\Somewhat disagree\,\2\,1698244460037,1698244460037,669,669,1242,buq,qns-item-noham,147,1226245,0.0-1.0-0.146
<b>I do not often change my views on food.,Highly disagree,148/150,Somewhat disagree,2,1698244460611,1698244462623,\Somewhat disagree\,\Somewhat disagree\,\2\,1698244462133,1698244462133,1522,1522,2012,buq,qns-item-noham,148,1228258,0.0-1.0-0.147
<b>Specific policies are often very important to me.,Highly disagree,149/150,Somewhat agree,3,1698244462624,1698244464497,\Somewhat agree\,\Somewhat agree\,\3\,1698244463739,1698244463739,1115,1115,1873,buq,qns-item-noham,149,1230132,0.0-1.0-0.148
<b>Most people are woefully under-informed.,Highly disagree,150/150,Somewhat disagree,2,1698244464497,1698244465914,\Somewhat disagree\,\Somewhat disagree\,\2\,1698244465179,1698244465179,682,682,1417,buq,qns-item-noham,150,1231549,0.0-1.0-0.149
