Question,qns_options,quest_num,answer,answer_num,question_load_timestamp,next_btn_timestamp,text_selected,final_text_selected,option_num_selected,preview_timestamps,final_text_selected_time_stamp,rt_first_option_click,rt_final_option_click,rt_submit_click,questionnaire,trial_type,trial_index,time_elapsed,internal_node_id
<b>Considering other people?s perspectives can help us figure out what?s true or false.,Highly disagree,1/150,Highly agree,4,1698248714453,1698248719542,\Highly agree\,\Highly agree\,\4\,1698248718180,1698248718180,3727,3727,5089,buq,qns-item-noham,1,56844,0.0-1.0-0.0
<b>Knowing what?s true and knowing what to do about it are usually basically the same.,Highly disagree,2/150,Somewhat agree,3,1698248719545,1698248725056,\Somewhat agree\,\Somewhat agree\,\3\,1698248724652,1698248724652,5107,5107,5511,buq,qns-item-noham,2,62358,0.0-1.0-0.1
<b>Most people just believe whatever is convenient for them.,Highly disagree,3/150,Somewhat disagree,2,1698248725057,1698248727386,\Somewhat disagree\,\Somewhat disagree\,\2\,1698248726880,1698248726880,1823,1823,2329,buq,qns-item-noham,3,64688,0.0-1.0-0.2
<b>Even people who are wrong about most things can be right sometimes.,Highly disagree,4/150,Somewhat agree,3,1698248727387,1698248729837,\Somewhat agree\,\Somewhat agree\,\3\,1698248729360,1698248729360,1973,1973,2450,buq,qns-item-noham,4,67139,0.0-1.0-0.3
"<b>If the political party I support does something that upsets me, then the party may have changed, and I need to re-evaluate my support.",Highly disagree,5/150,Somewhat disagree,2,1698248729839,1698248736926,\Somewhat disagree\,\Somewhat disagree\,\2\,1698248736420,1698248736420,6581,6581,7087,buq,qns-item-noham,5,74228,0.0-1.0-0.4
"<b>When people disagree, one side is usually completely right.",Highly disagree,6/150,Somewhat disagree,2,1698248736927,1698248739522,\Somewhat disagree\,\Somewhat disagree\,\2\,1698248739096,1698248739096,2169,2169,2595,buq,qns-item-noham,6,76825,0.0-1.0-0.5
<b>People have lots of false beliefs.,Highly disagree,7/150,Somewhat disagree,2,1698248739524,1698248742164,\Somewhat disagree\,\Somewhat disagree\,\2\,1698248741505,1698248741505,1981,1981,2640,buq,qns-item-noham,7,79466,0.0-1.0-0.6
<b>Having some big beliefs helps me sort out minor ones.,Highly disagree,8/150,Somewhat agree,3,1698248742166,1698248745150,\Somewhat agree\,\Somewhat agree\,\3\,1698248744661,1698248744661,2495,2495,2984,buq,qns-item-noham,8,82452,0.0-1.0-0.7
<b>Political questions are usually pretty complicated.,Highly disagree,9/150,Highly agree,4,1698248745151,1698248747862,\Highly agree\,\Highly agree\,\4\,1698248747419,1698248747419,2268,2268,2711,buq,qns-item-noham,9,85164,0.0-1.0-0.8
<b>Figuring out what?s important in life requires learning a lot of facts.,Highly disagree,10/150,Highly agree,4,1698248747864,1698248750559,\Highly agree\,\Highly agree\,\4\,1698248749965,1698248749965,2101,2101,2695,buq,qns-item-noham,10,87861,0.0-1.0-0.9
<b>It is difficult for me to remember the last time I was surprised by politics.,Highly disagree,11/150,Somewhat disagree,2,1698248750560,1698248756947,\Somewhat disagree\,\Somewhat disagree\,\2\,1698248756429,1698248756429,5869,5869,6387,buq,qns-item-noham,11,94249,0.0-1.0-0.10
<b>People?s false beliefs are understandable.,Highly disagree,12/150,Somewhat disagree,2,1698248756948,1698248759295,\Somewhat disagree\,\Somewhat disagree\,\2\,1698248758793,1698248758793,1845,1845,2347,buq,qns-item-noham,12,96597,0.0-1.0-0.11
<b>I spend a lot of time trying to be informed about politics.,Highly disagree,13/150,Highly disagree,1,1698248759296,1698248761475,\Highly disagree\,\Highly disagree\,\1\,1698248761066,1698248761066,1770,1770,2179,buq,qns-item-noham,13,98777,0.0-1.0-0.12
<b>I think a lot about whether my beliefs are right.,Highly disagree,14/150,Somewhat disagree,2,1698248761476,1698248764437,\Somewhat disagree\,\Somewhat disagree\,\2\,1698248763901,1698248763901,2425,2425,2961,buq,qns-item-noham,14,101739,0.0-1.0-0.13
<b>Statistics can be pretty misleading sometimes.,Highly disagree,15/150,Somewhat agree,3,1698248764438,1698248777541,\Somewhat agree\,\Somewhat agree\,\3\,1698248766699,1698248766699,2261,2261,13103,buq,qns-item-noham,15,114843,0.0-1.0-0.14
<b>Figuring out what?s true and what?s false takes a lot of time and effort.,Highly disagree,16/150,Somewhat agree,3,1698248777543,1698248785398,\Somewhat agree\,\Somewhat agree\,\3\,1698248784722,1698248784722,7179,7179,7855,buq,qns-item-noham,16,122700,0.0-1.0-0.15
"<b>If a friend does something bad to me, it was likely an error on their part.",Highly disagree,17/150,Somewhat agree,3,1698248785399,1698248791000,\Somewhat agree\,\Somewhat agree\,\3\,1698248790454,1698248790454,5055,5055,5601,buq,qns-item-noham,17,128302,0.0-1.0-0.16
<b>I have lots of beliefs that I?m only sort of sure about.,Highly disagree,18/150,Somewhat disagree,2,1698248791001,1698248794832,\Somewhat disagree\,\Somewhat disagree\,\2\,1698248794244,1698248794244,3243,3243,3831,buq,qns-item-noham,18,132134,0.0-1.0-0.17
"<b>If I go to my favorite restaurant and the food is surprisingly bad, it reminds me there are many disappointments in life.",Highly disagree,19/150,Somewhat agree,3,1698248794833,1698248798082,\Somewhat agree\,\Somewhat agree\,\3\,1698248797576,1698248797576,2743,2743,3249,buq,qns-item-noham,19,135384,0.0-1.0-0.18
<b>Sometimes my beliefs are inconvenient for me.,Highly disagree,20/150,Somewhat disagree,2,1698248798083,1698248800872,\Somewhat disagree\,\Somewhat disagree\,\2\,1698248800334,1698248800334,2251,2251,2789,buq,qns-item-noham,20,138174,0.0-1.0-0.19
<b>Paying attention to multiple news sources is important.,Highly disagree,21/150,Somewhat disagree,2,1698248800873,1698248822771,\Somewhat disagree\,\Somewhat disagree\,\2\,1698248822195,1698248822195,21322,21322,21898,buq,qns-item-noham,21,160073,0.0-1.0-0.20
"<b>If you are paying attention, please select ?Somewhat agree?",Highly disagree,22/150,Somewhat agree,3,1698248822772,1698248847035,\Somewhat agree\,\Somewhat agree\,\3\,1698248846463,1698248846463,23691,23691,24263,buq,qns-item-noham,22,184337,0.0-1.0-0.21
"<b>When I talk to others, I often worry I?ll convince them of something I didn?t mean to.",Highly disagree,23/150,Somewhat disagree,2,1698248847036,1698248849955,\Somewhat disagree\,\Somewhat disagree\,\2\,1698248849216,1698248849216,2180,2180,2919,buq,qns-item-noham,23,187257,0.0-1.0-0.22
<b>I would need to learn something utterly shocking about my party in order to change my political views.,Highly disagree,24/150,Somewhat agree,3,1698248849956,1698248856986,\Somewhat agree\,\Somewhat agree\,\3\,1698248856442,1698248856442,6486,6486,7030,buq,qns-item-noham,24,194288,0.0-1.0-0.23
"<b>When I have new experiences, I tend to think of them as unique.",Highly disagree,25/150,Somewhat disagree,2,1698248856987,1698248860738,\Somewhat disagree\,\Somewhat disagree\,\2\,1698248859466,1698248859466,2479,2479,3751,buq,qns-item-noham,25,198040,0.0-1.0-0.24
<b>Reading lots of things is important for understanding the world.,Highly disagree,26/150,Somewhat agree,3,1698248860739,1698248863553,\Somewhat agree\,\Somewhat agree\,\3\,1698248863082,1698248863082,2343,2343,2814,buq,qns-item-noham,26,200855,0.0-1.0-0.25
<b>The world is complicated.,Highly disagree,27/150,Highly agree,4,1698248863554,1698248865238,\Highly agree\,\Highly agree\,\4\,1698248864716,1698248864716,1162,1162,1684,buq,qns-item-noham,27,202540,0.0-1.0-0.26
<b>I change my mind about specific policies pretty frequently.,Highly disagree,28/150,Highly disagree,1,1698248865239,1698248867528,\Highly disagree\,\Highly disagree\,\1\,1698248866872,1698248866872,1633,1633,2289,buq,qns-item-noham,28,204830,0.0-1.0-0.27
"<b>If a politician in my political party supports something I disagree with, I give them the benefit of the doubt, as such issues often involve hidden complexities that aren?t obvious.   ",Highly disagree,29/150,Somewhat agree,3,1698248867529,1698248913879,\Somewhat agree\,\Somewhat agree\,\3\,1698248913311,1698248913311,45782,45782,46350,buq,qns-item-noham,29,251181,0.0-1.0-0.28
<b>People?s bad politics are usually motivated by hatefulness.,Highly disagree,30/150,Somewhat agree,3,1698248913880,1698248919882,\Somewhat agree\,\Somewhat agree\,\3\,1698248919345,1698248919345,5465,5465,6002,buq,qns-item-noham,30,257184,0.0-1.0-0.29
"<b>Most new experiences are just like old ones, but a little bit different.",Highly disagree,31/150,Somewhat disagree,2,1698248919884,1698248961338,\Somewhat agree\,\Somewhat disagree\,\3\,1698248958322,1698248960852,38438,40968,41454,buq,qns-item-noham,31,298640,0.0-1.0-0.30
<b>I think a lot about how to reconcile my beliefs with one another.,Highly disagree,32/150,Somewhat agree,3,1698248961339,1698248963822,\Somewhat agree\,\Somewhat agree\,\3\,1698248963060,1698248963060,1721,1721,2483,buq,qns-item-noham,32,301124,0.0-1.0-0.31
<b>Personal experience rarely leads people astray.,Highly disagree,33/150,Somewhat disagree,2,1698248963823,1698248967916,\Somewhat disagree\,\Somewhat disagree\,\2\,1698248966502,1698248966502,2679,2679,4093,buq,qns-item-noham,33,305218,0.0-1.0-0.32
<b>I might have false beliefs about important topics.,Highly disagree,34/150,Somewhat disagree,2,1698248967917,1698248970158,\Somewhat disagree\,\Somewhat disagree\,\2\,1698248969700,1698248969700,1783,1783,2241,buq,qns-item-noham,34,307460,0.0-1.0-0.33
"<b>If a good friend of mine does something unexpected that upsets me, I feel like I don?t know them anymore.",Highly disagree,35/150,Somewhat disagree,2,1698248970159,1698248974252,\Somewhat disagree\,\Somewhat disagree\,\2\,1698248973766,1698248973766,3607,3607,4093,buq,qns-item-noham,35,311554,0.0-1.0-0.34
<b>Other people?s beliefs are often incoherent.,Highly disagree,36/150,Somewhat disagree,2,1698248974254,1698248977254,\Somewhat disagree\,\Somewhat disagree\,\2\,1698248976646,1698248976646,2392,2392,3000,buq,qns-item-noham,36,314556,0.0-1.0-0.35
<b>It?s important to have friends who think about things differently than I do.,Highly disagree,37/150,Highly agree,4,1698248977255,1698248979316,\Highly agree\,\Highly agree\,\4\,1698248978868,1698248978868,1613,1613,2061,buq,qns-item-noham,37,316618,0.0-1.0-0.36
"<b>Every now and then, a new experience will unsettle beliefs I?ve had for a while.",Highly disagree,38/150,Somewhat agree,3,1698248979317,1698248982283,\Somewhat agree\,\Somewhat agree\,\3\,1698248981429,1698248981429,2112,2112,2966,buq,qns-item-noham,38,319585,0.0-1.0-0.37
<b>Some policies I agree with in principle are so bad I don?t support them. ,Highly disagree,39/150,Somewhat agree,3,1698248982284,1698249000429,\Somewhat agree\,\Somewhat agree\,\3\,1698248999223,1698248999223,16939,16939,18145,buq,qns-item-noham,39,337731,0.0-1.0-0.38
<b>I?m pretty sure I?ve accidentally spread false information.,Highly disagree,40/150,Somewhat disagree,2,1698249000430,1698249049727,\Somewhat disagree\,\Somewhat disagree\,\2\,1698249048875,1698249048947,48445,48517,49297,buq,qns-item-noham,40,387029,0.0-1.0-0.39
"<b>If I go to my favorite restaurant and the food is unexpectedly bad, then they have changed owners.",Highly disagree,41/150,Somewhat disagree,2,1698249049728,1698249054559,\Somewhat disagree\,\Somewhat disagree\,\2\,1698249053739,1698249053739,4011,4011,4831,buq,qns-item-noham,41,391861,0.0-1.0-0.40
"<b>In politics, it?s important to trust your friends and family.",Highly disagree,42/150,Somewhat agree,3,1698249054560,1698249068091,\Somewhat disagree\,\Somewhat agree\,\2\,1698249066298,1698249066783,11738,12223,13531,buq,qns-item-noham,42,405393,0.0-1.0-0.41
<b>It?s OK to have some conflicting beliefs.,Highly disagree,43/150,Somewhat agree,3,1698249068092,1698249071243,\Somewhat agree\,\Somewhat agree\,\3\,1698249070379,1698249070379,2287,2287,3151,buq,qns-item-noham,43,408545,0.0-1.0-0.42
<b>Sometimes the details of a matter seem to conflict with the big picture.,Highly disagree,44/150,Somewhat agree,3,1698249071244,1698249107774,\Somewhat agree\,\Somewhat agree\,\3\,1698249107199,1698249107199,35955,35955,36530,buq,qns-item-noham,44,445076,0.0-1.0-0.43
<b>Listening to people I disagree with makes my opinions better.,Highly disagree,45/150,Somewhat agree,3,1698249107775,1698249109960,\Somewhat agree\,\Somewhat agree\,\3\,1698249109470,1698249109470,1695,1695,2185,buq,qns-item-noham,45,447262,0.0-1.0-0.44
<b>Policies that sound bad are sometimes fine when you find out about their details.,Highly disagree,46/150,Somewhat disagree,2,1698249109961,1698249114896,\Somewhat disagree\,\Somewhat disagree\,\2\,1698249114498,1698249114498,4537,4537,4935,buq,qns-item-noham,46,452198,0.0-1.0-0.45
"<b>The world is always changing, so my beliefs are sometimes out-dated.",Highly disagree,47/150,Highly disagree,1,1698249114897,1698249118004,\Highly disagree\,\Highly disagree\,\1\,1698249117502,1698249117502,2605,2605,3107,buq,qns-item-noham,47,455306,0.0-1.0-0.46
"<b>If I receive a bad meal at my favorite restaurant and the food is surprisingly bad, I do not think much of it, and assume the chef is just having an ?off? day.",Highly disagree,48/150,Somewhat agree,3,1698249118005,1698249121766,\Somewhat agree\,\Somewhat agree\,\3\,1698249121094,1698249121094,3089,3089,3761,buq,qns-item-noham,48,459068,0.0-1.0-0.47
"<b>False information is unavoidable, to some extent.",Highly disagree,49/150,Somewhat agree,3,1698249121767,1698249124334,\Somewhat agree\,\Somewhat agree\,\3\,1698249123642,1698249123642,1875,1875,2567,buq,qns-item-noham,49,461636,0.0-1.0-0.48
<b>My moral compass sometimes makes it harder to determine what?s true.,Highly disagree,50/150,Somewhat disagree,2,1698249124335,1698249190313,\Somewhat disagree\,\Somewhat disagree\,\2\,1698249189672,1698249189672,65337,65337,65978,buq,qns-item-noham,50,527615,0.0-1.0-0.49
"<b>When you disagree with someone, it?s important to listen to them carefully.",Highly disagree,51/150,Somewhat agree,3,1698249190314,1698249201148,\Somewhat agree\,\Somewhat agree\,\3\,1698249200590,1698249200590,10276,10276,10834,buq,qns-item-noham,51,538450,0.0-1.0-0.50
<b>Evidence pointing in the wrong direction isn?t really evidence at all.,Highly disagree,52/150,Highly agree,4,1698249201149,1698249205078,\Highly agree\,\Highly agree\,\4\,1698249204644,1698249204644,3495,3495,3929,buq,qns-item-noham,52,542380,0.0-1.0-0.51
"<b>If the political party I support messes up, it makes me think politics is rotten.",Highly disagree,53/150,Somewhat agree,3,1698249205079,1698249276338,\Somewhat agree\,\Somewhat agree\,\3\,1698249275754,1698249275754,70675,70675,71259,buq,qns-item-noham,53,613640,0.0-1.0-0.52
<b>Lots of important topics can only really be understood by some groups of people.,Highly disagree,54/150,Somewhat disagree,2,1698249276339,1698249282868,\Somewhat disagree\,\Somewhat disagree\,\2\,1698249281816,1698249281816,5477,5477,6529,buq,qns-item-noham,54,620170,0.0-1.0-0.53
<b>Details almost always matter for being right about something.,Highly disagree,55/150,Somewhat agree,3,1698249282869,1698249285628,\Somewhat agree\,\Somewhat agree\,\3\,1698249284976,1698249284976,2107,2107,2759,buq,qns-item-noham,55,622930,0.0-1.0-0.54
"<b>The most important thing in politics is winning, not convincing people.",Highly disagree,56/150,Somewhat disagree,2,1698249285629,1698249289610,\Somewhat disagree\,\Somewhat disagree\,\2\,1698249288026,1698249288026,2397,2397,3981,buq,qns-item-noham,56,626912,0.0-1.0-0.55
<b>Having conflicting beliefs means you haven?t thought about them enough.,Highly disagree,57/150,Somewhat disagree,2,1698249289611,1698249375744,\Somewhat disagree\,\Somewhat disagree\,\2\,1698249375260,1698249375260,85649,85649,86133,buq,qns-item-noham,57,713046,0.0-1.0-0.56
<b>Other people have sometimes convinced me to change my mind on important topics.,Highly disagree,58/150,Somewhat agree,3,1698249375745,1698249400759,\Somewhat agree\,\Somewhat agree\,\3\,1698249398265,1698249398265,22520,22520,25014,buq,qns-item-noham,58,738061,0.0-1.0-0.57
<b>I do not often change my political opinions.,Highly disagree,59/150,Somewhat agree,3,1698249400760,1698249402617,\Somewhat agree\,\Somewhat agree\,\3\,1698249401949,1698249401949,1189,1189,1857,buq,qns-item-noham,59,739919,0.0-1.0-0.58
<b>Thinking about how different things relate to one another is critical in life.,Highly disagree,60/150,Somewhat agree,3,1698249402618,1698249406563,\Somewhat agree\,\Somewhat agree\,\3\,1698249405583,1698249405583,2965,2965,3945,buq,qns-item-noham,60,743865,0.0-1.0-0.59
<b>True beliefs can have unfortunate implications.,Highly disagree,61/150,Somewhat disagree,2,1698249406564,1698249408989,\Somewhat disagree\,\Somewhat disagree\,\2\,1698249408397,1698249408397,1833,1833,2425,buq,qns-item-noham,61,746291,0.0-1.0-0.60
<b>It?s difficult to not have at least some conflicting beliefs.,Highly disagree,62/150,Somewhat disagree,2,1698249408990,1698249487403,\Somewhat disagree\,\Somewhat disagree\,\2\,1698249486749,1698249486749,77759,77759,78413,buq,qns-item-noham,62,824705,0.0-1.0-0.61
"<b>When I learn new things, I think deeply about how my opinions should change.",Highly disagree,63/150,Somewhat agree,3,1698249487404,1698249503963,\Somewhat disagree\,\Somewhat agree\,\2\,1698249502283,1698249502801,14879,15397,16559,buq,qns-item-noham,63,841265,0.0-1.0-0.62
<b>I think a lot about how to interpret different sorts of evidence.,Highly disagree,64/150,Somewhat agree,3,1698249503964,1698249518087,\Somewhat agree\,\Somewhat agree\,\3\,1698249517612,1698249517612,13648,13648,14123,buq,qns-item-noham,64,855389,0.0-1.0-0.63
<b>Politics is about thinking together and finding compromises.,Highly disagree,65/150,Somewhat disagree,2,1698249518088,1698249521276,\Somewhat disagree\,\Somewhat disagree\,\2\,1698249520574,1698249520574,2486,2486,3188,buq,qns-item-noham,65,858578,0.0-1.0-0.64
<b>Wishful thinking causes a lot of problems.,Highly disagree,66/150,Somewhat disagree,2,1698249521277,1698249557602,\Somewhat disagree\,\Somewhat disagree\,\2\,1698249556357,1698249556357,35080,35080,36325,buq,qns-item-noham,66,894905,0.0-1.0-0.65
<b>I judge a food item only once I try it many times.,Highly disagree,67/150,Somewhat disagree,2,1698249557604,1698249564809,\Somewhat agree\,\Somewhat disagree\,\3\,1698249563044,1698249563971,5440,6367,7205,buq,qns-item-noham,67,902111,0.0-1.0-0.66
"<b>When a person holds conflicting beliefs, they should really try to figure out what?s wrong.",Highly disagree,68/150,Somewhat disagree,2,1698249564810,1698249568125,\Somewhat disagree\,\Somewhat disagree\,\2\,1698249567465,1698249567465,2655,2655,3315,buq,qns-item-noham,68,905427,0.0-1.0-0.67
<b>Knowing what?s important in life is easy.,Highly disagree,69/150,Somewhat disagree,2,1698249568126,1698249570551,\Somewhat disagree\,\Somewhat disagree\,\2\,1698249570063,1698249570063,1937,1937,2425,buq,qns-item-noham,69,907853,0.0-1.0-0.68
<b>Lots of smart people disagree about basic political questions.,Highly disagree,70/150,Somewhat agree,3,1698249570552,1698249572887,\Somewhat agree\,\Somewhat agree\,\3\,1698249572389,1698249572389,1837,1837,2335,buq,qns-item-noham,70,910189,0.0-1.0-0.69
<b>I swim across the Atlantic Ocean to get to work every day.,Highly disagree,71/150,Highly disagree,1,1698249572888,1698249576653,\Highly disagree\,\Highly disagree\,\1\,1698249575215,1698249575215,2327,2327,3765,buq,qns-item-noham,71,913955,0.0-1.0-0.70
"<b>Sometimes, you just have to ignore evidence that you know is wrong.",Highly disagree,72/150,Highly agree,4,1698249576654,1698249580291,\Highly agree\,\Highly agree\,\4\,1698249579785,1698249579785,3131,3131,3637,buq,qns-item-noham,72,917593,0.0-1.0-0.71
<b>I have had some false beliefs.,Highly disagree,73/150,Somewhat agree,3,1698249580292,1698249582067,\Somewhat agree\,\Somewhat agree\,\3\,1698249581619,1698249581619,1327,1327,1775,buq,qns-item-noham,73,919369,0.0-1.0-0.72
"<b>If one friend does something that upsets me, I sometimes start to distrust people in general.",Highly disagree,74/150,Somewhat disagree,2,1698249582068,1698249584585,\Somewhat disagree\,\Somewhat disagree\,\2\,1698249584145,1698249584145,2077,2077,2517,buq,qns-item-noham,74,921887,0.0-1.0-0.73
<b>I easily apply what I learn in one situation to another.,Highly disagree,75/150,Somewhat agree,3,1698249584586,1698249586631,\Somewhat agree\,\Somewhat agree\,\3\,1698249586285,1698249586285,1699,1699,2045,buq,qns-item-noham,75,923933,0.0-1.0-0.74
<b>The facts about most important matters are easy to find.,Highly disagree,76/150,Somewhat disagree,2,1698249586632,1698249589817,\Somewhat disagree\,\Somewhat disagree\,\2\,1698249589435,1698249589435,2803,2803,3185,buq,qns-item-noham,76,927119,0.0-1.0-0.75
<b>It?s better to know what?s true than to know what?s moral.,Highly disagree,77/150,Somewhat agree,3,1698249589818,1698249592597,\Somewhat agree\,\Somewhat agree\,\3\,1698249591898,1698249591898,2080,2080,2779,buq,qns-item-noham,77,929899,0.0-1.0-0.76
<b>It?s good to be skeptical of people you agree with.,Highly disagree,78/150,Somewhat disagree,2,1698249592598,1698249595955,\Somewhat disagree\,\Somewhat disagree\,\2\,1698249595339,1698249595339,2741,2741,3357,buq,qns-item-noham,78,933257,0.0-1.0-0.77
<b>Sometimes reasonable beliefs are wrong.,Highly disagree,79/150,Somewhat disagree,2,1698249595957,1698249599172,\Highly disagree\,\Somewhat disagree\,\1\,1698249597745,1698249598765,1788,2808,3215,buq,qns-item-noham,79,936474,0.0-1.0-0.78
<b>I used to think the world was less complicated than I do now.,Highly disagree,80/150,Highly agree,4,1698249599173,1698249602420,\Highly agree\,\Highly agree\,\4\,1698249601918,1698249601918,2745,2745,3247,buq,qns-item-noham,80,939722,0.0-1.0-0.79
<b>People are usually completely right or completely wrong.,Highly disagree,81/150,Highly disagree,1,1698249602421,1698249605216,\Highly disagree\,\Highly disagree\,\1\,1698249604814,1698249604814,2393,2393,2795,buq,qns-item-noham,81,942518,0.0-1.0-0.80
<b>I spend a lot of time considering alternatives to my beliefs.,Highly disagree,82/150,Somewhat agree,3,1698249605217,1698249607228,\Somewhat agree\,\Somewhat agree\,\3\,1698249606776,1698249606776,1559,1559,2011,buq,qns-item-noham,82,944530,0.0-1.0-0.81
"<b>Political enemies need to be defeated, not convinced.",Highly disagree,83/150,Somewhat disagree,2,1698249607229,1698249609946,\Somewhat disagree\,\Somewhat disagree\,\2\,1698249609374,1698249609374,2145,2145,2717,buq,qns-item-noham,83,947248,0.0-1.0-0.82
"<b>When forming an opinion about a restaurant, I am more swayed by my  latest meal there than  previous meals I?ve had there.",Highly disagree,84/150,Somewhat disagree,2,1698249609947,1698249614886,\Somewhat disagree\,\Somewhat disagree\,\2\,1698249614460,1698249614460,4513,4513,4939,buq,qns-item-noham,84,952188,0.0-1.0-0.83
<b>I try to remain skeptical about most topics.,Highly disagree,85/150,Somewhat disagree,2,1698249614887,1698249620872,\Somewhat disagree\,\Somewhat disagree\,\2\,1698249620405,1698249620405,5518,5518,5985,buq,qns-item-noham,85,958174,0.0-1.0-0.84
<b>Being wrong is usually obvious in retrospect.,Highly disagree,86/150,Somewhat disagree,2,1698249620873,1698249623250,\Somewhat disagree\,\Somewhat disagree\,\2\,1698249622909,1698249622909,2036,2036,2377,buq,qns-item-noham,86,960552,0.0-1.0-0.85
<b>It can be hard to realize that my beliefs are in conflict.,Highly disagree,87/150,Somewhat agree,3,1698249623251,1698249625877,\Somewhat disagree\,\Somewhat agree\,\2\,1698249624861,1698249625346,1610,2095,2626,buq,qns-item-noham,87,963179,0.0-1.0-0.86
<b>I form my political views only after meticulously gathering historical and present information about their policies.,Highly disagree,88/150,Somewhat agree,3,1698249625878,1698249628325,\Somewhat agree\,\Somewhat agree\,\3\,1698249627921,1698249627921,2043,2043,2447,buq,qns-item-noham,88,965627,0.0-1.0-0.87
<b>Skeptical people are usually just bad-tempered.,Highly disagree,89/150,Highly disagree,1,1698249628326,1698249630287,\Highly disagree\,\Highly disagree\,\1\,1698249629959,1698249629959,1633,1633,1961,buq,qns-item-noham,89,967589,0.0-1.0-0.88
<b>It is difficult for me to remember the last time I was surprised by politics.,Highly disagree,90/150,Somewhat disagree,2,1698249630288,1698249635359,\Somewhat disagree\,\Somewhat disagree\,\2\,1698249632431,1698249632431,2143,2143,5071,buq,qns-item-noham,90,972661,0.0-1.0-0.89
"<b>When I find out I?m wrong, I think a lot about my related beliefs.",Highly disagree,91/150,Somewhat agree,3,1698249635360,1698249637891,\Somewhat agree\,\Somewhat agree\,\3\,1698249637427,1698249637427,2067,2067,2531,buq,qns-item-noham,91,975193,0.0-1.0-0.90
"<b>If the political party I support messes up, it makes me think you can?t trust anyone these days",Highly disagree,92/150,Somewhat disagree,2,1698249637892,1698249641617,\Somewhat disagree\,\Somewhat disagree\,\2\,1698249640811,1698249640811,2919,2919,3725,buq,qns-item-noham,92,978919,0.0-1.0-0.91
<b>People?s brains turn off when they talk about politics.,Highly disagree,93/150,Somewhat agree,3,1698249641618,1698249646645,\Somewhat disagree\,\Somewhat agree\,\2\,1698249643703,1698249646313,2085,4695,5027,buq,qns-item-noham,93,983947,0.0-1.0-0.92
<b>People who are wrong are usually just ignoring the obvious.,Highly disagree,94/150,Somewhat disagree,2,1698249646646,1698249660174,\Somewhat disagree\,\Somewhat disagree\,\2\,1698249659357,1698249659357,12711,12711,13528,buq,qns-item-noham,94,997476,0.0-1.0-0.93
"<b>The world isn?t that complicated, but it?s still hard to figure out how it works.",Highly disagree,95/150,Somewhat disagree,2,1698249660175,1698249685702,\Somewhat disagree\,\Somewhat disagree\,\2\,1698249685270,1698249685270,25095,25095,25527,buq,qns-item-noham,95,1023004,0.0-1.0-0.94
"<b>When forming my views on people, I rely more on what they are like now rather than rely on my past experience with them.",Highly disagree,96/150,Somewhat agree,3,1698249685703,1698249692642,\Somewhat agree\,\Somewhat agree\,\3\,1698249692266,1698249692266,6563,6563,6939,buq,qns-item-noham,96,1029944,0.0-1.0-0.95
"<b>When people contradict my beliefs, I usually know about their evidence already.",Highly disagree,97/150,Somewhat disagree,2,1698249692643,1698249695000,\Somewhat disagree\,\Somewhat disagree\,\2\,1698249694592,1698249694592,1949,1949,2357,buq,qns-item-noham,97,1032302,0.0-1.0-0.96
<b>Being wrong is a matter of degree.,Highly disagree,98/150,Somewhat agree,3,1698249695001,1698249697098,\Somewhat agree\,\Somewhat agree\,\3\,1698249696762,1698249696762,1761,1761,2097,buq,qns-item-noham,98,1034400,0.0-1.0-0.97
<b>Figuring out what?s true and what?s false mainly requires a strong moral compass.,Highly disagree,99/150,Somewhat agree,3,1698249697099,1698249700928,\Somewhat agree\,\Somewhat agree\,\3\,1698249700438,1698249700438,3339,3339,3829,buq,qns-item-noham,99,1038230,0.0-1.0-0.98
<b>Most of the beliefs people have are at least somewhat understandable.,Highly disagree,100/150,Somewhat agree,3,1698249700929,1698249703576,\Somewhat agree\,\Somewhat agree\,\3\,1698249703120,1698249703120,2191,2191,2647,buq,qns-item-noham,100,1040878,0.0-1.0-0.99
"<b>Usually I?m wrong about simple things, not complicated ones.",Highly disagree,101/150,Somewhat disagree,2,1698249703577,1698249706268,\Somewhat disagree\,\Somewhat disagree\,\2\,1698249705418,1698249705418,1841,1841,2691,buq,qns-item-noham,101,1043570,0.0-1.0-0.100
<b>Getting all the information I want about important things is hard.,Highly disagree,102/150,Somewhat agree,3,1698249706269,1698249709106,\Somewhat agree\,\Somewhat agree\,\3\,1698249708750,1698249708750,2481,2481,2837,buq,qns-item-noham,102,1046408,0.0-1.0-0.101
<b>Most false beliefs spread because people try to deceive one another.,Highly disagree,103/150,Somewhat agree,3,1698249709107,1698249713531,\Somewhat agree\,\Somewhat agree\,\3\,1698249712616,1698249712616,3509,3509,4424,buq,qns-item-noham,103,1050833,0.0-1.0-0.102
<b>I can usually find something to agree with in most people?s beliefs.,Highly disagree,104/150,Somewhat agree,3,1698249713532,1698249786831,\Somewhat agree\,\Somewhat agree\,\3\,1698249786247,1698249786247,72715,72715,73299,buq,qns-item-noham,104,1124133,0.0-1.0-0.103
<b>I only form my views of people once I get to know them very well.,Highly disagree,105/150,Somewhat disagree,2,1698249786832,1698249796007,\Somewhat agree\,\Somewhat disagree\,\3\,1698249794987,1698249795613,8155,8781,9175,buq,qns-item-noham,105,1133309,0.0-1.0-0.104
"<b>When people tell me important things about the world, I usually believe them.",Highly disagree,106/150,Somewhat agree,3,1698249796008,1698249800221,\Somewhat disagree\,\Somewhat agree\,\2\,1698249798609,1698249799547,2601,3539,4213,buq,qns-item-noham,106,1137523,0.0-1.0-0.105
"<b>If a friend does something that upsets me, it reminds me what an unpredictable place the world is.",Highly disagree,107/150,Somewhat agree,3,1698249800222,1698249802615,\Somewhat agree\,\Somewhat agree\,\3\,1698249802197,1698249802197,1975,1975,2393,buq,qns-item-noham,107,1139917,0.0-1.0-0.106
<b>Having some conflicting beliefs is inevitable.,Highly disagree,108/150,Somewhat disagree,2,1698249802616,1698249806830,\Somewhat disagree\,\Somewhat disagree\,\2\,1698249806352,1698249806352,3736,3736,4214,buq,qns-item-noham,108,1144132,0.0-1.0-0.107
<b>People are wrong because they haven?t thought much about things.,Highly disagree,109/150,Somewhat disagree,2,1698249806831,1698249809533,\Somewhat disagree\,\Somewhat disagree\,\2\,1698249809113,1698249809113,2282,2282,2702,buq,qns-item-noham,109,1146835,0.0-1.0-0.108
<b>People tend to believe whatever is good for their friends.,Highly disagree,110/150,Somewhat agree,3,1698249809534,1698249812178,\Somewhat agree\,\Somewhat agree\,\3\,1698249811390,1698249811390,1856,1856,2644,buq,qns-item-noham,110,1149480,0.0-1.0-0.109
"<b>When I talk about important topics, I try to make sure people know I?m not always right.",Highly disagree,111/150,Somewhat agree,3,1698249812179,1698249815183,\Somewhat agree\,\Somewhat agree\,\3\,1698249814407,1698249814407,2228,2228,3004,buq,qns-item-noham,111,1152485,0.0-1.0-0.110
<b>I used to be more certain my beliefs were true.,Highly disagree,112/150,Somewhat agree,3,1698249815184,1698249817881,\Somewhat agree\,\Somewhat agree\,\3\,1698249817353,1698249817353,2169,2169,2697,buq,qns-item-noham,112,1155183,0.0-1.0-0.111
<b>It?s often pretty easy to figure out whether something is true based on who said it.,Highly disagree,113/150,Somewhat agree,3,1698249817882,1698249820684,\Somewhat agree\,\Somewhat agree\,\3\,1698249820333,1698249820333,2451,2451,2802,buq,qns-item-noham,113,1157986,0.0-1.0-0.112
<b>Having bad food in my favorite restaurant will make me think the restaurant is no longer good.,Highly disagree,114/150,Somewhat disagree,2,1698249820685,1698249823105,\Somewhat disagree\,\Somewhat disagree\,\2\,1698249822719,1698249822719,2034,2034,2420,buq,qns-item-noham,114,1160407,0.0-1.0-0.113
<b>I transform into a hummingbird every day.,Highly disagree,115/150,Highly disagree,1,1698249823106,1698249824877,\Highly disagree\,\Highly disagree\,\1\,1698249824355,1698249824355,1249,1249,1771,buq,qns-item-noham,115,1162179,0.0-1.0-0.114
"<b>Unfortunately, when people are wrong, it?s usually because they?re bad.",Highly disagree,116/150,Highly disagree,1,1698249824878,1698249828197,\Highly disagree\,\Highly disagree\,\1\,1698249827799,1698249827799,2921,2921,3319,buq,qns-item-noham,116,1165499,0.0-1.0-0.115
<b>I think a lot about arguments against my views.,Highly disagree,117/150,Somewhat disagree,2,1698249828198,1698249831825,\Somewhat agree\,\Somewhat disagree\,\3\,1698249830827,1698249831329,2629,3131,3627,buq,qns-item-noham,117,1169127,0.0-1.0-0.116
<b>Details tend to matter a lot for knowing whether a policy is good.,Highly disagree,118/150,Highly agree,4,1698249831826,1698249840733,\Somewhat agree\,\Highly agree\,\3\,1698249839641,1698249840065,7815,8239,8907,buq,qns-item-noham,118,1178035,0.0-1.0-0.117
<b>Personal experience is usually more important than facts and figures.,Highly disagree,119/150,Somewhat disagree,2,1698249840735,1698249843255,\Somewhat disagree\,\Somewhat disagree\,\2\,1698249842467,1698249842467,1732,1732,2520,buq,qns-item-noham,119,1180557,0.0-1.0-0.118
<b>I?ve been tricked before about important matters.,Highly disagree,120/150,Somewhat agree,3,1698249843256,1698249845445,\Somewhat agree\,\Somewhat agree\,\3\,1698249844989,1698249844989,1733,1733,2189,buq,qns-item-noham,120,1182747,0.0-1.0-0.119
<b>I would need to be totally wowed if I were to change my opinion of a restaurant I don?t like.,Highly disagree,121/150,Highly agree,4,1698249845446,1698249849559,\Highly agree\,\Highly agree\,\4\,1698249849196,1698249849196,3750,3750,4113,buq,qns-item-noham,121,1186861,0.0-1.0-0.120
<b>I care a lot about politics.,Highly disagree,122/150,Highly disagree,1,1698249849560,1698249851356,\Highly disagree\,\Highly disagree\,\1\,1698249850915,1698249850915,1355,1355,1796,buq,qns-item-noham,122,1188658,0.0-1.0-0.121
<b>People with conflicting beliefs usually have some facts they disagree on.,Highly disagree,123/150,Somewhat agree,3,1698249851357,1698249856132,\Somewhat agree\,\Somewhat agree\,\3\,1698249855337,1698249855337,3980,3980,4775,buq,qns-item-noham,123,1193434,0.0-1.0-0.122
<b>There are some topics I?ve been really wrong about.,Highly disagree,124/150,Somewhat agree,3,1698249856133,1698249857874,\Somewhat agree\,\Somewhat agree\,\3\,1698249857534,1698249857534,1401,1401,1741,buq,qns-item-noham,124,1195176,0.0-1.0-0.123
<b>Most beliefs can be supported with at least some evidence.,Highly disagree,125/150,Highly agree,4,1698249857875,1698249861222,\Highly agree\,\Highly agree\,\4\,1698249859792,1698249859792,1917,1917,3347,buq,qns-item-noham,125,1198524,0.0-1.0-0.124
<b>Other people make life out to be more complicated than it really is.,Highly disagree,126/150,Somewhat agree,3,1698249861223,1698249863670,\Somewhat agree\,\Somewhat agree\,\3\,1698249863342,1698249863342,2119,2119,2447,buq,qns-item-noham,126,1200972,0.0-1.0-0.125
"<b>My political views are being shaped continuously as I gather more information, rather than relying on what I?ve known to be true of my party in the past. ",Highly disagree,127/150,Highly agree,4,1698249863671,1698249867370,\Highly agree\,\Highly agree\,\4\,1698249866978,1698249866978,3307,3307,3699,buq,qns-item-noham,127,1204672,0.0-1.0-0.126
<b>It?s pretty unusual for true things to seem false.,Highly disagree,128/150,Highly agree,4,1698249867371,1698249872729,\Highly agree\,\Highly agree\,\4\,1698249870922,1698249870922,3551,3551,5358,buq,qns-item-noham,128,1210031,0.0-1.0-0.127
"<b>Policy details don?t matter much, just the big picture.",Highly disagree,129/150,Highly disagree,1,1698249872730,1698249877827,\Highly disagree\,\Highly disagree\,\1\,1698249877474,1698249877474,4744,4744,5097,buq,qns-item-noham,129,1215129,0.0-1.0-0.128
<b>I know my friends so well they can hardly ever surprise me.,Highly disagree,130/150,Somewhat agree,3,1698249877828,1698249880475,\Somewhat agree\,\Somewhat agree\,\3\,1698249880129,1698249880129,2301,2301,2647,buq,qns-item-noham,130,1217777,0.0-1.0-0.129
"<b>When I talk to people, I often think about why they have the beliefs they do.",Highly disagree,131/150,Somewhat agree,3,1698249880476,1698249884391,\Somewhat agree\,\Somewhat agree\,\3\,1698249883805,1698249883805,3329,3329,3915,buq,qns-item-noham,131,1221693,0.0-1.0-0.130
<b>I do not often change my views on people.,Highly disagree,132/150,Somewhat agree,3,1698249884392,1698249886337,\Somewhat agree\,\Somewhat agree\,\3\,1698249885775,1698249885775,1383,1383,1945,buq,qns-item-noham,132,1223639,0.0-1.0-0.131
<b>I often wish I had more time to spend figuring out what?s true and what?s false in life.,Highly disagree,133/150,Somewhat agree,3,1698249886338,1698249890127,\Somewhat agree\,\Somewhat agree\,\3\,1698249889755,1698249889755,3417,3417,3789,buq,qns-item-noham,133,1227429,0.0-1.0-0.132
<b>I?m more certain about my beliefs than I used to be.,Highly disagree,134/150,Somewhat agree,3,1698249890128,1698249892487,\Somewhat agree\,\Somewhat agree\,\3\,1698249892053,1698249892053,1925,1925,2359,buq,qns-item-noham,134,1229789,0.0-1.0-0.133
"<b>Whenever I find out new information, I update my views on politics accordingly.",Highly disagree,135/150,Somewhat agree,3,1698249892488,1698249894923,\Somewhat agree\,\Somewhat agree\,\3\,1698249894293,1698249894293,1805,1805,2435,buq,qns-item-noham,135,1232225,0.0-1.0-0.134
<b>People often tell falsehoods unintentionally.,Highly disagree,136/150,Somewhat agree,3,1698249894924,1698249898127,\Somewhat agree\,\Somewhat agree\,\3\,1698249896224,1698249896224,1300,1300,3203,buq,qns-item-noham,136,1235429,0.0-1.0-0.135
<b>Most people don?t know much about most things.,Highly disagree,137/150,Somewhat agree,3,1698249898128,1698249899993,\Somewhat agree\,\Somewhat agree\,\3\,1698249899667,1698249899667,1539,1539,1865,buq,qns-item-noham,137,1237295,0.0-1.0-0.136
"<b>If I find out something new about someone, I easily change my views about them.",Highly disagree,138/150,Somewhat agree,3,1698249899994,1698249903339,\Somewhat agree\,\Somewhat agree\,\3\,1698249902529,1698249902529,2535,2535,3345,buq,qns-item-noham,138,1240641,0.0-1.0-0.137
<b>Having true beliefs is difficult.,Highly disagree,139/150,Highly disagree,1,1698249903340,1698249906003,\Somewhat disagree\,\Highly disagree\,\2\,1698249905213,1698249905557,1873,2217,2663,buq,qns-item-noham,139,1243305,0.0-1.0-0.138
<b>I don?t try new foods since I know I won?t like them.,Highly disagree,140/150,Somewhat disagree,2,1698249906004,1698249910683,\Somewhat disagree\,\Somewhat disagree\,\2\,1698249910273,1698249910273,4269,4269,4679,buq,qns-item-noham,140,1247985,0.0-1.0-0.139
<b>It?s easy to figure out what?s true or false based on who?s saying it.,Highly disagree,141/150,Somewhat agree,3,1698249910684,1698249913741,\Somewhat agree\,\Somewhat agree\,\3\,1698249912692,1698249912692,2008,2008,3057,buq,qns-item-noham,141,1251044,0.0-1.0-0.140
<b>False things have seemed true to me many times.,Highly disagree,142/150,Somewhat agree,3,1698249913743,1698249915861,\Somewhat agree\,\Somewhat agree\,\3\,1698249915456,1698249915456,1713,1713,2118,buq,qns-item-noham,142,1253163,0.0-1.0-0.141
<b>It?s pretty easy to sort out what?s true and what?s false in life.,Highly disagree,143/150,Somewhat agree,3,1698249915862,1698249917853,\Somewhat agree\,\Somewhat agree\,\3\,1698249917148,1698249917148,1286,1286,1991,buq,qns-item-noham,143,1255155,0.0-1.0-0.142
<b>Knowing lots of statistics about something is usually important for understanding it.,Highly disagree,144/150,Somewhat disagree,2,1698249917854,1698249922444,\Somewhat disagree\,\Somewhat disagree\,\2\,1698249920664,1698249920664,2810,2810,4590,buq,qns-item-noham,144,1259746,0.0-1.0-0.143
<b>Other people trick each other a lot.,Highly disagree,145/150,Somewhat agree,3,1698249922445,1698249924274,\Somewhat agree\,\Somewhat agree\,\3\,1698249923908,1698249923908,1463,1463,1829,buq,qns-item-noham,145,1261576,0.0-1.0-0.144
<b>I would need to learn a lot about a person for my opinion of them to be swayed.,Highly disagree,146/150,Highly agree,4,1698249924275,1698249928726,\Somewhat agree\,\Highly agree\,\3\,1698249926256,1698249928340,1981,4065,4451,buq,qns-item-noham,146,1266028,0.0-1.0-0.145
<b>People can?t usually trick me when it comes to topics I care about.,Highly disagree,147/150,Somewhat agree,3,1698249928727,1698249932318,\Somewhat agree\,\Somewhat agree\,\3\,1698249931934,1698249931934,3207,3207,3591,buq,qns-item-noham,147,1269620,0.0-1.0-0.146
<b>I do not often change my views on food.,Highly disagree,148/150,Somewhat agree,3,1698249932319,1698249934188,\Somewhat agree\,\Somewhat agree\,\3\,1698249933894,1698249933894,1575,1575,1869,buq,qns-item-noham,148,1271490,0.0-1.0-0.147
<b>Specific policies are often very important to me.,Highly disagree,149/150,Somewhat agree,3,1698249934189,1698249936276,\Somewhat agree\,\Somewhat agree\,\3\,1698249935916,1698249935916,1727,1727,2087,buq,qns-item-noham,149,1273578,0.0-1.0-0.148
<b>Most people are woefully under-informed.,Highly disagree,150/150,Somewhat agree,3,1698249936277,1698249937920,\Somewhat agree\,\Somewhat agree\,\3\,1698249937613,1698249937613,1336,1336,1643,buq,qns-item-noham,150,1275222,0.0-1.0-0.149
