Question,qns_options,quest_num,answer,answer_num,question_load_timestamp,next_btn_timestamp,text_selected,final_text_selected,option_num_selected,preview_timestamps,final_text_selected_time_stamp,rt_first_option_click,rt_final_option_click,rt_submit_click,questionnaire,trial_type,trial_index,time_elapsed,internal_node_id
<b>Considering other people?s perspectives can help us figure out what?s true or false.,Highly disagree,1/150,Somewhat disagree,2,1697747199072,1697747201556,\Somewhat disagree\,\Somewhat disagree\,\2\,1697747200857,1697747200857,1785,1785,2484,buq,qns-item-noham,1,4512,0.0-1.0-0.0
<b>Knowing what?s true and knowing what to do about it are usually basically the same.,Highly disagree,2/150,Somewhat disagree,2,1697747201560,1697747202178,\Somewhat disagree\,\Somewhat disagree\,\2\,1697747201895,1697747201895,335,335,618,buq,qns-item-noham,2,5135,0.0-1.0-0.1
<b>Most people just believe whatever is convenient for them.,Highly disagree,3/150,Somewhat disagree,2,1697747202182,1697747203124,\Somewhat disagree\,\Somewhat disagree\,\2\,1697747202818,1697747202818,636,636,942,buq,qns-item-noham,3,6080,0.0-1.0-0.2
<b>Even people who are wrong about most things can be right sometimes.,Highly disagree,4/150,Somewhat disagree,2,1697747203126,1697747203755,\Somewhat disagree\,\Somewhat disagree\,\2\,1697747203414,1697747203414,288,288,629,buq,qns-item-noham,4,6711,0.0-1.0-0.3
"<b>If the political party I support does something that upsets me, then the party may have changed, and I need to re-evaluate my support.",Highly disagree,5/150,Somewhat disagree,2,1697747203759,1697747207336,\Somewhat disagree\,\Somewhat disagree\,\2\,1697747206988,1697747206988,3229,3229,3577,buq,qns-item-noham,5,10293,0.0-1.0-0.4
"<b>When people disagree, one side is usually completely right.",Highly disagree,6/150,Somewhat disagree,2,1697747207340,1697747208096,\Somewhat disagree\,\Somewhat disagree\,\2\,1697747207790,1697747207790,450,450,756,buq,qns-item-noham,6,11053,0.0-1.0-0.5
<b>People have lots of false beliefs.,Highly disagree,7/150,Somewhat disagree,2,1697747208100,1697747208850,\Somewhat disagree\,\Somewhat disagree\,\2\,1697747208414,1697747208414,314,314,750,buq,qns-item-noham,7,11806,0.0-1.0-0.6
<b>Having some big beliefs helps me sort out minor ones.,Highly disagree,8/150,Somewhat disagree,2,1697747208853,1697747210236,\Somewhat disagree\,\Somewhat disagree\,\2\,1697747209203,1697747209203,350,350,1383,buq,qns-item-noham,8,13192,0.0-1.0-0.7
<b>Political questions are usually pretty complicated.,Highly disagree,9/150,Somewhat disagree,2,1697747210240,1697747210974,\Somewhat disagree\,\Somewhat disagree\,\2\,1697747210590,1697747210590,350,350,734,buq,qns-item-noham,9,13930,0.0-1.0-0.8
<b>Figuring out what?s important in life requires learning a lot of facts.,Highly disagree,10/150,Somewhat disagree,2,1697747210976,1697747212913,\Somewhat disagree\,\Somewhat disagree\,\2\,1697747211285,1697747211285,309,309,1937,buq,qns-item-noham,10,15870,0.0-1.0-0.9
<b>It is difficult for me to remember the last time I was surprised by politics.,Highly disagree,11/150,Somewhat disagree,2,1697747212916,1697747213700,\Somewhat disagree\,\Somewhat disagree\,\2\,1697747213195,1697747213195,279,279,784,buq,qns-item-noham,11,16656,0.0-1.0-0.10
<b>People?s false beliefs are understandable.,Highly disagree,12/150,Somewhat disagree,2,1697747213704,1697747215803,\Somewhat disagree\,\Somewhat disagree\,\2\,1697747215472,1697747215472,1768,1768,2099,buq,qns-item-noham,12,18759,0.0-1.0-0.11
<b>I spend a lot of time trying to be informed about politics.,Highly disagree,13/150,Somewhat disagree,2,1697747215807,1697747216669,\Somewhat disagree\,\Somewhat disagree\,\2\,1697747216190,1697747216190,383,383,862,buq,qns-item-noham,13,19626,0.0-1.0-0.12
<b>I think a lot about whether my beliefs are right.,Highly disagree,14/150,Somewhat disagree,2,1697747216672,1697747218498,\Somewhat disagree\,\Somewhat disagree\,\2\,1697747217616,1697747217616,944,944,1826,buq,qns-item-noham,14,21459,0.0-1.0-0.13
<b>Statistics can be pretty misleading sometimes.,Highly disagree,15/150,Somewhat disagree,2,1697747218506,1697747219210,\Somewhat disagree\,\Somewhat disagree\,\2\,1697747218884,1697747218884,378,378,704,buq,qns-item-noham,15,22166,0.0-1.0-0.14
<b>Figuring out what?s true and what?s false takes a lot of time and effort.,Highly disagree,16/150,Somewhat disagree,2,1697747219213,1697747221024,\Somewhat disagree\,\Somewhat disagree\,\2\,1697747220322,1697747220322,1109,1109,1811,buq,qns-item-noham,16,23980,0.0-1.0-0.15
"<b>If a friend does something bad to me, it was likely an error on their part.",Highly disagree,17/150,Somewhat disagree,2,1697747221027,1697747221716,\Somewhat disagree\,\Somewhat disagree\,\2\,1697747221326,1697747221326,299,299,689,buq,qns-item-noham,17,24672,0.0-1.0-0.16
<b>I have lots of beliefs that I?m only sort of sure about.,Highly disagree,18/150,Somewhat disagree,2,1697747221719,1697747222601,\Somewhat disagree\,\Somewhat disagree\,\2\,1697747222216,1697747222216,497,497,882,buq,qns-item-noham,18,25558,0.0-1.0-0.17
"<b>If I go to my favorite restaurant and the food is surprisingly bad, it reminds me there are many disappointments in life.",Highly disagree,19/150,Somewhat disagree,2,1697747222605,1697747223336,\Somewhat disagree\,\Somewhat disagree\,\2\,1697747222958,1697747222958,353,353,731,buq,qns-item-noham,19,26292,0.0-1.0-0.18
<b>Sometimes my beliefs are inconvenient for me.,Highly disagree,20/150,Somewhat disagree,2,1697747223339,1697747224262,\Somewhat disagree\,\Somewhat disagree\,\2\,1697747223916,1697747223916,577,577,923,buq,qns-item-noham,20,27219,0.0-1.0-0.19
<b>Paying attention to multiple news sources is important.,Highly disagree,21/150,Somewhat disagree,2,1697747224266,1697747227683,\Somewhat disagree\,\Somewhat disagree\,\2\,1697747227240,1697747227240,2974,2974,3417,buq,qns-item-noham,21,30639,0.0-1.0-0.20
"<b>If you are paying attention, please select ?Somewhat agree?",Highly disagree,22/150,Somewhat agree,3,1697747227686,1697747228962,\Somewhat agree\,\Somewhat agree\,\3\,1697747228288,1697747228288,602,602,1276,buq,qns-item-noham,22,31918,0.0-1.0-0.21
"<b>When I talk to others, I often worry I?ll convince them of something I didn?t mean to.",Highly disagree,23/150,Somewhat agree,3,1697747228965,1697747233745,\Somewhat agree\,\Somewhat agree\,\3\,1697747233258,1697747233258,4293,4293,4780,buq,qns-item-noham,23,36701,0.0-1.0-0.22
<b>I would need to learn something utterly shocking about my party in order to change my political views.,Highly disagree,24/150,Somewhat agree,3,1697747233748,1697747234652,\Somewhat agree\,\Somewhat agree\,\3\,1697747234266,1697747234266,518,518,904,buq,qns-item-noham,24,37608,0.0-1.0-0.23
"<b>When I have new experiences, I tend to think of them as unique.",Highly disagree,25/150,Somewhat agree,3,1697747234655,1697747235780,\Somewhat agree\,\Somewhat agree\,\3\,1697747235449,1697747235449,794,794,1125,buq,qns-item-noham,25,38736,0.0-1.0-0.24
<b>Reading lots of things is important for understanding the world.,Highly disagree,26/150,Somewhat agree,3,1697747235783,1697747236896,\Somewhat agree\,\Somewhat agree\,\3\,1697747236343,1697747236343,560,560,1113,buq,qns-item-noham,26,39852,0.0-1.0-0.25
<b>The world is complicated.,Highly disagree,27/150,Somewhat agree,3,1697747236898,1697747237658,\Somewhat agree\,\Somewhat agree\,\3\,1697747237249,1697747237249,351,351,760,buq,qns-item-noham,27,40614,0.0-1.0-0.26
<b>I change my mind about specific policies pretty frequently.,Highly disagree,28/150,Somewhat agree,3,1697747237661,1697747238411,\Somewhat agree\,\Somewhat agree\,\3\,1697747237988,1697747237988,327,327,750,buq,qns-item-noham,28,41367,0.0-1.0-0.27
"<b>If a politician in my political party supports something I disagree with, I give them the benefit of the doubt, as such issues often involve hidden complexities that aren?t obvious.   ",Highly disagree,29/150,Somewhat agree,3,1697747238413,1697747241916,\Somewhat agree\,\Somewhat agree\,\3\,1697747241392,1697747241392,2979,2979,3503,buq,qns-item-noham,29,44873,0.0-1.0-0.28
<b>People?s bad politics are usually motivated by hatefulness.,Highly disagree,30/150,Somewhat agree,3,1697747241919,1697747243375,\Somewhat agree\,\Somewhat agree\,\3\,1697747242904,1697747242904,985,985,1456,buq,qns-item-noham,30,46332,0.0-1.0-0.29
"<b>Most new experiences are just like old ones, but a little bit different.",Highly disagree,31/150,Somewhat agree,3,1697747243379,1697747245078,\Somewhat agree\,\Somewhat agree\,\3\,1697747244640,1697747244640,1261,1261,1699,buq,qns-item-noham,31,48034,0.0-1.0-0.30
<b>I think a lot about how to reconcile my beliefs with one another.,Highly disagree,32/150,Somewhat agree,3,1697747245081,1697747245904,\Somewhat agree\,\Somewhat agree\,\3\,1697747245509,1697747245509,428,428,823,buq,qns-item-noham,32,48860,0.0-1.0-0.31
<b>Personal experience rarely leads people astray.,Highly disagree,33/150,Somewhat agree,3,1697747245907,1697747246661,\Somewhat agree\,\Somewhat agree\,\3\,1697747246230,1697747246230,323,323,754,buq,qns-item-noham,33,49617,0.0-1.0-0.32
<b>I might have false beliefs about important topics.,Highly disagree,34/150,Somewhat agree,3,1697747246664,1697747247383,\Somewhat agree\,\Somewhat agree\,\3\,1697747246996,1697747246996,332,332,719,buq,qns-item-noham,34,50339,0.0-1.0-0.33
"<b>If a good friend of mine does something unexpected that upsets me, I feel like I don?t know them anymore.",Highly disagree,35/150,Somewhat agree,3,1697747247385,1697747249374,\Somewhat agree\,\Somewhat agree\,\3\,1697747247746,1697747248934,361,1549,1989,buq,qns-item-noham,35,52330,0.0-1.0-0.34
<b>Other people?s beliefs are often incoherent.,Highly disagree,36/150,Somewhat agree,3,1697747249377,1697747255270,\Somewhat agree\,\Somewhat agree\,\3\,1697747250178,1697747254633,801,5256,5893,buq,qns-item-noham,36,58227,0.0-1.0-0.35
<b>It?s important to have friends who think about things differently than I do.,Highly disagree,37/150,Somewhat agree,3,1697747255274,1697747256012,\Somewhat agree\,\Somewhat agree\,\3\,1697747255610,1697747255610,336,336,738,buq,qns-item-noham,37,58968,0.0-1.0-0.36
"<b>Every now and then, a new experience will unsettle beliefs I?ve had for a while.",Highly disagree,38/150,Somewhat agree,3,1697747256015,1697747257471,\Somewhat agree\,\Somewhat agree\,\3\,1697747256464,1697747256464,449,449,1456,buq,qns-item-noham,38,60427,0.0-1.0-0.37
<b>Some policies I agree with in principle are so bad I don?t support them. ,Highly disagree,39/150,Somewhat agree,3,1697747257474,1697747259214,\Somewhat agree\,\Somewhat agree\,\3\,1697747258603,1697747258603,1129,1129,1740,buq,qns-item-noham,39,62171,0.0-1.0-0.38
<b>I?m pretty sure I?ve accidentally spread false information.,Highly disagree,40/150,Somewhat agree,3,1697747259217,1697747260327,\Somewhat agree\,\Somewhat agree\,\3\,1697747259530,1697747259530,313,313,1110,buq,qns-item-noham,40,63283,0.0-1.0-0.39
"<b>If I go to my favorite restaurant and the food is unexpectedly bad, then they have changed owners.",Highly disagree,41/150,Somewhat agree,3,1697747260331,1697747261299,\Somewhat agree\,\Somewhat agree\,\3\,1697747260674,1697747260674,343,343,968,buq,qns-item-noham,41,64255,0.0-1.0-0.40
"<b>In politics, it?s important to trust your friends and family.",Highly disagree,42/150,Somewhat agree,3,1697747261301,1697747263466,\Somewhat agree\,\Somewhat agree\,\3\,1697747261910,1697747262942,609,1641,2165,buq,qns-item-noham,42,66422,0.0-1.0-0.41
<b>It?s OK to have some conflicting beliefs.,Highly disagree,43/150,Somewhat agree,3,1697747263470,1697747264368,\Somewhat agree\,\Somewhat agree\,\3\,1697747263948,1697747263948,478,478,898,buq,qns-item-noham,43,67325,0.0-1.0-0.42
<b>Sometimes the details of a matter seem to conflict with the big picture.,Highly disagree,44/150,Somewhat agree,3,1697747264371,1697747269278,\Somewhat agree\,\Somewhat agree\,\3\,1697747264783,1697747268924,412,4553,4907,buq,qns-item-noham,44,72235,0.0-1.0-0.43
<b>Listening to people I disagree with makes my opinions better.,Highly disagree,45/150,Somewhat agree,3,1697747269282,1697747272109,\Somewhat agree\,\Somewhat agree\,\3\,1697747271716,1697747271716,2434,2434,2827,buq,qns-item-noham,45,75065,0.0-1.0-0.44
<b>Policies that sound bad are sometimes fine when you find out about their details.,Highly disagree,46/150,Somewhat agree,3,1697747272111,1697747273305,\Somewhat agree\,\Somewhat agree\,\3\,1697747272440,1697747272440,329,329,1194,buq,qns-item-noham,46,76261,0.0-1.0-0.45
"<b>The world is always changing, so my beliefs are sometimes out-dated.",Highly disagree,47/150,Somewhat agree,3,1697747273308,1697747274167,\Somewhat agree\,\Somewhat agree\,\3\,1697747273619,1697747273619,311,311,859,buq,qns-item-noham,47,77123,0.0-1.0-0.46
"<b>If I receive a bad meal at my favorite restaurant and the food is surprisingly bad, I do not think much of it, and assume the chef is just having an ?off? day.",Highly disagree,48/150,Somewhat agree,3,1697747274171,1697747275168,\Somewhat agree\,\Somewhat agree\,\3\,1697747274633,1697747274633,462,462,997,buq,qns-item-noham,48,78125,0.0-1.0-0.47
"<b>False information is unavoidable, to some extent.",Highly disagree,49/150,Somewhat agree,3,1697747275172,1697747279287,\Somewhat agree\,\Somewhat agree\,\3\,1697747275627,1697747278769,455,3597,4115,buq,qns-item-noham,49,82243,0.0-1.0-0.48
<b>My moral compass sometimes makes it harder to determine what?s true.,Highly disagree,50/150,Somewhat agree,3,1697747279291,1697747280018,\Somewhat agree\,\Somewhat agree\,\3\,1697747279620,1697747279620,329,329,727,buq,qns-item-noham,50,82974,0.0-1.0-0.49
"<b>When you disagree with someone, it?s important to listen to them carefully.",Highly disagree,51/150,Somewhat agree,3,1697747280020,1697747281133,\Somewhat agree\,\Somewhat agree\,\3\,1697747280741,1697747280741,721,721,1113,buq,qns-item-noham,51,84090,0.0-1.0-0.50
<b>Evidence pointing in the wrong direction isn?t really evidence at all.,Highly disagree,52/150,Somewhat agree,3,1697747281136,1697747282007,\Somewhat agree\,\Somewhat agree\,\3\,1697747281606,1697747281606,470,470,871,buq,qns-item-noham,52,84963,0.0-1.0-0.51
"<b>If the political party I support messes up, it makes me think politics is rotten.",Highly disagree,53/150,Somewhat agree,3,1697747282009,1697747282702,\Somewhat agree\,\Somewhat agree\,\3\,1697747282332,1697747282332,323,323,693,buq,qns-item-noham,53,85658,0.0-1.0-0.52
<b>Lots of important topics can only really be understood by some groups of people.,Highly disagree,54/150,Somewhat agree,3,1697747282705,1697747283584,\Somewhat agree\,\Somewhat agree\,\3\,1697747283151,1697747283151,446,446,879,buq,qns-item-noham,54,86540,0.0-1.0-0.53
<b>Details almost always matter for being right about something.,Highly disagree,55/150,Somewhat agree,3,1697747283597,1697747284626,\Somewhat agree\,\Somewhat agree\,\3\,1697747284302,1697747284302,705,705,1029,buq,qns-item-noham,55,87582,0.0-1.0-0.54
"<b>The most important thing in politics is winning, not convincing people.",Highly disagree,56/150,Somewhat agree,3,1697747284630,1697747285342,\Somewhat agree\,\Somewhat agree\,\3\,1697747284962,1697747284962,332,332,712,buq,qns-item-noham,56,88298,0.0-1.0-0.55
<b>Having conflicting beliefs means you haven?t thought about them enough.,Highly disagree,57/150,Somewhat agree,3,1697747285344,1697747285947,\Somewhat agree\,\Somewhat agree\,\3\,1697747285602,1697747285602,258,258,603,buq,qns-item-noham,57,88904,0.0-1.0-0.56
<b>Other people have sometimes convinced me to change my mind on important topics.,Highly disagree,58/150,Somewhat agree,3,1697747285950,1697747312734,\Somewhat agree\,\Somewhat agree\,\3\,1697747312279,1697747312279,26329,26329,26784,buq,qns-item-noham,58,115690,0.0-1.0-0.57
<b>I do not often change my political opinions.,Highly disagree,59/150,Somewhat agree,3,1697747312738,1697747313633,\Somewhat agree\,\Somewhat agree\,\3\,1697747313357,1697747313357,619,619,895,buq,qns-item-noham,59,116589,0.0-1.0-0.58
<b>Thinking about how different things relate to one another is critical in life.,Highly disagree,60/150,Somewhat agree,3,1697747313634,1697747314287,\Somewhat agree\,\Somewhat agree\,\3\,1697747313943,1697747313943,309,309,653,buq,qns-item-noham,60,117244,0.0-1.0-0.59
<b>True beliefs can have unfortunate implications.,Highly disagree,61/150,Somewhat agree,3,1697747314289,1697747314868,\Somewhat agree\,\Somewhat agree\,\3\,1697747314551,1697747314551,262,262,579,buq,qns-item-noham,61,117824,0.0-1.0-0.60
<b>It?s difficult to not have at least some conflicting beliefs.,Highly disagree,62/150,Somewhat agree,3,1697747314871,1697747315545,\Somewhat agree\,\Somewhat agree\,\3\,1697747315174,1697747315174,303,303,674,buq,qns-item-noham,62,118501,0.0-1.0-0.61
"<b>When I learn new things, I think deeply about how my opinions should change.",Highly disagree,63/150,Somewhat agree,3,1697747315547,1697747316238,\Somewhat agree\,\Somewhat agree\,\3\,1697747315828,1697747315828,281,281,691,buq,qns-item-noham,63,119194,0.0-1.0-0.62
<b>I think a lot about how to interpret different sorts of evidence.,Highly disagree,64/150,Somewhat agree,3,1697747316241,1697747317072,\Somewhat agree\,\Somewhat agree\,\3\,1697747316678,1697747316678,437,437,831,buq,qns-item-noham,64,120028,0.0-1.0-0.63
<b>Politics is about thinking together and finding compromises.,Highly disagree,65/150,Somewhat agree,3,1697747317075,1697747317862,\Somewhat agree\,\Somewhat agree\,\3\,1697747317560,1697747317560,485,485,787,buq,qns-item-noham,65,120818,0.0-1.0-0.64
<b>Wishful thinking causes a lot of problems.,Highly disagree,66/150,Somewhat agree,3,1697747317864,1697747318688,\Somewhat agree\,\Somewhat agree\,\3\,1697747318366,1697747318366,502,502,824,buq,qns-item-noham,66,121644,0.0-1.0-0.65
<b>I judge a food item only once I try it many times.,Highly disagree,67/150,Somewhat agree,3,1697747318691,1697747319380,\Somewhat agree\,\Somewhat agree\,\3\,1697747318974,1697747318974,283,283,689,buq,qns-item-noham,67,122336,0.0-1.0-0.66
"<b>When a person holds conflicting beliefs, they should really try to figure out what?s wrong.",Highly disagree,68/150,Somewhat agree,3,1697747319383,1697747321000,\Somewhat agree\,\Somewhat agree\,\3\,1697747320593,1697747320593,1210,1210,1617,buq,qns-item-noham,68,123956,0.0-1.0-0.67
<b>Knowing what?s important in life is easy.,Highly disagree,69/150,Somewhat agree,3,1697747321003,1697747321615,\Somewhat agree\,\Somewhat agree\,\3\,1697747321330,1697747321330,327,327,612,buq,qns-item-noham,69,124571,0.0-1.0-0.68
<b>Lots of smart people disagree about basic political questions.,Highly disagree,70/150,Somewhat agree,3,1697747321618,1697747322324,\Somewhat agree\,\Somewhat agree\,\3\,1697747321991,1697747321991,373,373,706,buq,qns-item-noham,70,125280,0.0-1.0-0.69
<b>I swim across the Atlantic Ocean to get to work every day.,Highly disagree,71/150,Somewhat agree,3,1697747322327,1697747326271,\Somewhat agree\,\Somewhat agree\,\3\,1697747322644,1697747325964,317,3637,3944,buq,qns-item-noham,71,129227,0.0-1.0-0.70
"<b>Sometimes, you just have to ignore evidence that you know is wrong.",Highly disagree,72/150,Somewhat agree,3,1697747326274,1697747327010,\Somewhat agree\,\Somewhat agree\,\3\,1697747326600,1697747326600,326,326,736,buq,qns-item-noham,72,129967,0.0-1.0-0.71
<b>I have had some false beliefs.,Highly disagree,73/150,Somewhat agree,3,1697747327013,1697747328256,\Somewhat agree\,\Somewhat agree\,\3\,1697747327934,1697747327934,921,921,1243,buq,qns-item-noham,73,131212,0.0-1.0-0.72
"<b>If one friend does something that upsets me, I sometimes start to distrust people in general.",Highly disagree,74/150,Somewhat agree,3,1697747328259,1697747329021,\Somewhat agree\,\Somewhat agree\,\3\,1697747328570,1697747328570,311,311,762,buq,qns-item-noham,74,131977,0.0-1.0-0.73
<b>I easily apply what I learn in one situation to another.,Highly disagree,75/150,Somewhat agree,3,1697747329024,1697747329839,\Somewhat agree\,\Somewhat agree\,\3\,1697747329428,1697747329428,404,404,815,buq,qns-item-noham,75,132795,0.0-1.0-0.74
<b>The facts about most important matters are easy to find.,Highly disagree,76/150,Somewhat agree,3,1697747329841,1697747330505,\Somewhat agree\,\Somewhat agree\,\3\,1697747330215,1697747330215,374,374,664,buq,qns-item-noham,76,133462,0.0-1.0-0.75
<b>It?s better to know what?s true than to know what?s moral.,Highly disagree,77/150,Somewhat agree,3,1697747330508,1697747331088,\Somewhat agree\,\Somewhat agree\,\3\,1697747330762,1697747330762,254,254,580,buq,qns-item-noham,77,134044,0.0-1.0-0.76
<b>It?s good to be skeptical of people you agree with.,Highly disagree,78/150,Somewhat agree,3,1697747331090,1697747331660,\Somewhat agree\,\Somewhat agree\,\3\,1697747331354,1697747331354,264,264,570,buq,qns-item-noham,78,134616,0.0-1.0-0.77
<b>Sometimes reasonable beliefs are wrong.,Highly disagree,79/150,Somewhat agree,3,1697747331663,1697747332367,\Somewhat agree\,\Somewhat agree\,\3\,1697747331943,1697747331943,280,280,704,buq,qns-item-noham,79,135323,0.0-1.0-0.78
<b>I used to think the world was less complicated than I do now.,Highly disagree,80/150,Somewhat agree,3,1697747332370,1697747333409,\Somewhat agree\,\Somewhat agree\,\3\,1697747333119,1697747333119,749,749,1039,buq,qns-item-noham,80,136365,0.0-1.0-0.79
<b>People are usually completely right or completely wrong.,Highly disagree,81/150,Somewhat agree,3,1697747333412,1697747334012,\Somewhat agree\,\Somewhat agree\,\3\,1697747333694,1697747333694,282,282,600,buq,qns-item-noham,81,136968,0.0-1.0-0.80
<b>I spend a lot of time considering alternatives to my beliefs.,Highly disagree,82/150,Somewhat agree,3,1697747334014,1697747334821,\Somewhat agree\,\Somewhat agree\,\3\,1697747334353,1697747334353,339,339,807,buq,qns-item-noham,82,137778,0.0-1.0-0.81
"<b>Political enemies need to be defeated, not convinced.",Highly disagree,83/150,Somewhat agree,3,1697747334823,1697747335571,\Somewhat agree\,\Somewhat agree\,\3\,1697747335084,1697747335084,261,261,748,buq,qns-item-noham,83,138527,0.0-1.0-0.82
"<b>When forming an opinion about a restaurant, I am more swayed by my  latest meal there than  previous meals I?ve had there.",Highly disagree,84/150,Somewhat agree,3,1697747335573,1697747336453,\Somewhat agree\,\Somewhat agree\,\3\,1697747335906,1697747335906,333,333,880,buq,qns-item-noham,84,139409,0.0-1.0-0.83
<b>I try to remain skeptical about most topics.,Highly disagree,85/150,Somewhat agree,3,1697747336456,1697747337303,\Somewhat agree\,\Somewhat agree\,\3\,1697747336938,1697747336938,482,482,847,buq,qns-item-noham,85,140259,0.0-1.0-0.84
<b>Being wrong is usually obvious in retrospect.,Highly disagree,86/150,Somewhat agree,3,1697747337306,1697747339505,\Somewhat agree\,\Somewhat agree\,\3\,1697747337678,1697747339110,372,1804,2199,buq,qns-item-noham,86,142461,0.0-1.0-0.85
<b>It can be hard to realize that my beliefs are in conflict.,Highly disagree,87/150,Somewhat agree,3,1697747339509,1697747340088,\Somewhat agree\,\Somewhat agree\,\3\,1697747339798,1697747339798,289,289,579,buq,qns-item-noham,87,143045,0.0-1.0-0.86
<b>I form my political views only after meticulously gathering historical and present information about their policies.,Highly disagree,88/150,Somewhat agree,3,1697747340092,1697747340763,\Somewhat agree\,\Somewhat agree\,\3\,1697747340346,1697747340346,254,254,671,buq,qns-item-noham,88,143720,0.0-1.0-0.87
<b>Skeptical people are usually just bad-tempered.,Highly disagree,89/150,Somewhat agree,3,1697747340765,1697747341534,\Somewhat agree\,\Somewhat agree\,\3\,1697747341053,1697747341053,288,288,769,buq,qns-item-noham,89,144490,0.0-1.0-0.88
<b>It is difficult for me to remember the last time I was surprised by politics.,Highly disagree,90/150,Somewhat agree,3,1697747341537,1697747342207,\Somewhat agree\,\Somewhat agree\,\3\,1697747341873,1697747341873,336,336,670,buq,qns-item-noham,90,145163,0.0-1.0-0.89
"<b>When I find out I?m wrong, I think a lot about my related beliefs.",Highly disagree,91/150,Somewhat agree,3,1697747342209,1697747342960,\Somewhat agree\,\Somewhat agree\,\3\,1697747342554,1697747342554,345,345,751,buq,qns-item-noham,91,145917,0.0-1.0-0.90
"<b>If the political party I support messes up, it makes me think you can?t trust anyone these days",Highly disagree,92/150,Somewhat agree,3,1697747342963,1697747343683,\Somewhat agree\,\Somewhat agree\,\3\,1697747343282,1697747343282,319,319,720,buq,qns-item-noham,92,146639,0.0-1.0-0.91
<b>People?s brains turn off when they talk about politics.,Highly disagree,93/150,Somewhat agree,3,1697747343686,1697747344545,\Somewhat agree\,\Somewhat agree\,\3\,1697747344108,1697747344108,422,422,859,buq,qns-item-noham,93,147501,0.0-1.0-0.92
<b>People who are wrong are usually just ignoring the obvious.,Highly disagree,94/150,Somewhat agree,3,1697747344548,1697747345229,\Somewhat agree\,\Somewhat agree\,\3\,1697747344903,1697747344903,355,355,681,buq,qns-item-noham,94,148185,0.0-1.0-0.93
"<b>The world isn?t that complicated, but it?s still hard to figure out how it works.",Highly disagree,95/150,Somewhat agree,3,1697747345232,1697747346055,\Somewhat agree\,\Somewhat agree\,\3\,1697747345584,1697747345584,352,352,823,buq,qns-item-noham,95,149011,0.0-1.0-0.94
"<b>When forming my views on people, I rely more on what they are like now rather than rely on my past experience with them.",Highly disagree,96/150,Somewhat agree,3,1697747346058,1697747346727,\Somewhat agree\,\Somewhat agree\,\3\,1697747346352,1697747346352,294,294,669,buq,qns-item-noham,96,149683,0.0-1.0-0.95
"<b>When people contradict my beliefs, I usually know about their evidence already.",Highly disagree,97/150,Somewhat agree,3,1697747346730,1697747347368,\Somewhat agree\,\Somewhat agree\,\3\,1697747347018,1697747347018,288,288,638,buq,qns-item-noham,97,150324,0.0-1.0-0.96
<b>Being wrong is a matter of degree.,Highly disagree,98/150,Somewhat agree,3,1697747347370,1697747348053,\Somewhat agree\,\Somewhat agree\,\3\,1697747347763,1697747347763,393,393,683,buq,qns-item-noham,98,151010,0.0-1.0-0.97
<b>Figuring out what?s true and what?s false mainly requires a strong moral compass.,Highly disagree,99/150,Somewhat agree,3,1697747348056,1697747348713,\Somewhat agree\,\Somewhat agree\,\3\,1697747348404,1697747348404,348,348,657,buq,qns-item-noham,99,151669,0.0-1.0-0.98
<b>Most of the beliefs people have are at least somewhat understandable.,Highly disagree,100/150,Somewhat agree,3,1697747348717,1697747349346,\Somewhat agree\,\Somewhat agree\,\3\,1697747349009,1697747349009,292,292,629,buq,qns-item-noham,100,152302,0.0-1.0-0.99
"<b>Usually I?m wrong about simple things, not complicated ones.",Highly disagree,101/150,Somewhat agree,3,1697747349348,1697747349998,\Somewhat agree\,\Somewhat agree\,\3\,1697747349665,1697747349665,317,317,650,buq,qns-item-noham,101,152954,0.0-1.0-0.100
<b>Getting all the information I want about important things is hard.,Highly disagree,102/150,Somewhat agree,3,1697747350001,1697747350623,\Somewhat agree\,\Somewhat agree\,\3\,1697747350268,1697747350268,267,267,622,buq,qns-item-noham,102,153579,0.0-1.0-0.101
<b>Most false beliefs spread because people try to deceive one another.,Highly disagree,103/150,Somewhat agree,3,1697747350625,1697747352158,\Somewhat agree\,\Somewhat agree\,\3\,1697747350898,1697747350898,273,273,1533,buq,qns-item-noham,103,155114,0.0-1.0-0.102
<b>I can usually find something to agree with in most people?s beliefs.,Highly disagree,104/150,Somewhat agree,3,1697747352161,1697747352787,\Somewhat agree\,\Somewhat agree\,\3\,1697747352416,1697747352416,255,255,626,buq,qns-item-noham,104,155743,0.0-1.0-0.103
<b>I only form my views of people once I get to know them very well.,Highly disagree,105/150,Somewhat agree,3,1697747352791,1697747353436,\Somewhat agree\,\Somewhat agree\,\3\,1697747353064,1697747353064,273,273,645,buq,qns-item-noham,105,156392,0.0-1.0-0.104
"<b>When people tell me important things about the world, I usually believe them.",Highly disagree,106/150,Somewhat agree,3,1697747353439,1697747354017,\Somewhat agree\,\Somewhat agree\,\3\,1697747353729,1697747353729,290,290,578,buq,qns-item-noham,106,156974,0.0-1.0-0.105
"<b>If a friend does something that upsets me, it reminds me what an unpredictable place the world is.",Highly disagree,107/150,Somewhat agree,3,1697747354021,1697747354689,\Somewhat agree\,\Somewhat agree\,\3\,1697747354330,1697747354330,309,309,668,buq,qns-item-noham,107,157645,0.0-1.0-0.106
<b>Having some conflicting beliefs is inevitable.,Highly disagree,108/150,Somewhat agree,3,1697747354692,1697747355366,\Somewhat agree\,\Somewhat agree\,\3\,1697747355067,1697747355067,375,375,674,buq,qns-item-noham,108,158322,0.0-1.0-0.107
<b>People are wrong because they haven?t thought much about things.,Highly disagree,109/150,Somewhat agree,3,1697747355368,1697747356084,\Somewhat agree\,\Somewhat agree\,\3\,1697747355696,1697747355696,328,328,716,buq,qns-item-noham,109,159040,0.0-1.0-0.108
<b>People tend to believe whatever is good for their friends.,Highly disagree,110/150,Somewhat agree,3,1697747356085,1697747356781,\Somewhat agree\,\Somewhat agree\,\3\,1697747356484,1697747356484,399,399,696,buq,qns-item-noham,110,159737,0.0-1.0-0.109
"<b>When I talk about important topics, I try to make sure people know I?m not always right.",Highly disagree,111/150,Somewhat agree,3,1697747356783,1697747357380,\Somewhat agree\,\Somewhat agree\,\3\,1697747357091,1697747357091,308,308,597,buq,qns-item-noham,111,160336,0.0-1.0-0.110
<b>I used to be more certain my beliefs were true.,Highly disagree,112/150,Somewhat agree,3,1697747357382,1697747359672,\Somewhat agree\,\Somewhat agree\,\3\,1697747359204,1697747359204,1822,1822,2290,buq,qns-item-noham,112,162628,0.0-1.0-0.111
<b>It?s often pretty easy to figure out whether something is true based on who said it.,Highly disagree,113/150,Somewhat agree,3,1697747359675,1697747360373,\Somewhat agree\,\Somewhat agree\,\3\,1697747360030,1697747360030,355,355,698,buq,qns-item-noham,113,163329,0.0-1.0-0.112
<b>Having bad food in my favorite restaurant will make me think the restaurant is no longer good.,Highly disagree,114/150,Somewhat agree,3,1697747360376,1697747360951,\Somewhat agree\,\Somewhat agree\,\3\,1697747360647,1697747360647,271,271,575,buq,qns-item-noham,114,163907,0.0-1.0-0.113
<b>I transform into a hummingbird every day.,Highly disagree,115/150,Somewhat agree,3,1697747360953,1697747361556,\Somewhat agree\,\Somewhat agree\,\3\,1697747361243,1697747361243,290,290,603,buq,qns-item-noham,115,164512,0.0-1.0-0.114
"<b>Unfortunately, when people are wrong, it?s usually because they?re bad.",Highly disagree,116/150,Somewhat agree,3,1697747361560,1697747362351,\Somewhat agree\,\Somewhat agree\,\3\,1697747362045,1697747362045,485,485,791,buq,qns-item-noham,116,165307,0.0-1.0-0.115
<b>I think a lot about arguments against my views.,Highly disagree,117/150,Somewhat agree,3,1697747362354,1697747363149,\Somewhat agree\,\Somewhat agree\,\3\,1697747362718,1697747362718,364,364,795,buq,qns-item-noham,117,166105,0.0-1.0-0.116
<b>Details tend to matter a lot for knowing whether a policy is good.,Highly disagree,118/150,Somewhat agree,3,1697747363152,1697747363777,\Somewhat agree\,\Somewhat agree\,\3\,1697747363462,1697747363462,310,310,625,buq,qns-item-noham,118,166733,0.0-1.0-0.117
<b>Personal experience is usually more important than facts and figures.,Highly disagree,119/150,Somewhat agree,3,1697747363779,1697747364417,\Somewhat agree\,\Somewhat agree\,\3\,1697747364050,1697747364050,271,271,638,buq,qns-item-noham,119,167373,0.0-1.0-0.118
<b>I?ve been tricked before about important matters.,Highly disagree,120/150,Somewhat agree,3,1697747364420,1697747365042,\Somewhat agree\,\Somewhat agree\,\3\,1697747364756,1697747364756,336,336,622,buq,qns-item-noham,120,167998,0.0-1.0-0.119
<b>I would need to be totally wowed if I were to change my opinion of a restaurant I don?t like.,Highly disagree,121/150,Somewhat agree,3,1697747365045,1697747365881,\Somewhat agree\,\Somewhat agree\,\3\,1697747365436,1697747365436,391,391,836,buq,qns-item-noham,121,168837,0.0-1.0-0.120
<b>I care a lot about politics.,Highly disagree,122/150,Somewhat agree,3,1697747365884,1697747366754,\Somewhat agree\,\Somewhat agree\,\3\,1697747366218,1697747366218,334,334,870,buq,qns-item-noham,122,169710,0.0-1.0-0.121
<b>People with conflicting beliefs usually have some facts they disagree on.,Highly disagree,123/150,Somewhat agree,3,1697747366756,1697747367370,\Somewhat agree\,\Somewhat agree\,\3\,1697747367048,1697747367048,292,292,614,buq,qns-item-noham,123,170326,0.0-1.0-0.122
<b>There are some topics I?ve been really wrong about.,Highly disagree,124/150,Somewhat agree,3,1697747367372,1697747368694,\Somewhat agree\,\Somewhat agree\,\3\,1697747367696,1697747367696,324,324,1322,buq,qns-item-noham,124,171651,0.0-1.0-0.123
<b>Most beliefs can be supported with at least some evidence.,Highly disagree,125/150,Somewhat agree,3,1697747368697,1697747369309,\Somewhat agree\,\Somewhat agree\,\3\,1697747368983,1697747368983,286,286,612,buq,qns-item-noham,125,172265,0.0-1.0-0.124
<b>Other people make life out to be more complicated than it really is.,Highly disagree,126/150,Somewhat agree,3,1697747369311,1697747370001,\Somewhat agree\,\Somewhat agree\,\3\,1697747369643,1697747369643,332,332,690,buq,qns-item-noham,126,172957,0.0-1.0-0.125
"<b>My political views are being shaped continuously as I gather more information, rather than relying on what I?ve known to be true of my party in the past. ",Highly disagree,127/150,Somewhat agree,3,1697747370005,1697747370783,\Somewhat agree\,\Somewhat agree\,\3\,1697747370345,1697747370345,340,340,778,buq,qns-item-noham,127,173739,0.0-1.0-0.126
<b>It?s pretty unusual for true things to seem false.,Highly disagree,128/150,Somewhat agree,3,1697747370786,1697747371749,\Somewhat agree\,\Somewhat agree\,\3\,1697747371394,1697747371394,608,608,963,buq,qns-item-noham,128,174705,0.0-1.0-0.127
"<b>Policy details don?t matter much, just the big picture.",Highly disagree,129/150,Somewhat agree,3,1697747371753,1697747372395,\Somewhat agree\,\Somewhat agree\,\3\,1697747372092,1697747372092,339,339,642,buq,qns-item-noham,129,175351,0.0-1.0-0.128
<b>I know my friends so well they can hardly ever surprise me.,Highly disagree,130/150,Somewhat agree,3,1697747372398,1697747372966,\Somewhat agree\,\Somewhat agree\,\3\,1697747372672,1697747372672,274,274,568,buq,qns-item-noham,130,175922,0.0-1.0-0.129
"<b>When I talk to people, I often think about why they have the beliefs they do.",Highly disagree,131/150,Somewhat agree,3,1697747372968,1697747373642,\Somewhat agree\,\Somewhat agree\,\3\,1697747373248,1697747373248,280,280,674,buq,qns-item-noham,131,176598,0.0-1.0-0.130
<b>I do not often change my views on people.,Highly disagree,132/150,Somewhat agree,3,1697747373644,1697747374359,\Somewhat agree\,\Somewhat agree\,\3\,1697747374058,1697747374058,414,414,715,buq,qns-item-noham,132,177315,0.0-1.0-0.131
<b>I often wish I had more time to spend figuring out what?s true and what?s false in life.,Highly disagree,133/150,Somewhat agree,3,1697747374362,1697747374952,\Somewhat agree\,\Somewhat agree\,\3\,1697747374663,1697747374663,301,301,590,buq,qns-item-noham,133,177908,0.0-1.0-0.132
<b>I?m more certain about my beliefs than I used to be.,Highly disagree,134/150,Somewhat agree,3,1697747374961,1697747375576,\Somewhat agree\,\Somewhat agree\,\3\,1697747375299,1697747375299,338,338,615,buq,qns-item-noham,134,178532,0.0-1.0-0.133
"<b>Whenever I find out new information, I update my views on politics accordingly.",Highly disagree,135/150,Somewhat agree,3,1697747375578,1697747376401,\Somewhat agree\,\Somewhat agree\,\3\,1697747375862,1697747375862,284,284,823,buq,qns-item-noham,135,179357,0.0-1.0-0.134
<b>People often tell falsehoods unintentionally.,Highly disagree,136/150,Somewhat agree,3,1697747376403,1697747377030,\Somewhat agree\,\Somewhat agree\,\3\,1697747376708,1697747376708,305,305,627,buq,qns-item-noham,136,179986,0.0-1.0-0.135
<b>Most people don?t know much about most things.,Highly disagree,137/150,Somewhat agree,3,1697747377032,1697747377670,\Somewhat agree\,\Somewhat agree\,\3\,1697747377340,1697747377340,308,308,638,buq,qns-item-noham,137,180626,0.0-1.0-0.136
"<b>If I find out something new about someone, I easily change my views about them.",Highly disagree,138/150,Somewhat agree,3,1697747377673,1697747378479,\Somewhat agree\,\Somewhat agree\,\3\,1697747377995,1697747377995,322,322,806,buq,qns-item-noham,138,181435,0.0-1.0-0.137
<b>Having true beliefs is difficult.,Highly disagree,139/150,Somewhat agree,3,1697747378481,1697747379183,\Somewhat agree\,\Somewhat agree\,\3\,1697747378821,1697747378821,340,340,702,buq,qns-item-noham,139,182139,0.0-1.0-0.138
<b>I don?t try new foods since I know I won?t like them.,Highly disagree,140/150,Somewhat agree,3,1697747379186,1697747379763,\Somewhat agree\,\Somewhat agree\,\3\,1697747379465,1697747379465,279,279,577,buq,qns-item-noham,140,182719,0.0-1.0-0.139
<b>It?s easy to figure out what?s true or false based on who?s saying it.,Highly disagree,141/150,Somewhat agree,3,1697747379766,1697747380604,\Somewhat agree\,\Somewhat agree\,\3\,1697747380064,1697747380064,298,298,838,buq,qns-item-noham,141,183560,0.0-1.0-0.140
<b>False things have seemed true to me many times.,Highly disagree,142/150,Somewhat agree,3,1697747380606,1697747381224,\Somewhat agree\,\Somewhat agree\,\3\,1697747380899,1697747380899,293,293,618,buq,qns-item-noham,142,184180,0.0-1.0-0.141
<b>It?s pretty easy to sort out what?s true and what?s false in life.,Highly disagree,143/150,Somewhat agree,3,1697747381227,1697747381856,\Somewhat agree\,\Somewhat agree\,\3\,1697747381540,1697747381540,313,313,629,buq,qns-item-noham,143,184812,0.0-1.0-0.142
<b>Knowing lots of statistics about something is usually important for understanding it.,Highly disagree,144/150,Somewhat agree,3,1697747381859,1697747382475,\Somewhat agree\,\Somewhat agree\,\3\,1697747382177,1697747382177,318,318,616,buq,qns-item-noham,144,185431,0.0-1.0-0.143
<b>Other people trick each other a lot.,Highly disagree,145/150,Somewhat agree,3,1697747382478,1697747383045,\Somewhat agree\,\Somewhat agree\,\3\,1697747382756,1697747382756,278,278,567,buq,qns-item-noham,145,186002,0.0-1.0-0.144
<b>I would need to learn a lot about a person for my opinion of them to be swayed.,Highly disagree,146/150,Somewhat agree,3,1697747383047,1697747383658,\Somewhat agree\,\Somewhat agree\,\3\,1697747383348,1697747383348,301,301,611,buq,qns-item-noham,146,186614,0.0-1.0-0.145
<b>People can?t usually trick me when it comes to topics I care about.,Highly disagree,147/150,Somewhat agree,3,1697747383661,1697747384473,\Somewhat agree\,\Somewhat agree\,\3\,1697747384198,1697747384198,537,537,812,buq,qns-item-noham,147,187429,0.0-1.0-0.146
<b>I do not often change my views on food.,Highly disagree,148/150,Somewhat agree,3,1697747384474,1697747385102,\Somewhat agree\,\Somewhat agree\,\3\,1697747384795,1697747384795,321,321,628,buq,qns-item-noham,148,188058,0.0-1.0-0.147
<b>Specific policies are often very important to me.,Highly disagree,149/150,Somewhat agree,3,1697747385104,1697747385705,\Somewhat agree\,\Somewhat agree\,\3\,1697747385398,1697747385398,294,294,601,buq,qns-item-noham,149,188661,0.0-1.0-0.148
<b>Most people are woefully under-informed.,Highly disagree,150/150,Somewhat agree,3,1697747385708,1697747386742,\Somewhat agree\,\Somewhat agree\,\3\,1697747386338,1697747386338,630,630,1034,buq,qns-item-noham,150,189698,0.0-1.0-0.149
