Question,qns_options,quest_num,answer,answer_num,question_load_timestamp,next_btn_timestamp,text_selected,final_text_selected,option_num_selected,preview_timestamps,final_text_selected_time_stamp,rt_first_option_click,rt_final_option_click,rt_submit_click,questionnaire,trial_type,trial_index,time_elapsed,internal_node_id
<b>Considering other people?s perspectives can help us figure out what?s true or false.,Highly disagree,1/150,Somewhat agree,3,1698080579148,1698080637496,\Somewhat agree\,\Somewhat agree\,\3\,1698080636375,1698080636375,57227,57227,58348,buq,qns-item-noham,1,67985,0.0-1.0-0.0
<b>Knowing what?s true and knowing what to do about it are usually basically the same.,Highly disagree,2/150,Highly disagree,1,1698080637506,1698080653204,\Highly disagree\,\Highly disagree\,\1\,1698080652398,1698080652398,14892,14892,15698,buq,qns-item-noham,2,83693,0.0-1.0-0.1
<b>Most people just believe whatever is convenient for them.,Highly disagree,3/150,Highly agree,4,1698080653212,1698080657528,\Highly agree\,\Highly agree\,\4\,1698080656685,1698080656685,3473,3473,4316,buq,qns-item-noham,3,88018,0.0-1.0-0.2
<b>Even people who are wrong about most things can be right sometimes.,Highly disagree,4/150,Somewhat agree,3,1698080657536,1698080663948,\Somewhat agree\,\Somewhat agree\,\3\,1698080662908,1698080662908,5372,5372,6412,buq,qns-item-noham,4,94437,0.0-1.0-0.3
"<b>If the political party I support does something that upsets me, then the party may have changed, and I need to re-evaluate my support.",Highly disagree,5/150,Somewhat agree,3,1698080663951,1698080677775,\Somewhat agree\,\Somewhat agree\,\3\,1698080677188,1698080677188,13237,13237,13824,buq,qns-item-noham,5,108264,0.0-1.0-0.4
"<b>When people disagree, one side is usually completely right.",Highly disagree,6/150,Somewhat disagree,2,1698080677784,1698080684469,\Somewhat disagree\,\Somewhat disagree\,\2\,1698080683948,1698080683948,6164,6164,6685,buq,qns-item-noham,6,114958,0.0-1.0-0.5
<b>People have lots of false beliefs.,Highly disagree,7/150,Highly agree,4,1698080684475,1698080691900,\Highly agree\,\Highly agree\,\4\,1698080691397,1698080691397,6922,6922,7425,buq,qns-item-noham,7,122389,0.0-1.0-0.6
<b>Having some big beliefs helps me sort out minor ones.,Highly disagree,8/150,Somewhat agree,3,1698080691902,1698080699668,\Somewhat agree\,\Somewhat agree\,\3\,1698080698845,1698080698845,6943,6943,7766,buq,qns-item-noham,8,130157,0.0-1.0-0.7
<b>Political questions are usually pretty complicated.,Highly disagree,9/150,Highly agree,4,1698080699671,1698080716444,\Highly agree\,\Highly agree\,\4\,1698080715891,1698080715891,16220,16220,16773,buq,qns-item-noham,9,146933,0.0-1.0-0.8
<b>Figuring out what?s important in life requires learning a lot of facts.,Highly disagree,10/150,Highly agree,4,1698080716448,1698080719803,\Highly agree\,\Highly agree\,\4\,1698080719116,1698080719116,2668,2668,3355,buq,qns-item-noham,10,150293,0.0-1.0-0.9
<b>It is difficult for me to remember the last time I was surprised by politics.,Highly disagree,11/150,Highly disagree,1,1698080719810,1698080733267,\Highly disagree\,\Highly disagree\,\1\,1698080732186,1698080732186,12376,12376,13457,buq,qns-item-noham,11,163757,0.0-1.0-0.10
<b>People?s false beliefs are understandable.,Highly disagree,12/150,Somewhat disagree,2,1698080733273,1698080736595,\Somewhat disagree\,\Somewhat disagree\,\2\,1698080735828,1698080735828,2555,2555,3322,buq,qns-item-noham,12,167084,0.0-1.0-0.11
<b>I spend a lot of time trying to be informed about politics.,Highly disagree,13/150,Highly disagree,1,1698080736598,1698080742187,\Highly disagree\,\Highly disagree\,\1\,1698080741603,1698080741603,5005,5005,5589,buq,qns-item-noham,13,172676,0.0-1.0-0.12
<b>I think a lot about whether my beliefs are right.,Highly disagree,14/150,Highly agree,4,1698080742193,1698080748451,\Highly agree\,\Highly agree\,\4\,1698080747874,1698080747874,5681,5681,6258,buq,qns-item-noham,14,178940,0.0-1.0-0.13
<b>Statistics can be pretty misleading sometimes.,Highly disagree,15/150,Highly agree,4,1698080748457,1698080752083,\Highly agree\,\Highly agree\,\4\,1698080751531,1698080751531,3074,3074,3626,buq,qns-item-noham,15,182572,0.0-1.0-0.14
<b>Figuring out what?s true and what?s false takes a lot of time and effort.,Highly disagree,16/150,Highly agree,4,1698080752085,1698080759947,\Highly agree\,\Highly agree\,\4\,1698080759340,1698080759340,7255,7255,7862,buq,qns-item-noham,16,190436,0.0-1.0-0.15
"<b>If a friend does something bad to me, it was likely an error on their part.",Highly disagree,17/150,Somewhat disagree,2,1698080759950,1698080769378,\Somewhat disagree\,\Somewhat disagree\,\2\,1698080768539,1698080768539,8589,8589,9428,buq,qns-item-noham,17,199867,0.0-1.0-0.16
<b>I have lots of beliefs that I?m only sort of sure about.,Highly disagree,18/150,Highly agree,4,1698080769381,1698080788828,\Highly agree\,\Highly agree\,\4\,1698080788301,1698080788301,18920,18920,19447,buq,qns-item-noham,18,219317,0.0-1.0-0.17
"<b>If I go to my favorite restaurant and the food is surprisingly bad, it reminds me there are many disappointments in life.",Highly disagree,19/150,Somewhat agree,3,1698080788831,1698080800108,\Somewhat agree\,\Somewhat agree\,\3\,1698080799060,1698080799060,10229,10229,11277,buq,qns-item-noham,19,230597,0.0-1.0-0.18
<b>Sometimes my beliefs are inconvenient for me.,Highly disagree,20/150,Highly agree,4,1698080800111,1698080804100,\Highly agree\,\Highly agree\,\4\,1698080803493,1698080803493,3382,3382,3989,buq,qns-item-noham,20,234589,0.0-1.0-0.19
<b>Paying attention to multiple news sources is important.,Highly disagree,21/150,Somewhat agree,3,1698080804103,1698080813300,\Somewhat agree\,\Somewhat agree\,\3\,1698080812748,1698080812748,8645,8645,9197,buq,qns-item-noham,21,243789,0.0-1.0-0.20
"<b>If you are paying attention, please select ?Somewhat agree?",Highly disagree,22/150,Somewhat agree,3,1698080813304,1698080817013,\Somewhat agree\,\Somewhat agree\,\3\,1698080816341,1698080816341,3037,3037,3709,buq,qns-item-noham,22,247502,0.0-1.0-0.21
"<b>When I talk to others, I often worry I?ll convince them of something I didn?t mean to.",Highly disagree,23/150,Somewhat agree,3,1698080817015,1698080828997,\Somewhat agree\,\Somewhat agree\,\3\,1698080824773,1698080824773,7758,7758,11982,buq,qns-item-noham,23,259486,0.0-1.0-0.22
<b>I would need to learn something utterly shocking about my party in order to change my political views.,Highly disagree,24/150,Highly agree,4,1698080829003,1698080846822,\Highly agree\,\Highly agree\,\4\,1698080846144,1698080846144,17141,17141,17819,buq,qns-item-noham,24,277311,0.0-1.0-0.23
"<b>When I have new experiences, I tend to think of them as unique.",Highly disagree,25/150,Highly agree,4,1698080846826,1698080851872,\Highly agree\,\Highly agree\,\4\,1698080851294,1698080851294,4468,4468,5046,buq,qns-item-noham,25,282361,0.0-1.0-0.24
<b>Reading lots of things is important for understanding the world.,Highly disagree,26/150,Highly agree,4,1698080851877,1698080858862,\Highly agree\,\Highly agree\,\4\,1698080858325,1698080858325,6448,6448,6985,buq,qns-item-noham,26,289351,0.0-1.0-0.25
<b>The world is complicated.,Highly disagree,27/150,Highly agree,4,1698080858865,1698080862823,\Highly agree\,\Highly agree\,\4\,1698080862087,1698080862087,3222,3222,3958,buq,qns-item-noham,27,293312,0.0-1.0-0.26
<b>I change my mind about specific policies pretty frequently.,Highly disagree,28/150,Highly agree,4,1698080862826,1698080866989,\Highly agree\,\Highly agree\,\4\,1698080866454,1698080866454,3628,3628,4163,buq,qns-item-noham,28,297478,0.0-1.0-0.27
"<b>If a politician in my political party supports something I disagree with, I give them the benefit of the doubt, as such issues often involve hidden complexities that aren?t obvious.   ",Highly disagree,29/150,Highly disagree,1,1698080866992,1698080874520,\Highly disagree\,\Highly disagree\,\1\,1698080873557,1698080873557,6565,6565,7528,buq,qns-item-noham,29,305009,0.0-1.0-0.28
<b>People?s bad politics are usually motivated by hatefulness.,Highly disagree,30/150,Highly agree,4,1698080874523,1698080881878,\Highly agree\,\Highly agree\,\4\,1698080880766,1698080880766,6243,6243,7355,buq,qns-item-noham,30,312367,0.0-1.0-0.29
"<b>Most new experiences are just like old ones, but a little bit different.",Highly disagree,31/150,Highly agree,4,1698080881883,1698080890470,\Highly agree\,\Highly agree\,\4\,1698080889854,1698080889854,7971,7971,8587,buq,qns-item-noham,31,320959,0.0-1.0-0.30
<b>I think a lot about how to reconcile my beliefs with one another.,Highly disagree,32/150,Highly agree,4,1698080890473,1698080896245,\Highly agree\,\Highly agree\,\4\,1698080895462,1698080895462,4989,4989,5772,buq,qns-item-noham,32,326735,0.0-1.0-0.31
<b>Personal experience rarely leads people astray.,Highly disagree,33/150,Somewhat agree,3,1698080896248,1698080908872,\Somewhat agree\,\Somewhat agree\,\3\,1698080908402,1698080908402,12154,12154,12624,buq,qns-item-noham,33,339361,0.0-1.0-0.32
<b>I might have false beliefs about important topics.,Highly disagree,34/150,Highly agree,4,1698080908874,1698080917081,\Highly agree\,\Highly agree\,\4\,1698080916537,1698080916537,7663,7663,8207,buq,qns-item-noham,34,347570,0.0-1.0-0.33
"<b>If a good friend of mine does something unexpected that upsets me, I feel like I don?t know them anymore.",Highly disagree,35/150,Somewhat agree,3,1698080917083,1698080955072,\Somewhat agree\,\Somewhat agree\,\3\,1698080954392,1698080954392,37309,37309,37989,buq,qns-item-noham,35,385561,0.0-1.0-0.34
<b>Other people?s beliefs are often incoherent.,Highly disagree,36/150,Highly agree,4,1698080955079,1698080958080,\Highly agree\,\Highly agree\,\4\,1698080957488,1698080957488,2409,2409,3001,buq,qns-item-noham,36,388569,0.0-1.0-0.35
<b>It?s important to have friends who think about things differently than I do.,Highly disagree,37/150,Highly agree,4,1698080958084,1698080980986,\Highly agree\,\Highly agree\,\4\,1698080980114,1698080980114,22030,22030,22902,buq,qns-item-noham,37,411475,0.0-1.0-0.36
"<b>Every now and then, a new experience will unsettle beliefs I?ve had for a while.",Highly disagree,38/150,Highly agree,4,1698080980990,1698081006850,\Highly agree\,\Highly agree\,\4\,1698081006162,1698081006162,25172,25172,25860,buq,qns-item-noham,38,437339,0.0-1.0-0.37
<b>Some policies I agree with in principle are so bad I don?t support them. ,Highly disagree,39/150,Highly agree,4,1698081006854,1698081021353,\Highly agree\,\Highly agree\,\4\,1698081020690,1698081020690,13836,13836,14499,buq,qns-item-noham,39,451842,0.0-1.0-0.38
<b>I?m pretty sure I?ve accidentally spread false information.,Highly disagree,40/150,Somewhat agree,3,1698081021356,1698081027110,\Somewhat agree\,\Somewhat agree\,\3\,1698081026373,1698081026373,5017,5017,5754,buq,qns-item-noham,40,457599,0.0-1.0-0.39
"<b>If I go to my favorite restaurant and the food is unexpectedly bad, then they have changed owners.",Highly disagree,41/150,Somewhat agree,3,1698081027117,1698081034069,\Somewhat agree\,\Somewhat agree\,\3\,1698081033502,1698081033502,6385,6385,6952,buq,qns-item-noham,41,464559,0.0-1.0-0.40
"<b>In politics, it?s important to trust your friends and family.",Highly disagree,42/150,Somewhat disagree,2,1698081034075,1698081214830,\Somewhat disagree\,\Somewhat disagree\,\2\,1698081214005,1698081214005,179930,179930,180755,buq,qns-item-noham,42,645319,0.0-1.0-0.41
<b>It?s OK to have some conflicting beliefs.,Highly disagree,43/150,Highly agree,4,1698081214834,1698081227957,\Highly agree\,\Highly agree\,\4\,1698081227150,1698081227150,12316,12316,13123,buq,qns-item-noham,43,658446,0.0-1.0-0.42
<b>Sometimes the details of a matter seem to conflict with the big picture.,Highly disagree,44/150,Highly agree,4,1698081227960,1698081247918,\Highly agree\,\Highly agree\,\4\,1698081246653,1698081246653,18693,18693,19958,buq,qns-item-noham,44,678407,0.0-1.0-0.43
<b>Listening to people I disagree with makes my opinions better.,Highly disagree,45/150,Highly agree,4,1698081247922,1698081254029,\Highly agree\,\Highly agree\,\4\,1698081253117,1698081253117,5195,5195,6107,buq,qns-item-noham,45,684518,0.0-1.0-0.44
<b>Policies that sound bad are sometimes fine when you find out about their details.,Highly disagree,46/150,Highly agree,4,1698081254031,1698081429452,\Highly agree\,\Highly agree\,\4\,1698081428739,1698081428739,174708,174708,175421,buq,qns-item-noham,46,859941,0.0-1.0-0.45
"<b>The world is always changing, so my beliefs are sometimes out-dated.",Highly disagree,47/150,Highly agree,4,1698081429456,1698081436371,\Highly agree\,\Highly agree\,\4\,1698081435476,1698081435476,6020,6020,6915,buq,qns-item-noham,47,866860,0.0-1.0-0.46
"<b>If I receive a bad meal at my favorite restaurant and the food is surprisingly bad, I do not think much of it, and assume the chef is just having an ?off? day.",Highly disagree,48/150,Highly agree,4,1698081436376,1698081447883,\Highly agree\,\Highly agree\,\4\,1698081447259,1698081447259,10883,10883,11507,buq,qns-item-noham,48,878372,0.0-1.0-0.47
"<b>False information is unavoidable, to some extent.",Highly disagree,49/150,Highly agree,4,1698081447885,1698081450949,\Highly agree\,\Highly agree\,\4\,1698081450395,1698081450395,2510,2510,3064,buq,qns-item-noham,49,881438,0.0-1.0-0.48
<b>My moral compass sometimes makes it harder to determine what?s true.,Highly disagree,50/150,Highly agree,4,1698081450954,1698081460205,\Highly agree\,\Highly agree\,\4\,1698081458660,1698081458660,7706,7706,9251,buq,qns-item-noham,50,890694,0.0-1.0-0.49
"<b>When you disagree with someone, it?s important to listen to them carefully.",Highly disagree,51/150,Highly agree,4,1698081460209,1698081469980,\Highly agree\,\Highly agree\,\4\,1698081469309,1698081469309,9100,9100,9771,buq,qns-item-noham,51,900470,0.0-1.0-0.50
<b>Evidence pointing in the wrong direction isn?t really evidence at all.,Highly disagree,52/150,Somewhat agree,3,1698081469983,1698081478901,\Somewhat agree\,\Somewhat agree\,\3\,1698081478084,1698081478084,8101,8101,8918,buq,qns-item-noham,52,909390,0.0-1.0-0.51
"<b>If the political party I support messes up, it makes me think politics is rotten.",Highly disagree,53/150,Highly agree,4,1698081478903,1698081483805,\Highly agree\,\Highly agree\,\4\,1698081483325,1698081483325,4422,4422,4902,buq,qns-item-noham,53,914295,0.0-1.0-0.52
<b>Lots of important topics can only really be understood by some groups of people.,Highly disagree,54/150,Highly agree,4,1698081483811,1698081489717,\Highly agree\,\Highly agree\,\4\,1698081489181,1698081489181,5370,5370,5906,buq,qns-item-noham,54,920206,0.0-1.0-0.53
<b>Details almost always matter for being right about something.,Highly disagree,55/150,Highly agree,4,1698081489719,1698081504845,\Highly agree\,\Highly agree\,\4\,1698081504046,1698081504046,14327,14327,15126,buq,qns-item-noham,55,935334,0.0-1.0-0.54
"<b>The most important thing in politics is winning, not convincing people.",Highly disagree,56/150,Highly disagree,1,1698081504848,1698081587568,\Highly disagree\,\Highly disagree\,\1\,1698081586952,1698081586952,82104,82104,82720,buq,qns-item-noham,56,1018057,0.0-1.0-0.55
<b>Having conflicting beliefs means you haven?t thought about them enough.,Highly disagree,57/150,Highly agree,4,1698081587570,1698081592498,\Highly agree\,\Highly agree\,\4\,1698081591984,1698081591984,4414,4414,4928,buq,qns-item-noham,57,1022987,0.0-1.0-0.56
<b>Other people have sometimes convinced me to change my mind on important topics.,Highly disagree,58/150,Highly agree,4,1698081592503,1698081644470,\Highly agree\,\Highly agree\,\4\,1698081643766,1698081643766,51263,51263,51967,buq,qns-item-noham,58,1074959,0.0-1.0-0.57
<b>I do not often change my political opinions.,Highly disagree,59/150,Highly agree,4,1698081644476,1698081647373,\Highly agree\,\Highly agree\,\4\,1698081646854,1698081646854,2378,2378,2897,buq,qns-item-noham,59,1077862,0.0-1.0-0.58
<b>Thinking about how different things relate to one another is critical in life.,Highly disagree,60/150,Highly agree,4,1698081647376,1698081654709,\Highly agree\,\Highly agree\,\4\,1698081653670,1698081653670,6294,6294,7333,buq,qns-item-noham,60,1085198,0.0-1.0-0.59
<b>True beliefs can have unfortunate implications.,Highly disagree,61/150,Highly agree,4,1698081654714,1698081699341,\Highly agree\,\Highly agree\,\4\,1698081698798,1698081698798,44084,44084,44627,buq,qns-item-noham,61,1129830,0.0-1.0-0.60
<b>It?s difficult to not have at least some conflicting beliefs.,Highly disagree,62/150,Highly agree,4,1698081699343,1698081709045,\Highly agree\,\Highly agree\,\4\,1698081707837,1698081707837,8494,8494,9702,buq,qns-item-noham,62,1139534,0.0-1.0-0.61
"<b>When I learn new things, I think deeply about how my opinions should change.",Highly disagree,63/150,Highly agree,4,1698081709049,1698081715549,\Highly agree\,\Highly agree\,\4\,1698081713925,1698081713925,4876,4876,6500,buq,qns-item-noham,63,1146039,0.0-1.0-0.62
<b>I think a lot about how to interpret different sorts of evidence.,Highly disagree,64/150,Highly agree,4,1698081715554,1698081733965,\Highly agree\,\Highly agree\,\4\,1698081733333,1698081733333,17779,17779,18411,buq,qns-item-noham,64,1164454,0.0-1.0-0.63
<b>Politics is about thinking together and finding compromises.,Highly disagree,65/150,Highly agree,4,1698081733971,1698081745469,\Highly agree\,\Highly agree\,\4\,1698081744477,1698081744477,10506,10506,11498,buq,qns-item-noham,65,1175958,0.0-1.0-0.64
<b>Wishful thinking causes a lot of problems.,Highly disagree,66/150,Somewhat disagree,2,1698081745471,1698081748501,\Somewhat disagree\,\Somewhat disagree\,\2\,1698081748061,1698081748061,2590,2590,3030,buq,qns-item-noham,66,1178990,0.0-1.0-0.65
<b>I judge a food item only once I try it many times.,Highly disagree,67/150,Somewhat agree,3,1698081748503,1698081756492,\Somewhat agree\,\Somewhat agree\,\3\,1698081755982,1698081755982,7479,7479,7989,buq,qns-item-noham,67,1186981,0.0-1.0-0.66
"<b>When a person holds conflicting beliefs, they should really try to figure out what?s wrong.",Highly disagree,68/150,Highly agree,4,1698081756496,1698081762182,\Highly agree\,\Highly agree\,\4\,1698081761477,1698081761477,4981,4981,5686,buq,qns-item-noham,68,1192671,0.0-1.0-0.67
<b>Knowing what?s important in life is easy.,Highly disagree,69/150,Highly agree,4,1698081762186,1698081772897,\Highly agree\,\Highly agree\,\4\,1698081772361,1698081772361,10175,10175,10711,buq,qns-item-noham,69,1203386,0.0-1.0-0.68
<b>Lots of smart people disagree about basic political questions.,Highly disagree,70/150,Highly agree,4,1698081772899,1698081797560,\Highly agree\,\Highly agree\,\4\,1698081789193,1698081796921,16294,24022,24661,buq,qns-item-noham,70,1228049,0.0-1.0-0.69
<b>I swim across the Atlantic Ocean to get to work every day.,Highly disagree,71/150,Highly disagree,1,1698081797563,1698081800840,\Highly disagree\,\Highly disagree\,\1\,1698081799896,1698081799896,2333,2333,3277,buq,qns-item-noham,71,1231330,0.0-1.0-0.70
"<b>Sometimes, you just have to ignore evidence that you know is wrong.",Highly disagree,72/150,Highly agree,4,1698081800844,1698081810340,\Highly agree\,\Highly agree\,\4\,1698081809721,1698081809721,8877,8877,9496,buq,qns-item-noham,72,1240829,0.0-1.0-0.71
<b>I have had some false beliefs.,Highly disagree,73/150,Highly agree,4,1698081810344,1698081812738,\Highly agree\,\Highly agree\,\4\,1698081812281,1698081812281,1937,1937,2394,buq,qns-item-noham,73,1243227,0.0-1.0-0.72
"<b>If one friend does something that upsets me, I sometimes start to distrust people in general.",Highly disagree,74/150,Somewhat agree,3,1698081812740,1698081819323,\Somewhat agree\,\Somewhat agree\,\3\,1698081818913,1698081818913,6173,6173,6583,buq,qns-item-noham,74,1249812,0.0-1.0-0.73
<b>I easily apply what I learn in one situation to another.,Highly disagree,75/150,Somewhat agree,3,1698081819327,1698081824425,\Somewhat agree\,\Somewhat agree\,\3\,1698081823833,1698081823833,4506,4506,5098,buq,qns-item-noham,75,1254914,0.0-1.0-0.74
<b>The facts about most important matters are easy to find.,Highly disagree,76/150,Somewhat agree,3,1698081824430,1698081830409,\Somewhat agree\,\Somewhat agree\,\3\,1698081829889,1698081829889,5459,5459,5979,buq,qns-item-noham,76,1260898,0.0-1.0-0.75
<b>It?s better to know what?s true than to know what?s moral.,Highly disagree,77/150,Highly agree,4,1698081830414,1698081838046,\Highly agree\,\Highly agree\,\4\,1698081837158,1698081837158,6744,6744,7632,buq,qns-item-noham,77,1268535,0.0-1.0-0.76
<b>It?s good to be skeptical of people you agree with.,Highly disagree,78/150,Highly agree,4,1698081838051,1698081880669,\Highly agree\,\Highly agree\,\4\,1698081877910,1698081877910,39859,39859,42618,buq,qns-item-noham,78,1311158,0.0-1.0-0.77
<b>Sometimes reasonable beliefs are wrong.,Highly disagree,79/150,Highly agree,4,1698081880672,1698081885677,\Highly agree\,\Highly agree\,\4\,1698081884694,1698081884694,4022,4022,5005,buq,qns-item-noham,79,1316166,0.0-1.0-0.78
<b>I used to think the world was less complicated than I do now.,Highly disagree,80/150,Highly agree,4,1698081885680,1698081894584,\Highly agree\,\Highly agree\,\4\,1698081893999,1698081893999,8319,8319,8904,buq,qns-item-noham,80,1325073,0.0-1.0-0.79
<b>People are usually completely right or completely wrong.,Highly disagree,81/150,Highly agree,4,1698081894587,1698081900849,\Highly agree\,\Highly agree\,\4\,1698081897968,1698081897968,3381,3381,6262,buq,qns-item-noham,81,1331338,0.0-1.0-0.80
<b>I spend a lot of time considering alternatives to my beliefs.,Highly disagree,82/150,Highly agree,4,1698081900853,1698081918377,\Highly agree\,\Highly agree\,\4\,1698081916682,1698081916682,15829,15829,17524,buq,qns-item-noham,82,1348866,0.0-1.0-0.81
"<b>Political enemies need to be defeated, not convinced.",Highly disagree,83/150,Highly agree,4,1698081918382,1698081924903,\Highly agree\,\Highly agree\,\4\,1698081924176,1698081924176,5794,5794,6521,buq,qns-item-noham,83,1355392,0.0-1.0-0.82
"<b>When forming an opinion about a restaurant, I am more swayed by my  latest meal there than  previous meals I?ve had there.",Highly disagree,84/150,Somewhat disagree,2,1698081924907,1698081936025,\Highly agree\,\Somewhat disagree\,\4\,1698081933136,1698081935464,8229,10557,11118,buq,qns-item-noham,84,1366514,0.0-1.0-0.83
<b>I try to remain skeptical about most topics.,Highly disagree,85/150,Highly agree,4,1698081936029,1698081939472,\Highly agree\,\Highly agree\,\4\,1698081938944,1698081938944,2915,2915,3443,buq,qns-item-noham,85,1369961,0.0-1.0-0.84
<b>Being wrong is usually obvious in retrospect.,Highly disagree,86/150,Highly agree,4,1698081939478,1698081944400,\Highly agree\,\Highly agree\,\4\,1698081942176,1698081942176,2698,2698,4922,buq,qns-item-noham,86,1374889,0.0-1.0-0.85
<b>It can be hard to realize that my beliefs are in conflict.,Highly disagree,87/150,Highly agree,4,1698081944404,1698081953373,\Highly agree\,\Highly agree\,\4\,1698081950841,1698081952684,6437,8280,8969,buq,qns-item-noham,87,1383862,0.0-1.0-0.86
<b>I form my political views only after meticulously gathering historical and present information about their policies.,Highly disagree,88/150,Highly agree,4,1698081953377,1698081962292,\Highly agree\,\Highly agree\,\4\,1698081961717,1698081961717,8340,8340,8915,buq,qns-item-noham,88,1392781,0.0-1.0-0.87
<b>Skeptical people are usually just bad-tempered.,Highly disagree,89/150,Highly agree,4,1698081962294,1698081969437,\Highly agree\,\Highly agree\,\4\,1698081966717,1698081966717,4423,4423,7143,buq,qns-item-noham,89,1399926,0.0-1.0-0.88
<b>It is difficult for me to remember the last time I was surprised by politics.,Highly disagree,90/150,Highly agree,4,1698081969441,1698082064309,\Highly agree\,\Highly agree\,\4\,1698081973213,1698082062636,3772,93195,94868,buq,qns-item-noham,90,1494798,0.0-1.0-0.89
"<b>When I find out I?m wrong, I think a lot about my related beliefs.",Highly disagree,91/150,Highly agree,4,1698082064314,1698082067662,\Highly agree\,\Highly agree\,\4\,1698082066684,1698082066684,2370,2370,3348,buq,qns-item-noham,91,1498151,0.0-1.0-0.90
"<b>If the political party I support messes up, it makes me think you can?t trust anyone these days",Highly disagree,92/150,Highly agree,4,1698082067667,1698082073707,\Highly agree\,\Highly agree\,\4\,1698082073132,1698082073132,5465,5465,6040,buq,qns-item-noham,92,1504196,0.0-1.0-0.91
<b>People?s brains turn off when they talk about politics.,Highly disagree,93/150,Highly agree,4,1698082073721,1698082079490,\Highly agree\,\Highly agree\,\4\,1698082078699,1698082078699,4978,4978,5769,buq,qns-item-noham,93,1509979,0.0-1.0-0.92
<b>People who are wrong are usually just ignoring the obvious.,Highly disagree,94/150,Highly agree,4,1698082079493,1698082082835,\Highly agree\,\Highly agree\,\4\,1698082082315,1698082082315,2822,2822,3342,buq,qns-item-noham,94,1513324,0.0-1.0-0.93
"<b>The world isn?t that complicated, but it?s still hard to figure out how it works.",Highly disagree,95/150,Somewhat agree,3,1698082082837,1698082087580,\Highly agree\,\Somewhat agree\,\4\,1698082085674,1698082086851,2837,4014,4743,buq,qns-item-noham,95,1518069,0.0-1.0-0.94
"<b>When forming my views on people, I rely more on what they are like now rather than rely on my past experience with them.",Highly disagree,96/150,Highly agree,4,1698082087584,1698082104651,\Highly agree\,\Highly agree\,\4\,1698082103195,1698082103195,15611,15611,17067,buq,qns-item-noham,96,1535140,0.0-1.0-0.95
"<b>When people contradict my beliefs, I usually know about their evidence already.",Highly disagree,97/150,Highly agree,4,1698082104655,1698082117098,\Highly agree\,\Highly agree\,\4\,1698082116259,1698082116259,11604,11604,12443,buq,qns-item-noham,97,1547587,0.0-1.0-0.96
<b>Being wrong is a matter of degree.,Highly disagree,98/150,Somewhat disagree,2,1698082117101,1698082122043,\Somewhat disagree\,\Somewhat disagree\,\2\,1698082121123,1698082121123,4022,4022,4942,buq,qns-item-noham,98,1552532,0.0-1.0-0.97
<b>Figuring out what?s true and what?s false mainly requires a strong moral compass.,Highly disagree,99/150,Somewhat disagree,2,1698082122046,1698082131522,\Somewhat disagree\,\Somewhat disagree\,\2\,1698082130499,1698082130499,8453,8453,9476,buq,qns-item-noham,99,1562011,0.0-1.0-0.98
<b>Most of the beliefs people have are at least somewhat understandable.,Highly disagree,100/150,Highly agree,4,1698082131525,1698082140268,\Highly agree\,\Highly agree\,\4\,1698082139725,1698082139725,8200,8200,8743,buq,qns-item-noham,100,1570757,0.0-1.0-0.99
"<b>Usually I?m wrong about simple things, not complicated ones.",Highly disagree,101/150,Highly agree,4,1698082140270,1698082183190,\Highly agree\,\Highly agree\,\4\,1698082182582,1698082182582,42312,42312,42920,buq,qns-item-noham,101,1613679,0.0-1.0-0.100
<b>Getting all the information I want about important things is hard.,Highly disagree,102/150,Highly agree,4,1698082183196,1698082198236,\Highly agree\,\Highly agree\,\4\,1698082197581,1698082197581,14385,14385,15040,buq,qns-item-noham,102,1628725,0.0-1.0-0.101
<b>Most false beliefs spread because people try to deceive one another.,Highly disagree,103/150,Highly agree,4,1698082198239,1698082212229,\Highly agree\,\Highly agree\,\4\,1698082207253,1698082207253,9014,9014,13990,buq,qns-item-noham,103,1642718,0.0-1.0-0.102
<b>I can usually find something to agree with in most people?s beliefs.,Highly disagree,104/150,Somewhat agree,3,1698082212234,1698082227548,\Somewhat agree\,\Somewhat agree\,\3\,1698082227071,1698082227071,14837,14837,15314,buq,qns-item-noham,104,1658037,0.0-1.0-0.103
<b>I only form my views of people once I get to know them very well.,Highly disagree,105/150,Somewhat agree,3,1698082227551,1698082306200,\Somewhat agree\,\Somewhat agree\,\3\,1698082305791,1698082305791,78240,78240,78649,buq,qns-item-noham,105,1736689,0.0-1.0-0.104
"<b>When people tell me important things about the world, I usually believe them.",Highly disagree,106/150,Somewhat disagree,2,1698082306202,1698082311598,\Somewhat disagree\,\Somewhat disagree\,\2\,1698082311126,1698082311126,4924,4924,5396,buq,qns-item-noham,106,1742087,0.0-1.0-0.105
"<b>If a friend does something that upsets me, it reminds me what an unpredictable place the world is.",Highly disagree,107/150,Highly agree,4,1698082311601,1698082316919,\Highly agree\,\Highly agree\,\4\,1698082316463,1698082316463,4862,4862,5318,buq,qns-item-noham,107,1747408,0.0-1.0-0.106
<b>Having some conflicting beliefs is inevitable.,Highly disagree,108/150,Highly agree,4,1698082316923,1698082321249,\Highly agree\,\Highly agree\,\4\,1698082320695,1698082320695,3772,3772,4326,buq,qns-item-noham,108,1751738,0.0-1.0-0.107
<b>People are wrong because they haven?t thought much about things.,Highly disagree,109/150,Highly agree,4,1698082321253,1698082374801,\Highly agree\,\Highly agree\,\4\,1698082374209,1698082374209,52956,52956,53548,buq,qns-item-noham,109,1805290,0.0-1.0-0.108
<b>People tend to believe whatever is good for their friends.,Highly disagree,110/150,Highly agree,4,1698082374806,1698082481172,\Highly agree\,\Highly agree\,\4\,1698082480596,1698082480596,105790,105790,106366,buq,qns-item-noham,110,1911661,0.0-1.0-0.109
"<b>When I talk about important topics, I try to make sure people know I?m not always right.",Highly disagree,111/150,Highly agree,4,1698082481179,1698082487647,\Highly agree\,\Highly agree\,\4\,1698082487132,1698082487132,5953,5953,6468,buq,qns-item-noham,111,1918136,0.0-1.0-0.110
<b>I used to be more certain my beliefs were true.,Highly disagree,112/150,Highly agree,4,1698082487651,1698082493013,\Highly agree\,\Highly agree\,\4\,1698082492580,1698082492580,4929,4929,5362,buq,qns-item-noham,112,1923502,0.0-1.0-0.111
<b>It?s often pretty easy to figure out whether something is true based on who said it.,Highly disagree,113/150,Somewhat disagree,2,1698082493018,1698082503636,\Highly agree\,\Somewhat disagree\,\4\,1698082499996,1698082503116,6978,10098,10618,buq,qns-item-noham,113,1934125,0.0-1.0-0.112
<b>Having bad food in my favorite restaurant will make me think the restaurant is no longer good.,Highly disagree,114/150,Somewhat agree,3,1698082503642,1698082516467,\Somewhat disagree\,\Somewhat agree\,\2\,1698082514627,1698082515331,10985,11689,12825,buq,qns-item-noham,114,1946957,0.0-1.0-0.113
<b>I transform into a hummingbird every day.,Highly disagree,115/150,Highly disagree,1,1698082516472,1698082520179,\Highly disagree\,\Highly disagree\,\1\,1698082519667,1698082519667,3195,3195,3707,buq,qns-item-noham,115,1950668,0.0-1.0-0.114
"<b>Unfortunately, when people are wrong, it?s usually because they?re bad.",Highly disagree,116/150,Somewhat disagree,2,1698082520182,1698082532757,\Somewhat disagree\,\Somewhat disagree\,\2\,1698082531924,1698082531924,11742,11742,12575,buq,qns-item-noham,116,1963246,0.0-1.0-0.115
<b>I think a lot about arguments against my views.,Highly disagree,117/150,Somewhat agree,3,1698082532760,1698082545580,\Somewhat agree\,\Somewhat agree\,\3\,1698082542388,1698082542388,9628,9628,12820,buq,qns-item-noham,117,1976070,0.0-1.0-0.116
<b>Details tend to matter a lot for knowing whether a policy is good.,Highly disagree,118/150,Highly agree,4,1698082545585,1698082552243,\Highly agree\,\Highly agree\,\4\,1698082551858,1698082551858,6273,6273,6658,buq,qns-item-noham,118,1982732,0.0-1.0-0.117
<b>Personal experience is usually more important than facts and figures.,Highly disagree,119/150,Somewhat agree,3,1698082552248,1698082559627,\Somewhat agree\,\Somewhat agree\,\3\,1698082558876,1698082558876,6628,6628,7379,buq,qns-item-noham,119,1990116,0.0-1.0-0.118
<b>I?ve been tricked before about important matters.,Highly disagree,120/150,Highly agree,4,1698082559632,1698082562939,\Highly agree\,\Highly agree\,\4\,1698082562173,1698082562411,2541,2779,3307,buq,qns-item-noham,120,1993428,0.0-1.0-0.119
<b>I would need to be totally wowed if I were to change my opinion of a restaurant I don?t like.,Highly disagree,121/150,Highly agree,4,1698082562942,1698082570116,\Highly agree\,\Highly agree\,\4\,1698082569604,1698082569604,6662,6662,7174,buq,qns-item-noham,121,2000605,0.0-1.0-0.120
<b>I care a lot about politics.,Highly disagree,122/150,Highly disagree,1,1698082570123,1698082572876,\Highly disagree\,\Highly disagree\,\1\,1698082571651,1698082571651,1528,1528,2753,buq,qns-item-noham,122,2003365,0.0-1.0-0.121
<b>People with conflicting beliefs usually have some facts they disagree on.,Highly disagree,123/150,Somewhat agree,3,1698082572880,1698082577633,\Somewhat agree\,\Somewhat agree\,\3\,1698082577217,1698082577217,4337,4337,4753,buq,qns-item-noham,123,2008122,0.0-1.0-0.122
<b>There are some topics I?ve been really wrong about.,Highly disagree,124/150,Highly disagree,1,1698082577638,1698082582203,\Highly disagree\,\Highly disagree\,\1\,1698082581737,1698082581737,4099,4099,4565,buq,qns-item-noham,124,2012692,0.0-1.0-0.123
<b>Most beliefs can be supported with at least some evidence.,Highly disagree,125/150,Somewhat agree,3,1698082582206,1698082585657,\Somewhat agree\,\Somewhat agree\,\3\,1698082585257,1698082585257,3051,3051,3451,buq,qns-item-noham,125,2016146,0.0-1.0-0.124
<b>Other people make life out to be more complicated than it really is.,Highly disagree,126/150,Highly agree,4,1698082585661,1698082598657,\Highly agree\,\Highly agree\,\4\,1698082598161,1698082598161,12500,12500,12996,buq,qns-item-noham,126,2029146,0.0-1.0-0.125
"<b>My political views are being shaped continuously as I gather more information, rather than relying on what I?ve known to be true of my party in the past. ",Highly disagree,127/150,Highly agree,4,1698082598660,1698082611634,\Highly agree\,\Highly agree\,\4\,1698082611233,1698082611233,12573,12573,12974,buq,qns-item-noham,127,2042123,0.0-1.0-0.126
<b>It?s pretty unusual for true things to seem false.,Highly disagree,128/150,Somewhat disagree,2,1698082611639,1698082622618,\Highly agree\,\Somewhat disagree\,\4\,1698082619417,1698082621713,7778,10074,10979,buq,qns-item-noham,128,2053107,0.0-1.0-0.127
"<b>Policy details don?t matter much, just the big picture.",Highly disagree,129/150,Somewhat disagree,2,1698082622622,1698082633049,\Somewhat agree\,\Somewhat disagree\,\3\,1698082629065,1698082632184,6443,9562,10427,buq,qns-item-noham,129,2063538,0.0-1.0-0.128
<b>I know my friends so well they can hardly ever surprise me.,Highly disagree,130/150,Somewhat agree,3,1698082633053,1698082637813,\Somewhat agree\,\Somewhat agree\,\3\,1698082637061,1698082637061,4008,4008,4760,buq,qns-item-noham,130,2068302,0.0-1.0-0.129
"<b>When I talk to people, I often think about why they have the beliefs they do.",Highly disagree,131/150,Highly agree,4,1698082637819,1698082644909,\Highly agree\,\Highly agree\,\4\,1698082644229,1698082644229,6410,6410,7090,buq,qns-item-noham,131,2075398,0.0-1.0-0.130
<b>I do not often change my views on people.,Highly disagree,132/150,Highly agree,4,1698082644912,1698082652262,\Highly agree\,\Highly agree\,\4\,1698082649045,1698082649045,4133,4133,7350,buq,qns-item-noham,132,2082751,0.0-1.0-0.131
<b>I often wish I had more time to spend figuring out what?s true and what?s false in life.,Highly disagree,133/150,Highly agree,4,1698082652267,1698082661109,\Highly agree\,\Highly agree\,\4\,1698082660613,1698082660613,8346,8346,8842,buq,qns-item-noham,133,2091598,0.0-1.0-0.132
<b>I?m more certain about my beliefs than I used to be.,Highly disagree,134/150,Highly agree,4,1698082661111,1698082666477,\Highly agree\,\Highly agree\,\4\,1698082665486,1698082665486,4375,4375,5366,buq,qns-item-noham,134,2096966,0.0-1.0-0.133
"<b>Whenever I find out new information, I update my views on politics accordingly.",Highly disagree,135/150,Somewhat agree,3,1698082666482,1698082673061,\Somewhat agree\,\Somewhat agree\,\3\,1698082672381,1698082672381,5899,5899,6579,buq,qns-item-noham,135,2103550,0.0-1.0-0.134
<b>People often tell falsehoods unintentionally.,Highly disagree,136/150,Highly agree,4,1698082673063,1698082679413,\Highly agree\,\Highly agree\,\4\,1698082679013,1698082679013,5950,5950,6350,buq,qns-item-noham,136,2109902,0.0-1.0-0.135
<b>Most people don?t know much about most things.,Highly disagree,137/150,Highly agree,4,1698082679420,1698082682645,\Highly agree\,\Highly agree\,\4\,1698082681869,1698082681869,2449,2449,3225,buq,qns-item-noham,137,2113134,0.0-1.0-0.136
"<b>If I find out something new about someone, I easily change my views about them.",Highly disagree,138/150,Somewhat agree,3,1698082682647,1698082692549,\Somewhat agree\,\Somewhat agree\,\3\,1698082691693,1698082691693,9046,9046,9902,buq,qns-item-noham,138,2123038,0.0-1.0-0.137
<b>Having true beliefs is difficult.,Highly disagree,139/150,Highly agree,4,1698082692553,1698082697284,\Highly agree\,\Highly agree\,\4\,1698082696810,1698082696810,4257,4257,4731,buq,qns-item-noham,139,2127773,0.0-1.0-0.138
<b>I don?t try new foods since I know I won?t like them.,Highly disagree,140/150,Highly disagree,1,1698082697289,1698082713618,\Highly disagree\,\Highly disagree\,\1\,1698082713090,1698082713090,15801,15801,16329,buq,qns-item-noham,140,2144107,0.0-1.0-0.139
<b>It?s easy to figure out what?s true or false based on who?s saying it.,Highly disagree,141/150,Somewhat agree,3,1698082713621,1698082741331,\Somewhat agree\,\Somewhat agree\,\3\,1698082740715,1698082740715,27094,27094,27710,buq,qns-item-noham,141,2171820,0.0-1.0-0.140
<b>False things have seemed true to me many times.,Highly disagree,142/150,Somewhat disagree,2,1698082741334,1698082749659,\Somewhat agree\,\Somewhat disagree\,\3\,1698082745699,1698082748003,4365,6669,8325,buq,qns-item-noham,142,2180148,0.0-1.0-0.141
<b>It?s pretty easy to sort out what?s true and what?s false in life.,Highly disagree,143/150,Somewhat agree,3,1698082749665,1698082754364,\Somewhat agree\,\Somewhat agree\,\3\,1698082753955,1698082753955,4290,4290,4699,buq,qns-item-noham,143,2184853,0.0-1.0-0.142
<b>Knowing lots of statistics about something is usually important for understanding it.,Highly disagree,144/150,Somewhat agree,3,1698082754367,1698082758868,\Somewhat agree\,\Somewhat agree\,\3\,1698082758317,1698082758317,3950,3950,4501,buq,qns-item-noham,144,2189357,0.0-1.0-0.143
<b>Other people trick each other a lot.,Highly disagree,145/150,Highly agree,4,1698082758872,1698082761853,\Highly agree\,\Highly agree\,\4\,1698082761173,1698082761173,2301,2301,2981,buq,qns-item-noham,145,2192342,0.0-1.0-0.144
<b>I would need to learn a lot about a person for my opinion of them to be swayed.,Highly disagree,146/150,Highly agree,4,1698082761856,1698082782222,\Highly agree\,\Highly agree\,\4\,1698082776398,1698082776398,14542,14542,20366,buq,qns-item-noham,146,2212711,0.0-1.0-0.145
<b>People can?t usually trick me when it comes to topics I care about.,Highly disagree,147/150,Highly agree,4,1698082782226,1698082815149,\Highly agree\,\Highly agree\,\4\,1698082790565,1698082814799,8339,32573,32923,buq,qns-item-noham,147,2245639,0.0-1.0-0.146
<b>I do not often change my views on food.,Highly disagree,148/150,Highly agree,4,1698082815154,1698082818467,\Highly agree\,\Highly agree\,\4\,1698082817651,1698082817651,2497,2497,3313,buq,qns-item-noham,148,2248956,0.0-1.0-0.147
<b>Specific policies are often very important to me.,Highly disagree,149/150,Highly agree,4,1698082818469,1698082825395,\Highly agree\,\Highly agree\,\4\,1698082824707,1698082824707,6238,6238,6926,buq,qns-item-noham,149,2255884,0.0-1.0-0.148
<b>Most people are woefully under-informed.,Highly disagree,150/150,Highly agree,4,1698082825400,1698082836436,\Highly agree\,\Highly agree\,\4\,1698082834850,1698082834850,9450,9450,11036,buq,qns-item-noham,150,2266925,0.0-1.0-0.149
