Question,qns_options,quest_num,answer,answer_num,question_load_timestamp,next_btn_timestamp,text_selected,final_text_selected,option_num_selected,preview_timestamps,final_text_selected_time_stamp,rt_first_option_click,rt_final_option_click,rt_submit_click,questionnaire,trial_type,trial_index,time_elapsed,internal_node_id
<b>Considering other people?s perspectives can help us figure out what?s true or false.,Highly disagree,1/150,Highly agree,4,1698176793379,1698176798823,\Highly agree\,\Highly agree\,\4\,1698176797619,1698176797619,4240,4240,5444,buq,qns-item-noham,1,15822,0.0-1.0-0.0
<b>Knowing what?s true and knowing what to do about it are usually basically the same.,Highly disagree,2/150,Highly disagree,1,1698176798830,1698176805072,\Highly disagree\,\Highly disagree\,\1\,1698176804159,1698176804159,5329,5329,6242,buq,qns-item-noham,2,22071,0.0-1.0-0.1
<b>Most people just believe whatever is convenient for them.,Highly disagree,3/150,Somewhat agree,3,1698176805086,1698176809186,\Somewhat agree\,\Somewhat agree\,\3\,1698176808411,1698176808411,3325,3325,4100,buq,qns-item-noham,3,26185,0.0-1.0-0.2
<b>Even people who are wrong about most things can be right sometimes.,Highly disagree,4/150,Highly agree,4,1698176809201,1698176814722,\Highly agree\,\Highly agree\,\4\,1698176812516,1698176812516,3315,3315,5521,buq,qns-item-noham,4,31722,0.0-1.0-0.3
"<b>If the political party I support does something that upsets me, then the party may have changed, and I need to re-evaluate my support.",Highly disagree,5/150,Somewhat agree,3,1698176814730,1698176907541,\Somewhat agree\,\Somewhat agree\,\3\,1698176906689,1698176906689,91959,91959,92811,buq,qns-item-noham,5,124540,0.0-1.0-0.4
"<b>When people disagree, one side is usually completely right.",Highly disagree,6/150,Highly disagree,1,1698176907547,1698176913065,\Highly disagree\,\Highly disagree\,\1\,1698176912180,1698176912180,4633,4633,5518,buq,qns-item-noham,6,130065,0.0-1.0-0.5
<b>People have lots of false beliefs.,Highly disagree,7/150,Somewhat agree,3,1698176913076,1698176916717,\Somewhat agree\,\Somewhat agree\,\3\,1698176915745,1698176915745,2669,2669,3641,buq,qns-item-noham,7,133716,0.0-1.0-0.6
<b>Having some big beliefs helps me sort out minor ones.,Highly disagree,8/150,Somewhat agree,3,1698176916724,1698176998136,\Somewhat agree\,\Somewhat agree\,\3\,1698176997411,1698176997411,80687,80687,81412,buq,qns-item-noham,8,215135,0.0-1.0-0.7
<b>Political questions are usually pretty complicated.,Highly disagree,9/150,Somewhat agree,3,1698176998143,1698177001908,\Somewhat agree\,\Somewhat agree\,\3\,1698177001135,1698177001135,2992,2992,3765,buq,qns-item-noham,9,218907,0.0-1.0-0.8
<b>Figuring out what?s important in life requires learning a lot of facts.,Highly disagree,10/150,Highly agree,4,1698177001913,1698177007738,\Highly agree\,\Highly agree\,\4\,1698177006775,1698177006775,4862,4862,5825,buq,qns-item-noham,10,224737,0.0-1.0-0.9
<b>It is difficult for me to remember the last time I was surprised by politics.,Highly disagree,11/150,Highly disagree,1,1698177007744,1698177013447,\Highly disagree\,\Highly disagree\,\1\,1698177012534,1698177012534,4790,4790,5703,buq,qns-item-noham,11,230447,0.0-1.0-0.10
<b>People?s false beliefs are understandable.,Highly disagree,12/150,Highly agree,4,1698177013453,1698177017711,\Highly agree\,\Highly agree\,\4\,1698177015990,1698177015990,2537,2537,4258,buq,qns-item-noham,12,234710,0.0-1.0-0.11
<b>I spend a lot of time trying to be informed about politics.,Highly disagree,13/150,Highly agree,4,1698177017717,1698177025002,\Highly agree\,\Highly agree\,\4\,1698177023372,1698177023372,5655,5655,7285,buq,qns-item-noham,13,242001,0.0-1.0-0.12
<b>I think a lot about whether my beliefs are right.,Highly disagree,14/150,Highly agree,4,1698177025010,1698177029003,\Highly agree\,\Highly agree\,\4\,1698177028070,1698177028070,3060,3060,3993,buq,qns-item-noham,14,246002,0.0-1.0-0.13
<b>Statistics can be pretty misleading sometimes.,Highly disagree,15/150,Highly disagree,1,1698177029008,1698177033961,\Highly disagree\,\Highly disagree\,\1\,1698177032045,1698177032045,3037,3037,4953,buq,qns-item-noham,15,250960,0.0-1.0-0.14
<b>Figuring out what?s true and what?s false takes a lot of time and effort.,Highly disagree,16/150,Highly agree,4,1698177033968,1698177038250,\Highly agree\,\Highly agree\,\4\,1698177037379,1698177037379,3411,3411,4282,buq,qns-item-noham,16,255249,0.0-1.0-0.15
"<b>If a friend does something bad to me, it was likely an error on their part.",Highly disagree,17/150,Somewhat disagree,2,1698177038255,1698177042214,\Somewhat disagree\,\Somewhat disagree\,\2\,1698177041420,1698177041420,3165,3165,3959,buq,qns-item-noham,17,259213,0.0-1.0-0.16
<b>I have lots of beliefs that I?m only sort of sure about.,Highly disagree,18/150,Highly agree,4,1698177042224,1698177048323,\Highly agree\,\Highly agree\,\4\,1698177047282,1698177047282,5058,5058,6099,buq,qns-item-noham,18,265322,0.0-1.0-0.17
"<b>If I go to my favorite restaurant and the food is surprisingly bad, it reminds me there are many disappointments in life.",Highly disagree,19/150,Highly agree,4,1698177048328,1698177054016,\Highly agree\,\Highly agree\,\4\,1698177053232,1698177053232,4904,4904,5688,buq,qns-item-noham,19,271015,0.0-1.0-0.18
<b>Sometimes my beliefs are inconvenient for me.,Highly disagree,20/150,Highly agree,4,1698177054021,1698177057433,\Highly agree\,\Highly agree\,\4\,1698177056331,1698177056331,2310,2310,3412,buq,qns-item-noham,20,274432,0.0-1.0-0.19
<b>Paying attention to multiple news sources is important.,Highly disagree,21/150,Somewhat agree,3,1698177057441,1698177060562,\Somewhat agree\,\Somewhat agree\,\3\,1698177059758,1698177059758,2317,2317,3121,buq,qns-item-noham,21,277561,0.0-1.0-0.20
"<b>If you are paying attention, please select ?Somewhat agree?",Highly disagree,22/150,Somewhat agree,3,1698177060567,1698177064536,\Somewhat agree\,\Somewhat agree\,\3\,1698177063384,1698177063384,2817,2817,3969,buq,qns-item-noham,22,281535,0.0-1.0-0.21
"<b>When I talk to others, I often worry I?ll convince them of something I didn?t mean to.",Highly disagree,23/150,Highly agree,4,1698177064542,1698177069273,\Highly agree\,\Highly agree\,\4\,1698177068350,1698177068350,3808,3808,4731,buq,qns-item-noham,23,286272,0.0-1.0-0.22
<b>I would need to learn something utterly shocking about my party in order to change my political views.,Highly disagree,24/150,Highly agree,4,1698177069283,1698177076994,\Highly agree\,\Highly agree\,\4\,1698177076219,1698177076219,6936,6936,7711,buq,qns-item-noham,24,293993,0.0-1.0-0.23
"<b>When I have new experiences, I tend to think of them as unique.",Highly disagree,25/150,Highly agree,4,1698177076999,1698177080618,\Highly agree\,\Highly agree\,\4\,1698177079755,1698177079755,2756,2756,3619,buq,qns-item-noham,25,297617,0.0-1.0-0.24
<b>Reading lots of things is important for understanding the world.,Highly disagree,26/150,Highly agree,4,1698177080624,1698177083768,\Highly agree\,\Highly agree\,\4\,1698177082995,1698177082995,2371,2371,3144,buq,qns-item-noham,26,300767,0.0-1.0-0.25
<b>The world is complicated.,Highly disagree,27/150,Highly agree,4,1698177083773,1698177086352,\Highly agree\,\Highly agree\,\4\,1698177085279,1698177085279,1506,1506,2579,buq,qns-item-noham,27,303351,0.0-1.0-0.26
<b>I change my mind about specific policies pretty frequently.,Highly disagree,28/150,Somewhat agree,3,1698177086357,1698177091350,\Highly agree\,\Somewhat agree\,\4\,1698177088846,1698177090286,2489,3929,4993,buq,qns-item-noham,28,308349,0.0-1.0-0.27
"<b>If a politician in my political party supports something I disagree with, I give them the benefit of the doubt, as such issues often involve hidden complexities that aren?t obvious.   ",Highly disagree,29/150,Highly agree,4,1698177091356,1698177104332,\Highly agree\,\Highly agree\,\4\,1698177103400,1698177103400,12044,12044,12976,buq,qns-item-noham,29,321332,0.0-1.0-0.28
<b>People?s bad politics are usually motivated by hatefulness.,Highly disagree,30/150,Somewhat agree,3,1698177104338,1698177108386,\Somewhat agree\,\Somewhat agree\,\3\,1698177107532,1698177107532,3194,3194,4048,buq,qns-item-noham,30,325385,0.0-1.0-0.29
"<b>Most new experiences are just like old ones, but a little bit different.",Highly disagree,31/150,Somewhat agree,3,1698177108390,1698177112627,\Somewhat agree\,\Somewhat agree\,\3\,1698177111864,1698177111864,3474,3474,4237,buq,qns-item-noham,31,329627,0.0-1.0-0.30
<b>I think a lot about how to reconcile my beliefs with one another.,Highly disagree,32/150,Highly agree,4,1698177112632,1698177118051,\Highly agree\,\Highly agree\,\4\,1698177117267,1698177117267,4635,4635,5419,buq,qns-item-noham,32,335050,0.0-1.0-0.31
<b>Personal experience rarely leads people astray.,Highly disagree,33/150,Highly disagree,1,1698177118057,1698177124745,\Highly disagree\,\Highly disagree\,\1\,1698177123823,1698177123823,5766,5766,6688,buq,qns-item-noham,33,341744,0.0-1.0-0.32
<b>I might have false beliefs about important topics.,Highly disagree,34/150,Highly agree,4,1698177124751,1698177128550,\Highly agree\,\Highly agree\,\4\,1698177127528,1698177127528,2777,2777,3799,buq,qns-item-noham,34,345549,0.0-1.0-0.33
"<b>If a good friend of mine does something unexpected that upsets me, I feel like I don?t know them anymore.",Highly disagree,35/150,Highly agree,4,1698177128556,1698177134529,\Highly agree\,\Highly agree\,\4\,1698177133517,1698177133517,4961,4961,5973,buq,qns-item-noham,35,351529,0.0-1.0-0.34
<b>Other people?s beliefs are often incoherent.,Highly disagree,36/150,Highly disagree,1,1698177134535,1698177138722,\Highly disagree\,\Highly disagree\,\1\,1698177137889,1698177137889,3354,3354,4187,buq,qns-item-noham,36,355721,0.0-1.0-0.35
<b>It?s important to have friends who think about things differently than I do.,Highly disagree,37/150,Highly agree,4,1698177138727,1698177143759,\Highly agree\,\Highly agree\,\4\,1698177142736,1698177142736,4009,4009,5032,buq,qns-item-noham,37,360758,0.0-1.0-0.36
"<b>Every now and then, a new experience will unsettle beliefs I?ve had for a while.",Highly disagree,38/150,Highly agree,4,1698177143767,1698177148368,\Highly agree\,\Highly agree\,\4\,1698177147405,1698177147405,3638,3638,4601,buq,qns-item-noham,38,365368,0.0-1.0-0.37
<b>Some policies I agree with in principle are so bad I don?t support them. ,Highly disagree,39/150,Somewhat disagree,2,1698177148377,1698177157081,\Somewhat disagree\,\Somewhat disagree\,\2\,1698177155522,1698177155522,7145,7145,8704,buq,qns-item-noham,39,374080,0.0-1.0-0.38
<b>I?m pretty sure I?ve accidentally spread false information.,Highly disagree,40/150,Highly agree,4,1698177157087,1698177161492,\Highly agree\,\Highly agree\,\4\,1698177160181,1698177160181,3094,3094,4405,buq,qns-item-noham,40,378491,0.0-1.0-0.39
"<b>If I go to my favorite restaurant and the food is unexpectedly bad, then they have changed owners.",Highly disagree,41/150,Highly disagree,1,1698177161496,1698177166132,\Highly disagree\,\Highly disagree\,\1\,1698177165118,1698177165118,3622,3622,4636,buq,qns-item-noham,41,383131,0.0-1.0-0.40
"<b>In politics, it?s important to trust your friends and family.",Highly disagree,42/150,Highly disagree,1,1698177166141,1698177169678,\Highly disagree\,\Highly disagree\,\1\,1698177168844,1698177168844,2703,2703,3537,buq,qns-item-noham,42,386677,0.0-1.0-0.41
<b>It?s OK to have some conflicting beliefs.,Highly disagree,43/150,Highly agree,4,1698177169683,1698177172439,\Highly agree\,\Highly agree\,\4\,1698177171664,1698177171664,1981,1981,2756,buq,qns-item-noham,43,389438,0.0-1.0-0.42
<b>Sometimes the details of a matter seem to conflict with the big picture.,Highly disagree,44/150,Highly agree,4,1698177172445,1698177176125,\Highly agree\,\Highly agree\,\4\,1698177175092,1698177175092,2647,2647,3680,buq,qns-item-noham,44,393124,0.0-1.0-0.43
<b>Listening to people I disagree with makes my opinions better.,Highly disagree,45/150,Highly agree,4,1698177176131,1698177185037,\Highly agree\,\Highly agree\,\4\,1698177183984,1698177183984,7853,7853,8906,buq,qns-item-noham,45,402036,0.0-1.0-0.44
<b>Policies that sound bad are sometimes fine when you find out about their details.,Highly disagree,46/150,Highly agree,4,1698177185042,1698177192201,\Highly agree\,\Highly agree\,\4\,1698177191258,1698177191258,6216,6216,7159,buq,qns-item-noham,46,409200,0.0-1.0-0.45
"<b>The world is always changing, so my beliefs are sometimes out-dated.",Highly disagree,47/150,Highly agree,4,1698177192205,1698177196921,\Highly agree\,\Highly agree\,\4\,1698177195469,1698177195469,3264,3264,4716,buq,qns-item-noham,47,413920,0.0-1.0-0.46
"<b>If I receive a bad meal at my favorite restaurant and the food is surprisingly bad, I do not think much of it, and assume the chef is just having an ?off? day.",Highly disagree,48/150,Highly agree,4,1698177196928,1698177203246,\Highly agree\,\Highly agree\,\4\,1698177202343,1698177202343,5415,5415,6318,buq,qns-item-noham,48,420246,0.0-1.0-0.47
"<b>False information is unavoidable, to some extent.",Highly disagree,49/150,Highly agree,4,1698177203253,1698177207130,\Highly agree\,\Highly agree\,\4\,1698177206336,1698177206336,3083,3083,3877,buq,qns-item-noham,49,424129,0.0-1.0-0.48
<b>My moral compass sometimes makes it harder to determine what?s true.,Highly disagree,50/150,Highly agree,4,1698177207135,1698177211512,\Highly agree\,\Highly agree\,\4\,1698177210678,1698177210678,3543,3543,4377,buq,qns-item-noham,50,428511,0.0-1.0-0.49
"<b>When you disagree with someone, it?s important to listen to them carefully.",Highly disagree,51/150,Highly agree,4,1698177211525,1698177216400,\Highly agree\,\Highly agree\,\4\,1698177215546,1698177215546,4021,4021,4875,buq,qns-item-noham,51,433399,0.0-1.0-0.50
<b>Evidence pointing in the wrong direction isn?t really evidence at all.,Highly disagree,52/150,Highly disagree,1,1698177216406,1698177245713,\Highly disagree\,\Highly disagree\,\1\,1698177244939,1698177244939,28533,28533,29307,buq,qns-item-noham,52,462712,0.0-1.0-0.51
"<b>If the political party I support messes up, it makes me think politics is rotten.",Highly disagree,53/150,Highly disagree,1,1698177245719,1698177250461,\Highly disagree\,\Highly disagree\,\1\,1698177249647,1698177249647,3928,3928,4742,buq,qns-item-noham,53,467460,0.0-1.0-0.52
<b>Lots of important topics can only really be understood by some groups of people.,Highly disagree,54/150,Highly disagree,1,1698177250466,1698177254840,\Highly disagree\,\Highly disagree\,\1\,1698177253948,1698177253948,3482,3482,4374,buq,qns-item-noham,54,471840,0.0-1.0-0.53
<b>Details almost always matter for being right about something.,Highly disagree,55/150,Somewhat agree,3,1698177254846,1698177297467,\Somewhat agree\,\Somewhat agree\,\3\,1698177296703,1698177296703,41857,41857,42621,buq,qns-item-noham,55,514466,0.0-1.0-0.54
"<b>The most important thing in politics is winning, not convincing people.",Highly disagree,56/150,Highly disagree,1,1698177297472,1698177313318,\Highly disagree\,\Highly disagree\,\1\,1698177312304,1698177312304,14832,14832,15846,buq,qns-item-noham,56,530317,0.0-1.0-0.55
<b>Having conflicting beliefs means you haven?t thought about them enough.,Highly disagree,57/150,Highly disagree,1,1698177313323,1698177345013,\Highly disagree\,\Highly disagree\,\1\,1698177344109,1698177344109,30786,30786,31690,buq,qns-item-noham,57,562012,0.0-1.0-0.56
<b>Other people have sometimes convinced me to change my mind on important topics.,Highly disagree,58/150,Highly agree,4,1698177345019,1698177349066,\Highly agree\,\Highly agree\,\4\,1698177347903,1698177347903,2884,2884,4047,buq,qns-item-noham,58,566065,0.0-1.0-0.57
<b>I do not often change my political opinions.,Highly disagree,59/150,Somewhat disagree,2,1698177349073,1698177353039,\Somewhat disagree\,\Somewhat disagree\,\2\,1698177352276,1698177352276,3203,3203,3966,buq,qns-item-noham,59,570038,0.0-1.0-0.58
<b>Thinking about how different things relate to one another is critical in life.,Highly disagree,60/150,Highly agree,4,1698177353045,1698177357379,\Highly agree\,\Highly agree\,\4\,1698177356288,1698177356288,3243,3243,4334,buq,qns-item-noham,60,574378,0.0-1.0-0.59
<b>True beliefs can have unfortunate implications.,Highly disagree,61/150,Highly agree,4,1698177357385,1698177394209,\Highly agree\,\Highly agree\,\4\,1698177393036,1698177393036,35651,35651,36824,buq,qns-item-noham,61,611208,0.0-1.0-0.60
<b>It?s difficult to not have at least some conflicting beliefs.,Highly disagree,62/150,Highly agree,4,1698177394215,1698177397524,\Highly agree\,\Highly agree\,\4\,1698177396651,1698177396651,2436,2436,3309,buq,qns-item-noham,62,614523,0.0-1.0-0.61
"<b>When I learn new things, I think deeply about how my opinions should change.",Highly disagree,63/150,Highly agree,4,1698177397531,1698177401526,\Highly agree\,\Highly agree\,\4\,1698177400615,1698177400615,3084,3084,3995,buq,qns-item-noham,63,618525,0.0-1.0-0.62
<b>I think a lot about how to interpret different sorts of evidence.,Highly disagree,64/150,Highly agree,4,1698177401531,1698177407795,\Highly agree\,\Highly agree\,\4\,1698177406681,1698177406681,5150,5150,6264,buq,qns-item-noham,64,624794,0.0-1.0-0.63
<b>Politics is about thinking together and finding compromises.,Highly disagree,65/150,Highly agree,4,1698177407801,1698177454385,\Highly agree\,\Highly agree\,\4\,1698177453294,1698177453294,45493,45493,46584,buq,qns-item-noham,65,671385,0.0-1.0-0.64
<b>Wishful thinking causes a lot of problems.,Highly disagree,66/150,Somewhat agree,3,1698177454391,1698177457425,\Somewhat agree\,\Somewhat agree\,\3\,1698177456591,1698177456591,2200,2200,3034,buq,qns-item-noham,66,674424,0.0-1.0-0.65
<b>I judge a food item only once I try it many times.,Highly disagree,67/150,Highly agree,4,1698177457431,1698177461656,\Highly agree\,\Highly agree\,\4\,1698177460722,1698177460722,3291,3291,4225,buq,qns-item-noham,67,678655,0.0-1.0-0.66
"<b>When a person holds conflicting beliefs, they should really try to figure out what?s wrong.",Highly disagree,68/150,Somewhat agree,3,1698177461665,1698177478264,\Somewhat agree\,\Somewhat agree\,\3\,1698177477080,1698177477080,15415,15415,16599,buq,qns-item-noham,68,695263,0.0-1.0-0.67
<b>Knowing what?s important in life is easy.,Highly disagree,69/150,Highly disagree,1,1698177478270,1698177482533,\Highly disagree\,\Highly disagree\,\1\,1698177481491,1698177481491,3221,3221,4263,buq,qns-item-noham,69,699532,0.0-1.0-0.68
<b>Lots of smart people disagree about basic political questions.,Highly disagree,70/150,Highly agree,4,1698177482538,1698177489714,\Highly agree\,\Highly agree\,\4\,1698177488931,1698177488931,6393,6393,7176,buq,qns-item-noham,70,706713,0.0-1.0-0.69
<b>I swim across the Atlantic Ocean to get to work every day.,Highly disagree,71/150,Highly disagree,1,1698177489722,1698177492674,\Highly disagree\,\Highly disagree\,\1\,1698177491643,1698177491643,1921,1921,2952,buq,qns-item-noham,71,709673,0.0-1.0-0.70
"<b>Sometimes, you just have to ignore evidence that you know is wrong.",Highly disagree,72/150,Highly disagree,1,1698177492681,1698177496597,\Highly disagree\,\Highly disagree\,\1\,1698177495833,1698177495833,3152,3152,3916,buq,qns-item-noham,72,713596,0.0-1.0-0.71
<b>I have had some false beliefs.,Highly disagree,73/150,Highly agree,4,1698177496602,1698177499856,\Highly agree\,\Highly agree\,\4\,1698177499032,1698177499032,2430,2430,3254,buq,qns-item-noham,73,716855,0.0-1.0-0.72
"<b>If one friend does something that upsets me, I sometimes start to distrust people in general.",Highly disagree,74/150,Highly agree,4,1698177499868,1698177503977,\Highly agree\,\Highly agree\,\4\,1698177503015,1698177503015,3147,3147,4109,buq,qns-item-noham,74,720976,0.0-1.0-0.73
<b>I easily apply what I learn in one situation to another.,Highly disagree,75/150,Highly agree,4,1698177503984,1698177507563,\Highly agree\,\Highly agree\,\4\,1698177506859,1698177506859,2875,2875,3579,buq,qns-item-noham,75,724562,0.0-1.0-0.74
<b>The facts about most important matters are easy to find.,Highly disagree,76/150,Highly disagree,1,1698177507570,1698177521936,\Highly disagree\,\Highly disagree\,\1\,1698177520973,1698177520973,13403,13403,14366,buq,qns-item-noham,76,738935,0.0-1.0-0.75
<b>It?s better to know what?s true than to know what?s moral.,Highly disagree,77/150,Highly disagree,1,1698177521941,1698177526714,\Highly disagree\,\Highly disagree\,\1\,1698177525950,1698177525950,4009,4009,4773,buq,qns-item-noham,77,743713,0.0-1.0-0.76
<b>It?s good to be skeptical of people you agree with.,Highly disagree,78/150,Highly agree,4,1698177526719,1698177589716,\Highly agree\,\Highly agree\,\4\,1698177588674,1698177588674,61955,61955,62997,buq,qns-item-noham,78,806715,0.0-1.0-0.77
<b>Sometimes reasonable beliefs are wrong.,Highly disagree,79/150,Highly agree,4,1698177589721,1698177610487,\Highly agree\,\Highly agree\,\4\,1698177609744,1698177609744,20023,20023,20766,buq,qns-item-noham,79,827487,0.0-1.0-0.78
<b>I used to think the world was less complicated than I do now.,Highly disagree,80/150,Highly agree,4,1698177610492,1698177614052,\Highly agree\,\Highly agree\,\4\,1698177613200,1698177613200,2708,2708,3560,buq,qns-item-noham,80,831051,0.0-1.0-0.79
<b>People are usually completely right or completely wrong.,Highly disagree,81/150,Highly disagree,1,1698177614059,1698177623793,\Highly disagree\,\Highly disagree\,\1\,1698177622970,1698177622970,8911,8911,9734,buq,qns-item-noham,81,840792,0.0-1.0-0.80
<b>I spend a lot of time considering alternatives to my beliefs.,Highly disagree,82/150,Highly agree,4,1698177623798,1698177627656,\Highly agree\,\Highly agree\,\4\,1698177626256,1698177626256,2458,2458,3858,buq,qns-item-noham,82,844655,0.0-1.0-0.81
"<b>Political enemies need to be defeated, not convinced.",Highly disagree,83/150,Somewhat disagree,2,1698177627663,1698177633702,\Somewhat disagree\,\Somewhat disagree\,\2\,1698177632849,1698177632849,5186,5186,6039,buq,qns-item-noham,83,850701,0.0-1.0-0.82
"<b>When forming an opinion about a restaurant, I am more swayed by my  latest meal there than  previous meals I?ve had there.",Highly disagree,84/150,Highly agree,4,1698177633707,1698177639502,\Highly agree\,\Highly agree\,\4\,1698177638242,1698177638242,4535,4535,5795,buq,qns-item-noham,84,856501,0.0-1.0-0.83
<b>I try to remain skeptical about most topics.,Highly disagree,85/150,Highly agree,4,1698177639511,1698177642698,\Highly agree\,\Highly agree\,\4\,1698177641934,1698177641934,2423,2423,3187,buq,qns-item-noham,85,859698,0.0-1.0-0.84
<b>Being wrong is usually obvious in retrospect.,Highly disagree,86/150,Highly agree,4,1698177642703,1698177645995,\Highly agree\,\Highly agree\,\4\,1698177644993,1698177644993,2290,2290,3292,buq,qns-item-noham,86,862994,0.0-1.0-0.85
<b>It can be hard to realize that my beliefs are in conflict.,Highly disagree,87/150,Highly agree,4,1698177646001,1698177650754,\Highly agree\,\Highly agree\,\4\,1698177648460,1698177648460,2459,2459,4753,buq,qns-item-noham,87,867754,0.0-1.0-0.86
<b>I form my political views only after meticulously gathering historical and present information about their policies.,Highly disagree,88/150,Highly agree,4,1698177650761,1698177655739,\Highly agree\,\Highly agree\,\4\,1698177654709,1698177654709,3948,3948,4978,buq,qns-item-noham,88,872738,0.0-1.0-0.87
<b>Skeptical people are usually just bad-tempered.,Highly disagree,89/150,Highly disagree,1,1698177655745,1698177660001,\Highly disagree\,\Highly disagree\,\1\,1698177658888,1698177658888,3143,3143,4256,buq,qns-item-noham,89,877000,0.0-1.0-0.88
<b>It is difficult for me to remember the last time I was surprised by politics.,Highly disagree,90/150,Highly disagree,1,1698177660007,1698177671798,\Highly disagree\,\Highly disagree\,\1\,1698177670874,1698177670874,10867,10867,11791,buq,qns-item-noham,90,888797,0.0-1.0-0.89
"<b>When I find out I?m wrong, I think a lot about my related beliefs.",Highly disagree,91/150,Highly agree,4,1698177671802,1698177675422,\Highly agree\,\Highly agree\,\4\,1698177674490,1698177674490,2688,2688,3620,buq,qns-item-noham,91,892421,0.0-1.0-0.90
"<b>If the political party I support messes up, it makes me think you can?t trust anyone these days",Highly disagree,92/150,Somewhat disagree,2,1698177675427,1698177679643,\Somewhat disagree\,\Somewhat disagree\,\2\,1698177678731,1698177678731,3304,3304,4216,buq,qns-item-noham,92,896642,0.0-1.0-0.91
<b>People?s brains turn off when they talk about politics.,Highly disagree,93/150,Highly disagree,1,1698177679647,1698177683427,\Highly disagree\,\Highly disagree\,\1\,1698177682584,1698177682584,2937,2937,3780,buq,qns-item-noham,93,900427,0.0-1.0-0.92
<b>People who are wrong are usually just ignoring the obvious.,Highly disagree,94/150,Somewhat disagree,2,1698177683434,1698177732107,\Somewhat disagree\,\Somewhat disagree\,\2\,1698177731353,1698177731353,47919,47919,48673,buq,qns-item-noham,94,949107,0.0-1.0-0.93
"<b>The world isn?t that complicated, but it?s still hard to figure out how it works.",Highly disagree,95/150,Somewhat disagree,2,1698177732114,1698177737552,\Highly agree\,\Somewhat disagree\,\4\,1698177735317,1698177736289,3203,4175,5438,buq,qns-item-noham,95,954551,0.0-1.0-0.94
"<b>When forming my views on people, I rely more on what they are like now rather than rely on my past experience with them.",Highly disagree,96/150,Somewhat agree,3,1698177737559,1698177780828,\Somewhat agree\,\Somewhat agree\,\3\,1698177779807,1698177779807,42248,42248,43269,buq,qns-item-noham,96,997827,0.0-1.0-0.95
"<b>When people contradict my beliefs, I usually know about their evidence already.",Highly disagree,97/150,Somewhat disagree,2,1698177780832,1698177793667,\Somewhat disagree\,\Somewhat disagree\,\2\,1698177792883,1698177792883,12051,12051,12835,buq,qns-item-noham,97,1010666,0.0-1.0-0.96
<b>Being wrong is a matter of degree.,Highly disagree,98/150,Somewhat agree,3,1698177793671,1698177796865,\Somewhat agree\,\Somewhat agree\,\3\,1698177795922,1698177795922,2251,2251,3194,buq,qns-item-noham,98,1013864,0.0-1.0-0.97
<b>Figuring out what?s true and what?s false mainly requires a strong moral compass.,Highly disagree,99/150,Somewhat agree,3,1698177796869,1698177801372,\Somewhat agree\,\Somewhat agree\,\3\,1698177800539,1698177800539,3670,3670,4503,buq,qns-item-noham,99,1018371,0.0-1.0-0.98
<b>Most of the beliefs people have are at least somewhat understandable.,Highly disagree,100/150,Highly agree,4,1698177801378,1698177807222,\Highly agree\,\Highly agree\,\4\,1698177806378,1698177806378,5000,5000,5844,buq,qns-item-noham,100,1024221,0.0-1.0-0.99
"<b>Usually I?m wrong about simple things, not complicated ones.",Highly disagree,101/150,Somewhat disagree,2,1698177807227,1698177810934,\Somewhat disagree\,\Somewhat disagree\,\2\,1698177809913,1698177809913,2686,2686,3707,buq,qns-item-noham,101,1027934,0.0-1.0-0.100
<b>Getting all the information I want about important things is hard.,Highly disagree,102/150,Somewhat disagree,2,1698177810939,1698177815216,\Somewhat disagree\,\Somewhat disagree\,\2\,1698177813984,1698177813984,3045,3045,4277,buq,qns-item-noham,102,1032215,0.0-1.0-0.101
<b>Most false beliefs spread because people try to deceive one another.,Highly disagree,103/150,Somewhat disagree,2,1698177815222,1698177820310,\Somewhat disagree\,\Somewhat disagree\,\2\,1698177819297,1698177819297,4075,4075,5088,buq,qns-item-noham,103,1037309,0.0-1.0-0.102
<b>I can usually find something to agree with in most people?s beliefs.,Highly disagree,104/150,Somewhat agree,3,1698177820315,1698177825672,\Somewhat agree\,\Somewhat agree\,\3\,1698177824879,1698177824879,4564,4564,5357,buq,qns-item-noham,104,1042671,0.0-1.0-0.103
<b>I only form my views of people once I get to know them very well.,Highly disagree,105/150,Highly agree,4,1698177825677,1698177830480,\Highly agree\,\Highly agree\,\4\,1698177828881,1698177828881,3204,3204,4803,buq,qns-item-noham,105,1047480,0.0-1.0-0.104
"<b>When people tell me important things about the world, I usually believe them.",Highly disagree,106/150,Somewhat agree,3,1698177830489,1698177834711,\Somewhat agree\,\Somewhat agree\,\3\,1698177833898,1698177833898,3409,3409,4222,buq,qns-item-noham,106,1051710,0.0-1.0-0.105
"<b>If a friend does something that upsets me, it reminds me what an unpredictable place the world is.",Highly disagree,107/150,Highly agree,4,1698177834716,1698177878275,\Highly agree\,\Highly agree\,\4\,1698177876823,1698177876823,42107,42107,43559,buq,qns-item-noham,107,1095274,0.0-1.0-0.106
<b>Having some conflicting beliefs is inevitable.,Highly disagree,108/150,Highly agree,4,1698177878281,1698177883399,\Highly agree\,\Highly agree\,\4\,1698177880339,1698177880339,2058,2058,5118,buq,qns-item-noham,108,1100398,0.0-1.0-0.107
<b>People are wrong because they haven?t thought much about things.,Highly disagree,109/150,Somewhat disagree,2,1698177883405,1698177887459,\Somewhat disagree\,\Somewhat disagree\,\2\,1698177886567,1698177886567,3162,3162,4054,buq,qns-item-noham,109,1104458,0.0-1.0-0.108
<b>People tend to believe whatever is good for their friends.,Highly disagree,110/150,Somewhat agree,3,1698177887464,1698177894103,\Somewhat agree\,\Somewhat agree\,\3\,1698177893220,1698177893220,5756,5756,6639,buq,qns-item-noham,110,1111102,0.0-1.0-0.109
"<b>When I talk about important topics, I try to make sure people know I?m not always right.",Highly disagree,111/150,Highly agree,4,1698177894108,1698177901115,\Highly agree\,\Highly agree\,\4\,1698177900026,1698177900026,5918,5918,7007,buq,qns-item-noham,111,1118114,0.0-1.0-0.110
<b>I used to be more certain my beliefs were true.,Highly disagree,112/150,Highly agree,4,1698177901120,1698177904354,\Highly agree\,\Highly agree\,\4\,1698177902933,1698177902933,1813,1813,3234,buq,qns-item-noham,112,1121353,0.0-1.0-0.111
<b>It?s often pretty easy to figure out whether something is true based on who said it.,Highly disagree,113/150,Somewhat disagree,2,1698177904360,1698177908563,\Somewhat disagree\,\Somewhat disagree\,\2\,1698177907780,1698177907780,3420,3420,4203,buq,qns-item-noham,113,1125562,0.0-1.0-0.112
<b>Having bad food in my favorite restaurant will make me think the restaurant is no longer good.,Highly disagree,114/150,Somewhat disagree,2,1698177908567,1698177914403,\Somewhat disagree\,\Somewhat disagree\,\2\,1698177913491,1698177913491,4924,4924,5836,buq,qns-item-noham,114,1131402,0.0-1.0-0.113
<b>I transform into a hummingbird every day.,Highly disagree,115/150,Highly disagree,1,1698177914410,1698177917224,\Highly disagree\,\Highly disagree\,\1\,1698177916301,1698177916301,1891,1891,2814,buq,qns-item-noham,115,1134223,0.0-1.0-0.114
"<b>Unfortunately, when people are wrong, it?s usually because they?re bad.",Highly disagree,116/150,Highly disagree,1,1698177917229,1698177922736,\Highly disagree\,\Highly disagree\,\1\,1698177921784,1698177921784,4555,4555,5507,buq,qns-item-noham,116,1139735,0.0-1.0-0.115
<b>I think a lot about arguments against my views.,Highly disagree,117/150,Somewhat agree,3,1698177922741,1698177926561,\Somewhat agree\,\Somewhat agree\,\3\,1698177925259,1698177925259,2518,2518,3820,buq,qns-item-noham,117,1143561,0.0-1.0-0.116
<b>Details tend to matter a lot for knowing whether a policy is good.,Highly disagree,118/150,Highly agree,4,1698177926570,1698177932362,\Highly agree\,\Highly agree\,\4\,1698177931488,1698177931488,4918,4918,5792,buq,qns-item-noham,118,1149361,0.0-1.0-0.117
<b>Personal experience is usually more important than facts and figures.,Highly disagree,119/150,Somewhat agree,3,1698177932367,1698177938682,\Somewhat agree\,\Somewhat agree\,\3\,1698177937052,1698177937052,4685,4685,6315,buq,qns-item-noham,119,1155681,0.0-1.0-0.118
<b>I?ve been tricked before about important matters.,Highly disagree,120/150,Highly agree,4,1698177938688,1698177942118,\Highly agree\,\Highly agree\,\4\,1698177941226,1698177941226,2538,2538,3430,buq,qns-item-noham,120,1159118,0.0-1.0-0.119
<b>I would need to be totally wowed if I were to change my opinion of a restaurant I don?t like.,Highly disagree,121/150,Somewhat agree,3,1698177942124,1698177948716,\Highly agree\,\Somewhat agree\,\4\,1698177946560,1698177947862,4436,5738,6592,buq,qns-item-noham,121,1165715,0.0-1.0-0.120
<b>I care a lot about politics.,Highly disagree,122/150,Highly agree,4,1698177948723,1698177951626,\Highly agree\,\Highly agree\,\4\,1698177950714,1698177950714,1991,1991,2903,buq,qns-item-noham,122,1168625,0.0-1.0-0.121
<b>People with conflicting beliefs usually have some facts they disagree on.,Highly disagree,123/150,Highly agree,4,1698177951635,1698177955770,\Highly agree\,\Highly agree\,\4\,1698177954846,1698177954846,3211,3211,4135,buq,qns-item-noham,123,1172769,0.0-1.0-0.122
<b>There are some topics I?ve been really wrong about.,Highly disagree,124/150,Highly agree,4,1698177955779,1698177959436,\Highly agree\,\Highly agree\,\4\,1698177958522,1698177958522,2743,2743,3657,buq,qns-item-noham,124,1176435,0.0-1.0-0.123
<b>Most beliefs can be supported with at least some evidence.,Highly disagree,125/150,Highly agree,4,1698177959441,1698177963202,\Highly agree\,\Highly agree\,\4\,1698177962368,1698177962368,2927,2927,3761,buq,qns-item-noham,125,1180201,0.0-1.0-0.124
<b>Other people make life out to be more complicated than it really is.,Highly disagree,126/150,Highly agree,4,1698177963207,1698177966472,\Highly agree\,\Highly agree\,\4\,1698177965697,1698177965697,2490,2490,3265,buq,qns-item-noham,126,1183471,0.0-1.0-0.125
"<b>My political views are being shaped continuously as I gather more information, rather than relying on what I?ve known to be true of my party in the past. ",Highly disagree,127/150,Highly agree,4,1698177966477,1698177971032,\Highly agree\,\Highly agree\,\4\,1698177970139,1698177970139,3662,3662,4555,buq,qns-item-noham,127,1188031,0.0-1.0-0.126
<b>It?s pretty unusual for true things to seem false.,Highly disagree,128/150,Highly disagree,1,1698177971037,1698177975047,\Highly disagree\,\Highly disagree\,\1\,1698177974054,1698177974054,3017,3017,4010,buq,qns-item-noham,128,1192046,0.0-1.0-0.127
"<b>Policy details don?t matter much, just the big picture.",Highly disagree,129/150,Highly agree,4,1698177975055,1698177979568,\Highly agree\,\Highly agree\,\4\,1698177978605,1698177978605,3550,3550,4513,buq,qns-item-noham,129,1196567,0.0-1.0-0.128
<b>I know my friends so well they can hardly ever surprise me.,Highly disagree,130/150,Highly agree,4,1698177979575,1698177990817,\Highly agree\,\Highly agree\,\4\,1698177989714,1698177989714,10139,10139,11242,buq,qns-item-noham,130,1207816,0.0-1.0-0.129
"<b>When I talk to people, I often think about why they have the beliefs they do.",Highly disagree,131/150,Highly agree,4,1698177990822,1698178004219,\Highly agree\,\Highly agree\,\4\,1698178003383,1698178003383,12561,12561,13397,buq,qns-item-noham,131,1221218,0.0-1.0-0.130
<b>I do not often change my views on people.,Highly disagree,132/150,Somewhat agree,3,1698178004224,1698178007198,\Somewhat agree\,\Somewhat agree\,\3\,1698178006472,1698178006472,2248,2248,2974,buq,qns-item-noham,132,1224197,0.0-1.0-0.131
<b>I often wish I had more time to spend figuring out what?s true and what?s false in life.,Highly disagree,133/150,Highly agree,4,1698178007203,1698178011979,\Highly agree\,\Highly agree\,\4\,1698178010557,1698178010557,3354,3354,4776,buq,qns-item-noham,133,1228978,0.0-1.0-0.132
<b>I?m more certain about my beliefs than I used to be.,Highly disagree,134/150,Highly agree,4,1698178011985,1698178015286,\Highly agree\,\Highly agree\,\4\,1698178014304,1698178014304,2319,2319,3301,buq,qns-item-noham,134,1232285,0.0-1.0-0.133
"<b>Whenever I find out new information, I update my views on politics accordingly.",Highly disagree,135/150,Highly agree,4,1698178015291,1698178020076,\Highly agree\,\Highly agree\,\4\,1698178019013,1698178019013,3722,3722,4785,buq,qns-item-noham,135,1237075,0.0-1.0-0.134
<b>People often tell falsehoods unintentionally.,Highly disagree,136/150,Highly agree,4,1698178020084,1698178023245,\Highly agree\,\Highly agree\,\4\,1698178022442,1698178022442,2358,2358,3161,buq,qns-item-noham,136,1240244,0.0-1.0-0.135
<b>Most people don?t know much about most things.,Highly disagree,137/150,Somewhat agree,3,1698178023250,1698178027964,\Somewhat agree\,\Somewhat agree\,\3\,1698178027141,1698178027141,3891,3891,4714,buq,qns-item-noham,137,1244963,0.0-1.0-0.136
"<b>If I find out something new about someone, I easily change my views about them.",Highly disagree,138/150,Highly agree,4,1698178027969,1698178033548,\Highly agree\,\Highly agree\,\4\,1698178032278,1698178032278,4309,4309,5579,buq,qns-item-noham,138,1250548,0.0-1.0-0.137
<b>Having true beliefs is difficult.,Highly disagree,139/150,Highly agree,4,1698178033555,1698178036300,\Highly agree\,\Highly agree\,\4\,1698178035297,1698178035297,1742,1742,2745,buq,qns-item-noham,139,1253299,0.0-1.0-0.138
<b>I don?t try new foods since I know I won?t like them.,Highly disagree,140/150,Highly disagree,1,1698178036306,1698178064069,\Highly disagree\,\Highly disagree\,\1\,1698178062906,1698178062906,26600,26600,27763,buq,qns-item-noham,140,1281068,0.0-1.0-0.139
<b>It?s easy to figure out what?s true or false based on who?s saying it.,Highly disagree,141/150,Highly disagree,1,1698178064075,1698178070317,\Highly disagree\,\Highly disagree\,\1\,1698178069274,1698178069274,5199,5199,6242,buq,qns-item-noham,141,1287316,0.0-1.0-0.140
<b>False things have seemed true to me many times.,Highly disagree,142/150,Somewhat agree,3,1698178070322,1698178073518,\Somewhat agree\,\Somewhat agree\,\3\,1698178072783,1698178072783,2461,2461,3196,buq,qns-item-noham,142,1290517,0.0-1.0-0.141
<b>It?s pretty easy to sort out what?s true and what?s false in life.,Highly disagree,143/150,Somewhat disagree,2,1698178073524,1698178077859,\Somewhat agree\,\Somewhat disagree\,\3\,1698178076268,1698178077052,2744,3528,4335,buq,qns-item-noham,143,1294858,0.0-1.0-0.142
<b>Knowing lots of statistics about something is usually important for understanding it.,Highly disagree,144/150,Highly agree,4,1698178077866,1698178082795,\Highly agree\,\Highly agree\,\4\,1698178081962,1698178081962,4096,4096,4929,buq,qns-item-noham,144,1299794,0.0-1.0-0.143
<b>Other people trick each other a lot.,Highly disagree,145/150,Highly agree,4,1698178082800,1698178085973,\Highly agree\,\Highly agree\,\4\,1698178085000,1698178085000,2200,2200,3173,buq,qns-item-noham,145,1302972,0.0-1.0-0.144
<b>I would need to learn a lot about a person for my opinion of them to be swayed.,Highly disagree,146/150,Somewhat disagree,2,1698178085980,1698178090463,\Somewhat disagree\,\Somewhat disagree\,\2\,1698178089560,1698178089560,3580,3580,4483,buq,qns-item-noham,146,1307462,0.0-1.0-0.145
<b>People can?t usually trick me when it comes to topics I care about.,Highly disagree,147/150,Somewhat disagree,2,1698178090468,1698178093831,\Somewhat disagree\,\Somewhat disagree\,\2\,1698178093037,1698178093037,2569,2569,3363,buq,qns-item-noham,147,1310831,0.0-1.0-0.146
<b>I do not often change my views on food.,Highly disagree,148/150,Highly agree,4,1698178093837,1698178098442,\Highly disagree\,\Highly agree\,\1\,1698178096138,1698178097569,2301,3732,4605,buq,qns-item-noham,148,1315442,0.0-1.0-0.147
<b>Specific policies are often very important to me.,Highly disagree,149/150,Somewhat agree,3,1698178098449,1698178101642,\Somewhat agree\,\Somewhat agree\,\3\,1698178100797,1698178100797,2348,2348,3193,buq,qns-item-noham,149,1318641,0.0-1.0-0.148
<b>Most people are woefully under-informed.,Highly disagree,150/150,Highly agree,4,1698178101652,1698178107204,\Highly agree\,\Highly agree\,\4\,1698178106330,1698178106330,4678,4678,5552,buq,qns-item-noham,150,1324203,0.0-1.0-0.149
