Question,qns_options,quest_num,answer,answer_num,question_load_timestamp,next_btn_timestamp,text_selected,final_text_selected,option_num_selected,preview_timestamps,final_text_selected_time_stamp,rt_first_option_click,rt_final_option_click,rt_submit_click,questionnaire,trial_type,trial_index,time_elapsed,internal_node_id
<b>Considering other people?s perspectives can help us figure out what?s true or false.,Highly disagree,1/150,Somewhat agree,3,1698178222301,1698178225926,\Somewhat agree\,\Somewhat agree\,\3\,1698178224925,1698178224925,2624,2624,3625,buq,qns-item-noham,1,7676,0.0-1.0-0.0
<b>Knowing what?s true and knowing what to do about it are usually basically the same.,Highly disagree,2/150,Highly disagree,1,1698178225929,1698178232078,\Highly agree\,\Highly disagree\,\4\,1698178229859,1698178230777,3930,4848,6149,buq,qns-item-noham,2,13828,0.0-1.0-0.1
<b>Most people just believe whatever is convenient for them.,Highly disagree,3/150,Somewhat agree,3,1698178232079,1698178234494,\Somewhat agree\,\Somewhat agree\,\3\,1698178233961,1698178233961,1882,1882,2415,buq,qns-item-noham,3,16244,0.0-1.0-0.2
<b>Even people who are wrong about most things can be right sometimes.,Highly disagree,4/150,Highly agree,4,1698178234495,1698178237912,\Highly agree\,\Highly agree\,\4\,1698178237479,1698178237479,2984,2984,3417,buq,qns-item-noham,4,19663,0.0-1.0-0.3
"<b>If the political party I support does something that upsets me, then the party may have changed, and I need to re-evaluate my support.",Highly disagree,5/150,Somewhat agree,3,1698178237913,1698178243431,\Somewhat agree\,\Somewhat agree\,\3\,1698178242247,1698178242247,4334,4334,5518,buq,qns-item-noham,5,25181,0.0-1.0-0.4
"<b>When people disagree, one side is usually completely right.",Highly disagree,6/150,Somewhat disagree,2,1698178243432,1698178246099,\Somewhat disagree\,\Somewhat disagree\,\2\,1698178245632,1698178245632,2200,2200,2667,buq,qns-item-noham,6,27849,0.0-1.0-0.5
<b>People have lots of false beliefs.,Highly disagree,7/150,Highly agree,4,1698178246100,1698178247966,\Highly agree\,\Highly agree\,\4\,1698178247516,1698178247516,1416,1416,1866,buq,qns-item-noham,7,29716,0.0-1.0-0.6
<b>Having some big beliefs helps me sort out minor ones.,Highly disagree,8/150,Somewhat agree,3,1698178247967,1698178250883,\Somewhat agree\,\Somewhat agree\,\3\,1698178250216,1698178250216,2249,2249,2916,buq,qns-item-noham,8,32634,0.0-1.0-0.7
<b>Political questions are usually pretty complicated.,Highly disagree,9/150,Somewhat agree,3,1698178250884,1698178253701,\Somewhat agree\,\Somewhat agree\,\3\,1698178253267,1698178253267,2383,2383,2817,buq,qns-item-noham,9,35451,0.0-1.0-0.8
<b>Figuring out what?s important in life requires learning a lot of facts.,Highly disagree,10/150,Somewhat agree,3,1698178253702,1698178256535,\Somewhat agree\,\Somewhat agree\,\3\,1698178255968,1698178255968,2266,2266,2833,buq,qns-item-noham,10,38285,0.0-1.0-0.9
<b>It is difficult for me to remember the last time I was surprised by politics.,Highly disagree,11/150,Highly agree,4,1698178256536,1698178261170,\Highly agree\,\Highly agree\,\4\,1698178260469,1698178260469,3933,3933,4634,buq,qns-item-noham,11,42920,0.0-1.0-0.10
<b>People?s false beliefs are understandable.,Highly disagree,12/150,Somewhat agree,3,1698178261171,1698178264020,\Somewhat agree\,\Somewhat agree\,\3\,1698178263320,1698178263320,2149,2149,2849,buq,qns-item-noham,12,45770,0.0-1.0-0.11
<b>I spend a lot of time trying to be informed about politics.,Highly disagree,13/150,Highly disagree,1,1698178264021,1698178268039,\Somewhat disagree\,\Highly disagree\,\2\,1698178266355,1698178267222,2334,3201,4018,buq,qns-item-noham,13,49789,0.0-1.0-0.12
<b>I think a lot about whether my beliefs are right.,Highly disagree,14/150,Somewhat agree,3,1698178268039,1698178270306,\Somewhat agree\,\Somewhat agree\,\3\,1698178269889,1698178269889,1850,1850,2267,buq,qns-item-noham,14,52056,0.0-1.0-0.13
<b>Statistics can be pretty misleading sometimes.,Highly disagree,15/150,Somewhat disagree,2,1698178270307,1698178273890,\Somewhat disagree\,\Somewhat disagree\,\2\,1698178273307,1698178273307,3000,3000,3583,buq,qns-item-noham,15,55640,0.0-1.0-0.14
<b>Figuring out what?s true and what?s false takes a lot of time and effort.,Highly disagree,16/150,Somewhat agree,3,1698178273891,1698178276224,\Somewhat agree\,\Somewhat agree\,\3\,1698178275641,1698178275641,1750,1750,2333,buq,qns-item-noham,16,57975,0.0-1.0-0.15
"<b>If a friend does something bad to me, it was likely an error on their part.",Highly disagree,17/150,Somewhat agree,3,1698178276225,1698178279742,\Somewhat agree\,\Somewhat agree\,\3\,1698178279258,1698178279258,3033,3033,3517,buq,qns-item-noham,17,61492,0.0-1.0-0.16
<b>I have lots of beliefs that I?m only sort of sure about.,Highly disagree,18/150,Somewhat agree,3,1698178279742,1698178284026,\Somewhat agree\,\Somewhat agree\,\3\,1698178283560,1698178283560,3818,3818,4284,buq,qns-item-noham,18,65776,0.0-1.0-0.17
"<b>If I go to my favorite restaurant and the food is surprisingly bad, it reminds me there are many disappointments in life.",Highly disagree,19/150,Somewhat disagree,2,1698178284027,1698178287461,\Somewhat disagree\,\Somewhat disagree\,\2\,1698178286978,1698178286978,2951,2951,3434,buq,qns-item-noham,19,69211,0.0-1.0-0.18
<b>Sometimes my beliefs are inconvenient for me.,Highly disagree,20/150,Somewhat disagree,2,1698178287462,1698178290862,\Somewhat disagree\,\Somewhat disagree\,\2\,1698178290463,1698178290463,3001,3001,3400,buq,qns-item-noham,20,72613,0.0-1.0-0.19
<b>Paying attention to multiple news sources is important.,Highly disagree,21/150,Somewhat disagree,2,1698178290863,1698178293163,\Somewhat disagree\,\Somewhat disagree\,\2\,1698178292696,1698178292696,1833,1833,2300,buq,qns-item-noham,21,74913,0.0-1.0-0.20
"<b>If you are paying attention, please select ?Somewhat agree?",Highly disagree,22/150,Somewhat agree,3,1698178293164,1698178295947,\Somewhat agree\,\Somewhat agree\,\3\,1698178294863,1698178294863,1699,1699,2783,buq,qns-item-noham,22,77697,0.0-1.0-0.21
"<b>When I talk to others, I often worry I?ll convince them of something I didn?t mean to.",Highly disagree,23/150,Somewhat disagree,2,1698178295948,1698178299064,\Somewhat disagree\,\Somewhat disagree\,\2\,1698178298514,1698178298514,2566,2566,3116,buq,qns-item-noham,23,80814,0.0-1.0-0.22
<b>I would need to learn something utterly shocking about my party in order to change my political views.,Highly disagree,24/150,Highly disagree,1,1698178299065,1698178304099,\Somewhat disagree\,\Highly disagree\,\2\,1698178302933,1698178303583,3868,4518,5034,buq,qns-item-noham,24,85849,0.0-1.0-0.23
"<b>When I have new experiences, I tend to think of them as unique.",Highly disagree,25/150,Somewhat disagree,2,1698178304100,1698178306784,\Somewhat agree\,\Somewhat disagree\,\3\,1698178305767,1698178306351,1667,2251,2684,buq,qns-item-noham,25,88534,0.0-1.0-0.24
<b>Reading lots of things is important for understanding the world.,Highly disagree,26/150,Highly agree,4,1698178306785,1698178309184,\Highly agree\,\Highly agree\,\4\,1698178308734,1698178308734,1949,1949,2399,buq,qns-item-noham,26,90934,0.0-1.0-0.25
<b>The world is complicated.,Highly disagree,27/150,Highly agree,4,1698178309185,1698178310852,\Highly agree\,\Highly agree\,\4\,1698178310451,1698178310451,1266,1266,1667,buq,qns-item-noham,27,92602,0.0-1.0-0.26
<b>I change my mind about specific policies pretty frequently.,Highly disagree,28/150,Somewhat agree,3,1698178310853,1698178313586,\Somewhat agree\,\Somewhat agree\,\3\,1698178313119,1698178313119,2266,2266,2733,buq,qns-item-noham,28,95336,0.0-1.0-0.27
"<b>If a politician in my political party supports something I disagree with, I give them the benefit of the doubt, as such issues often involve hidden complexities that aren?t obvious.   ",Highly disagree,29/150,Somewhat agree,3,1698178313587,1698178318937,\Somewhat agree\,\Somewhat agree\,\3\,1698178318387,1698178318387,4800,4800,5350,buq,qns-item-noham,29,100687,0.0-1.0-0.28
<b>People?s bad politics are usually motivated by hatefulness.,Highly disagree,30/150,Highly disagree,1,1698178318938,1698178322339,\Highly disagree\,\Highly disagree\,\1\,1698178321405,1698178321405,2467,2467,3401,buq,qns-item-noham,30,104089,0.0-1.0-0.29
"<b>Most new experiences are just like old ones, but a little bit different.",Highly disagree,31/150,Somewhat agree,3,1698178322340,1698178334625,\Somewhat agree\,\Somewhat agree\,\3\,1698178334075,1698178334075,11735,11735,12285,buq,qns-item-noham,31,116375,0.0-1.0-0.30
<b>I think a lot about how to reconcile my beliefs with one another.,Highly disagree,32/150,Somewhat disagree,2,1698178334626,1698178337743,\Somewhat disagree\,\Somewhat disagree\,\2\,1698178337243,1698178337243,2617,2617,3117,buq,qns-item-noham,32,119493,0.0-1.0-0.31
<b>Personal experience rarely leads people astray.,Highly disagree,33/150,Highly agree,4,1698178337744,1698178340745,\Highly agree\,\Highly agree\,\4\,1698178340260,1698178340260,2516,2516,3001,buq,qns-item-noham,33,122495,0.0-1.0-0.32
<b>I might have false beliefs about important topics.,Highly disagree,34/150,Somewhat agree,3,1698178340746,1698178344228,\Highly agree\,\Somewhat agree\,\4\,1698178342778,1698178343795,2032,3049,3482,buq,qns-item-noham,34,125979,0.0-1.0-0.33
"<b>If a good friend of mine does something unexpected that upsets me, I feel like I don?t know them anymore.",Highly disagree,35/150,Highly agree,4,1698178344229,1698178348497,\Highly agree\,\Highly agree\,\4\,1698178347646,1698178347646,3417,3417,4268,buq,qns-item-noham,35,130247,0.0-1.0-0.34
<b>Other people?s beliefs are often incoherent.,Highly disagree,36/150,Somewhat agree,3,1698178348498,1698178350648,\Somewhat agree\,\Somewhat agree\,\3\,1698178350130,1698178350130,1632,1632,2150,buq,qns-item-noham,36,132398,0.0-1.0-0.35
<b>It?s important to have friends who think about things differently than I do.,Highly disagree,37/150,Highly disagree,1,1698178350649,1698178354081,\Somewhat disagree\,\Highly disagree\,\2\,1698178352798,1698178353431,2149,2782,3432,buq,qns-item-noham,37,135831,0.0-1.0-0.36
"<b>Every now and then, a new experience will unsettle beliefs I?ve had for a while.",Highly disagree,38/150,Somewhat agree,3,1698178354082,1698178356816,\Somewhat agree\,\Somewhat agree\,\3\,1698178356316,1698178356316,2234,2234,2734,buq,qns-item-noham,38,138566,0.0-1.0-0.37
<b>Some policies I agree with in principle are so bad I don?t support them. ,Highly disagree,39/150,Somewhat disagree,2,1698178356817,1698178361218,\Somewhat disagree\,\Somewhat disagree\,\2\,1698178360634,1698178360634,3817,3817,4401,buq,qns-item-noham,39,142968,0.0-1.0-0.38
<b>I?m pretty sure I?ve accidentally spread false information.,Highly disagree,40/150,Somewhat agree,3,1698178361219,1698178363768,\Somewhat agree\,\Somewhat agree\,\3\,1698178363335,1698178363335,2116,2116,2549,buq,qns-item-noham,40,145518,0.0-1.0-0.39
"<b>If I go to my favorite restaurant and the food is unexpectedly bad, then they have changed owners.",Highly disagree,41/150,Highly disagree,1,1698178363769,1698178367269,\Highly disagree\,\Highly disagree\,\1\,1698178366519,1698178366519,2750,2750,3500,buq,qns-item-noham,41,149019,0.0-1.0-0.40
"<b>In politics, it?s important to trust your friends and family.",Highly disagree,42/150,Somewhat disagree,2,1698178367270,1698178371288,\Somewhat agree\,\Somewhat disagree\,\3\,1698178370153,1698178370821,2883,3551,4018,buq,qns-item-noham,42,153038,0.0-1.0-0.41
<b>It?s OK to have some conflicting beliefs.,Highly disagree,43/150,Somewhat disagree,2,1698178371288,1698178373554,\Somewhat disagree\,\Somewhat disagree\,\2\,1698178373104,1698178373104,1816,1816,2266,buq,qns-item-noham,43,155304,0.0-1.0-0.42
<b>Sometimes the details of a matter seem to conflict with the big picture.,Highly disagree,44/150,Somewhat agree,3,1698178373555,1698178377122,\Somewhat agree\,\Somewhat agree\,\3\,1698178376522,1698178376522,2967,2967,3567,buq,qns-item-noham,44,158872,0.0-1.0-0.43
<b>Listening to people I disagree with makes my opinions better.,Highly disagree,45/150,Somewhat disagree,2,1698178377123,1698178381841,\Somewhat agree\,\Somewhat disagree\,\3\,1698178379423,1698178381207,2300,4084,4718,buq,qns-item-noham,45,163591,0.0-1.0-0.44
<b>Policies that sound bad are sometimes fine when you find out about their details.,Highly disagree,46/150,Highly agree,4,1698178381841,1698178386926,\Somewhat agree\,\Highly agree\,\3\,1698178384924,1698178386476,3083,4635,5085,buq,qns-item-noham,46,168676,0.0-1.0-0.45
"<b>The world is always changing, so my beliefs are sometimes out-dated.",Highly disagree,47/150,Somewhat agree,3,1698178386926,1698178390026,\Somewhat agree\,\Somewhat agree\,\3\,1698178389276,1698178389276,2350,2350,3100,buq,qns-item-noham,47,171776,0.0-1.0-0.46
"<b>If I receive a bad meal at my favorite restaurant and the food is surprisingly bad, I do not think much of it, and assume the chef is just having an ?off? day.",Highly disagree,48/150,Somewhat disagree,2,1698178390027,1698178394577,\Somewhat disagree\,\Somewhat disagree\,\2\,1698178394177,1698178394177,4150,4150,4550,buq,qns-item-noham,48,176327,0.0-1.0-0.47
"<b>False information is unavoidable, to some extent.",Highly disagree,49/150,Somewhat agree,3,1698178394578,1698178397995,\Somewhat agree\,\Somewhat agree\,\3\,1698178397579,1698178397579,3001,3001,3417,buq,qns-item-noham,49,179745,0.0-1.0-0.48
<b>My moral compass sometimes makes it harder to determine what?s true.,Highly disagree,50/150,Somewhat disagree,2,1698178397996,1698178400612,\Somewhat disagree\,\Somewhat disagree\,\2\,1698178400146,1698178400146,2150,2150,2616,buq,qns-item-noham,50,182362,0.0-1.0-0.49
"<b>When you disagree with someone, it?s important to listen to them carefully.",Highly disagree,51/150,Somewhat agree,3,1698178400613,1698178403497,\Somewhat agree\,\Somewhat agree\,\3\,1698178402897,1698178402897,2284,2284,2884,buq,qns-item-noham,51,185247,0.0-1.0-0.50
<b>Evidence pointing in the wrong direction isn?t really evidence at all.,Highly disagree,52/150,Highly disagree,1,1698178403498,1698178409182,\Highly disagree\,\Highly disagree\,\1\,1698178408199,1698178408199,4701,4701,5684,buq,qns-item-noham,52,190932,0.0-1.0-0.51
"<b>If the political party I support messes up, it makes me think politics is rotten.",Highly disagree,53/150,Somewhat disagree,2,1698178409183,1698178413950,\Somewhat disagree\,\Somewhat disagree\,\2\,1698178413433,1698178413433,4250,4250,4767,buq,qns-item-noham,53,195700,0.0-1.0-0.52
<b>Lots of important topics can only really be understood by some groups of people.,Highly disagree,54/150,Highly agree,4,1698178413951,1698178418051,\Highly agree\,\Highly agree\,\4\,1698178416852,1698178416852,2901,2901,4100,buq,qns-item-noham,54,199801,0.0-1.0-0.53
<b>Details almost always matter for being right about something.,Highly disagree,55/150,Somewhat agree,3,1698178418052,1698178422086,\Somewhat agree\,\Somewhat agree\,\3\,1698178421586,1698178421586,3534,3534,4034,buq,qns-item-noham,55,203836,0.0-1.0-0.54
"<b>The most important thing in politics is winning, not convincing people.",Highly disagree,56/150,Highly disagree,1,1698178422087,1698178424137,\Highly disagree\,\Highly disagree\,\1\,1698178423670,1698178423670,1583,1583,2050,buq,qns-item-noham,56,205887,0.0-1.0-0.55
<b>Having conflicting beliefs means you haven?t thought about them enough.,Highly disagree,57/150,Highly agree,4,1698178424137,1698178427538,\Highly agree\,\Highly agree\,\4\,1698178426171,1698178426171,2034,2034,3401,buq,qns-item-noham,57,209288,0.0-1.0-0.56
<b>Other people have sometimes convinced me to change my mind on important topics.,Highly disagree,58/150,Somewhat agree,3,1698178427539,1698178431089,\Somewhat agree\,\Somewhat agree\,\3\,1698178430455,1698178430455,2916,2916,3550,buq,qns-item-noham,58,212839,0.0-1.0-0.57
<b>I do not often change my political opinions.,Highly disagree,59/150,Highly agree,4,1698178431090,1698178434356,\Highly agree\,\Highly agree\,\4\,1698178433923,1698178433923,2833,2833,3266,buq,qns-item-noham,59,216106,0.0-1.0-0.58
<b>Thinking about how different things relate to one another is critical in life.,Highly disagree,60/150,Highly agree,4,1698178434357,1698178437174,\Highly agree\,\Highly agree\,\4\,1698178436641,1698178436641,2284,2284,2817,buq,qns-item-noham,60,218925,0.0-1.0-0.59
<b>True beliefs can have unfortunate implications.,Highly disagree,61/150,Highly agree,4,1698178437175,1698178439591,\Highly agree\,\Highly agree\,\4\,1698178439091,1698178439091,1916,1916,2416,buq,qns-item-noham,61,221341,0.0-1.0-0.60
<b>It?s difficult to not have at least some conflicting beliefs.,Highly disagree,62/150,Highly agree,4,1698178439592,1698178441976,\Highly agree\,\Highly agree\,\4\,1698178441543,1698178441543,1951,1951,2384,buq,qns-item-noham,62,223726,0.0-1.0-0.61
"<b>When I learn new things, I think deeply about how my opinions should change.",Highly disagree,63/150,Somewhat agree,3,1698178441977,1698178444843,\Somewhat agree\,\Somewhat agree\,\3\,1698178444026,1698178444026,2049,2049,2866,buq,qns-item-noham,63,226593,0.0-1.0-0.62
<b>I think a lot about how to interpret different sorts of evidence.,Highly disagree,64/150,Somewhat agree,3,1698178444844,1698178448728,\Somewhat agree\,\Somewhat agree\,\3\,1698178447927,1698178447927,3083,3083,3884,buq,qns-item-noham,64,230478,0.0-1.0-0.63
<b>Politics is about thinking together and finding compromises.,Highly disagree,65/150,Somewhat disagree,2,1698178448729,1698178458098,\Somewhat disagree\,\Somewhat disagree\,\2\,1698178457397,1698178457397,8668,8668,9369,buq,qns-item-noham,65,239848,0.0-1.0-0.64
<b>Wishful thinking causes a lot of problems.,Highly disagree,66/150,Somewhat agree,3,1698178458098,1698178460498,\Somewhat agree\,\Somewhat agree\,\3\,1698178459564,1698178459564,1466,1466,2400,buq,qns-item-noham,66,242248,0.0-1.0-0.65
<b>I judge a food item only once I try it many times.,Highly disagree,67/150,Somewhat agree,3,1698178460498,1698178464132,\Somewhat agree\,\Somewhat agree\,\3\,1698178463632,1698178463632,3134,3134,3634,buq,qns-item-noham,67,245882,0.0-1.0-0.66
"<b>When a person holds conflicting beliefs, they should really try to figure out what?s wrong.",Highly disagree,68/150,Highly agree,4,1698178464133,1698178467250,\Highly agree\,\Highly agree\,\4\,1698178466800,1698178466800,2667,2667,3117,buq,qns-item-noham,68,249000,0.0-1.0-0.67
<b>Knowing what?s important in life is easy.,Highly disagree,69/150,Somewhat agree,3,1698178467251,1698178470484,\Somewhat agree\,\Somewhat agree\,\3\,1698178470067,1698178470067,2816,2816,3233,buq,qns-item-noham,69,252234,0.0-1.0-0.68
<b>Lots of smart people disagree about basic political questions.,Highly disagree,70/150,Highly agree,4,1698178470485,1698178472669,\Highly agree\,\Highly agree\,\4\,1698178472269,1698178472269,1784,1784,2184,buq,qns-item-noham,70,254419,0.0-1.0-0.69
<b>I swim across the Atlantic Ocean to get to work every day.,Highly disagree,71/150,Highly disagree,1,1698178472669,1698178475102,\Highly disagree\,\Highly disagree\,\1\,1698178474502,1698178474502,1833,1833,2433,buq,qns-item-noham,71,256852,0.0-1.0-0.70
"<b>Sometimes, you just have to ignore evidence that you know is wrong.",Highly disagree,72/150,Somewhat agree,3,1698178475103,1698178480154,\Somewhat agree\,\Somewhat agree\,\3\,1698178479487,1698178479487,4384,4384,5051,buq,qns-item-noham,72,261904,0.0-1.0-0.71
<b>I have had some false beliefs.,Highly disagree,73/150,Highly agree,4,1698178480155,1698178482422,\Highly agree\,\Highly agree\,\4\,1698178481822,1698178481822,1667,1667,2267,buq,qns-item-noham,73,264172,0.0-1.0-0.72
"<b>If one friend does something that upsets me, I sometimes start to distrust people in general.",Highly disagree,74/150,Somewhat agree,3,1698178482422,1698178485255,\Somewhat agree\,\Somewhat agree\,\3\,1698178484789,1698178484789,2367,2367,2833,buq,qns-item-noham,74,267005,0.0-1.0-0.73
<b>I easily apply what I learn in one situation to another.,Highly disagree,75/150,Highly agree,4,1698178485256,1698178490223,\Highly agree\,\Highly agree\,\4\,1698178489473,1698178489473,4217,4217,4967,buq,qns-item-noham,75,271974,0.0-1.0-0.74
<b>The facts about most important matters are easy to find.,Highly disagree,76/150,Highly disagree,1,1698178490224,1698178509663,\Somewhat disagree\,\Highly disagree\,\2\,1698178507196,1698178509013,16972,18789,19439,buq,qns-item-noham,76,291413,0.0-1.0-0.75
<b>It?s better to know what?s true than to know what?s moral.,Highly disagree,77/150,Highly agree,4,1698178509664,1698178512848,\Highly agree\,\Highly agree\,\4\,1698178512231,1698178512231,2567,2567,3184,buq,qns-item-noham,77,294598,0.0-1.0-0.76
<b>It?s good to be skeptical of people you agree with.,Highly disagree,78/150,Highly agree,4,1698178512849,1698178515031,\Highly agree\,\Highly agree\,\4\,1698178514581,1698178514581,1732,1732,2182,buq,qns-item-noham,78,296781,0.0-1.0-0.77
<b>Sometimes reasonable beliefs are wrong.,Highly disagree,79/150,Highly agree,4,1698178515032,1698178517099,\Highly agree\,\Highly agree\,\4\,1698178516616,1698178516616,1584,1584,2067,buq,qns-item-noham,79,298849,0.0-1.0-0.78
<b>I used to think the world was less complicated than I do now.,Highly disagree,80/150,Highly agree,4,1698178517100,1698178519216,\Highly agree\,\Highly agree\,\4\,1698178518783,1698178518783,1683,1683,2116,buq,qns-item-noham,80,300966,0.0-1.0-0.79
<b>People are usually completely right or completely wrong.,Highly disagree,81/150,Somewhat disagree,2,1698178519217,1698178521151,\Somewhat disagree\,\Somewhat disagree\,\2\,1698178520701,1698178520701,1484,1484,1934,buq,qns-item-noham,81,302901,0.0-1.0-0.80
<b>I spend a lot of time considering alternatives to my beliefs.,Highly disagree,82/150,Somewhat agree,3,1698178521152,1698178523201,\Somewhat agree\,\Somewhat agree\,\3\,1698178522768,1698178522768,1616,1616,2049,buq,qns-item-noham,82,304951,0.0-1.0-0.81
"<b>Political enemies need to be defeated, not convinced.",Highly disagree,83/150,Somewhat agree,3,1698178523202,1698178526869,\Highly agree\,\Somewhat agree\,\4\,1698178525852,1698178526485,2650,3283,3667,buq,qns-item-noham,83,308619,0.0-1.0-0.82
"<b>When forming an opinion about a restaurant, I am more swayed by my  latest meal there than  previous meals I?ve had there.",Highly disagree,84/150,Somewhat disagree,2,1698178526870,1698178530319,\Somewhat disagree\,\Somewhat disagree\,\2\,1698178529903,1698178529903,3033,3033,3449,buq,qns-item-noham,84,312069,0.0-1.0-0.83
<b>I try to remain skeptical about most topics.,Highly disagree,85/150,Somewhat agree,3,1698178530320,1698178532554,\Somewhat agree\,\Somewhat agree\,\3\,1698178532154,1698178532154,1834,1834,2234,buq,qns-item-noham,85,314304,0.0-1.0-0.84
<b>Being wrong is usually obvious in retrospect.,Highly disagree,86/150,Highly agree,4,1698178532555,1698178538639,\Somewhat agree\,\Highly agree\,\3\,1698178537722,1698178538189,5167,5634,6084,buq,qns-item-noham,86,320389,0.0-1.0-0.85
<b>It can be hard to realize that my beliefs are in conflict.,Highly disagree,87/150,Somewhat agree,3,1698178538640,1698178541057,\Somewhat agree\,\Somewhat agree\,\3\,1698178540539,1698178540539,1899,1899,2417,buq,qns-item-noham,87,322807,0.0-1.0-0.86
<b>I form my political views only after meticulously gathering historical and present information about their policies.,Highly disagree,88/150,Somewhat agree,3,1698178541057,1698178544207,\Somewhat agree\,\Somewhat agree\,\3\,1698178543574,1698178543574,2517,2517,3150,buq,qns-item-noham,88,325957,0.0-1.0-0.87
<b>Skeptical people are usually just bad-tempered.,Highly disagree,89/150,Highly disagree,1,1698178544208,1698178546742,\Highly disagree\,\Highly disagree\,\1\,1698178546308,1698178546308,2100,2100,2534,buq,qns-item-noham,89,328492,0.0-1.0-0.88
<b>It is difficult for me to remember the last time I was surprised by politics.,Highly disagree,90/150,Highly agree,4,1698178546742,1698178549525,\Highly agree\,\Highly agree\,\4\,1698178549075,1698178549075,2333,2333,2783,buq,qns-item-noham,90,331275,0.0-1.0-0.89
"<b>When I find out I?m wrong, I think a lot about my related beliefs.",Highly disagree,91/150,Somewhat agree,3,1698178549526,1698178551843,\Somewhat agree\,\Somewhat agree\,\3\,1698178551160,1698178551160,1634,1634,2317,buq,qns-item-noham,91,333593,0.0-1.0-0.90
"<b>If the political party I support messes up, it makes me think you can?t trust anyone these days",Highly disagree,92/150,Somewhat disagree,2,1698178551844,1698178554610,\Somewhat disagree\,\Somewhat disagree\,\2\,1698178554094,1698178554094,2250,2250,2766,buq,qns-item-noham,92,336360,0.0-1.0-0.91
<b>People?s brains turn off when they talk about politics.,Highly disagree,93/150,Highly disagree,1,1698178554611,1698178557462,\Somewhat disagree\,\Highly disagree\,\2\,1698178556678,1698178557012,2067,2401,2851,buq,qns-item-noham,93,339212,0.0-1.0-0.92
<b>People who are wrong are usually just ignoring the obvious.,Highly disagree,94/150,Highly disagree,1,1698178557462,1698178560129,\Highly disagree\,\Highly disagree\,\1\,1698178559662,1698178559662,2200,2200,2667,buq,qns-item-noham,94,341879,0.0-1.0-0.93
"<b>The world isn?t that complicated, but it?s still hard to figure out how it works.",Highly disagree,95/150,Somewhat agree,3,1698178560129,1698178564480,\Somewhat agree\,\Somewhat agree\,\3\,1698178564080,1698178564080,3951,3951,4351,buq,qns-item-noham,95,346230,0.0-1.0-0.94
"<b>When forming my views on people, I rely more on what they are like now rather than rely on my past experience with them.",Highly disagree,96/150,Somewhat disagree,2,1698178564481,1698178572600,\Somewhat disagree\,\Somewhat disagree\,\2\,1698178571049,1698178571049,6568,6568,8119,buq,qns-item-noham,96,354350,0.0-1.0-0.95
"<b>When people contradict my beliefs, I usually know about their evidence already.",Highly disagree,97/150,Highly agree,4,1698178572601,1698178577018,\Highly agree\,\Highly agree\,\4\,1698178576501,1698178576501,3900,3900,4417,buq,qns-item-noham,97,358768,0.0-1.0-0.96
<b>Being wrong is a matter of degree.,Highly disagree,98/150,Somewhat agree,3,1698178577019,1698178579368,\Somewhat agree\,\Somewhat agree\,\3\,1698178578885,1698178578885,1866,1866,2349,buq,qns-item-noham,98,361118,0.0-1.0-0.97
<b>Figuring out what?s true and what?s false mainly requires a strong moral compass.,Highly disagree,99/150,Highly agree,4,1698178579369,1698178590371,\Highly agree\,\Highly agree\,\4\,1698178589738,1698178589738,10369,10369,11002,buq,qns-item-noham,99,372121,0.0-1.0-0.98
<b>Most of the beliefs people have are at least somewhat understandable.,Highly disagree,100/150,Somewhat agree,3,1698178590372,1698178594990,\Somewhat agree\,\Somewhat agree\,\3\,1698178593606,1698178594589,3234,4217,4618,buq,qns-item-noham,100,376740,0.0-1.0-0.99
"<b>Usually I?m wrong about simple things, not complicated ones.",Highly disagree,101/150,Highly disagree,1,1698178594990,1698178597841,\Highly disagree\,\Highly disagree\,\1\,1698178597307,1698178597307,2317,2317,2851,buq,qns-item-noham,101,379591,0.0-1.0-0.100
<b>Getting all the information I want about important things is hard.,Highly disagree,102/150,Somewhat disagree,2,1698178597841,1698178601025,\Somewhat disagree\,\Somewhat disagree\,\2\,1698178600574,1698178600574,2733,2733,3184,buq,qns-item-noham,102,382775,0.0-1.0-0.101
<b>Most false beliefs spread because people try to deceive one another.,Highly disagree,103/150,Somewhat disagree,2,1698178601026,1698178605559,\Somewhat disagree\,\Somewhat disagree\,\2\,1698178603826,1698178603826,2800,2800,4533,buq,qns-item-noham,103,387309,0.0-1.0-0.102
<b>I can usually find something to agree with in most people?s beliefs.,Highly disagree,104/150,Somewhat disagree,2,1698178605560,1698178609827,\Somewhat agree\,\Somewhat disagree\,\3\,1698178608094,1698178609227,2534,3667,4267,buq,qns-item-noham,104,391577,0.0-1.0-0.103
<b>I only form my views of people once I get to know them very well.,Highly disagree,105/150,Somewhat disagree,2,1698178609828,1698178613079,\Somewhat disagree\,\Somewhat disagree\,\2\,1698178612529,1698178612529,2701,2701,3251,buq,qns-item-noham,105,394829,0.0-1.0-0.104
"<b>When people tell me important things about the world, I usually believe them.",Highly disagree,106/150,Somewhat disagree,2,1698178613080,1698178615529,\Somewhat disagree\,\Somewhat disagree\,\2\,1698178615096,1698178615096,2016,2016,2449,buq,qns-item-noham,106,397279,0.0-1.0-0.105
"<b>If a friend does something that upsets me, it reminds me what an unpredictable place the world is.",Highly disagree,107/150,Somewhat agree,3,1698178615530,1698178618230,\Somewhat agree\,\Somewhat agree\,\3\,1698178617847,1698178617847,2317,2317,2700,buq,qns-item-noham,107,399980,0.0-1.0-0.106
<b>Having some conflicting beliefs is inevitable.,Highly disagree,108/150,Somewhat agree,3,1698178618231,1698178620231,\Somewhat agree\,\Somewhat agree\,\3\,1698178619814,1698178619814,1583,1583,2000,buq,qns-item-noham,108,401981,0.0-1.0-0.107
<b>People are wrong because they haven?t thought much about things.,Highly disagree,109/150,Highly agree,4,1698178620231,1698178622348,\Highly agree\,\Highly agree\,\4\,1698178621915,1698178621915,1684,1684,2117,buq,qns-item-noham,109,404098,0.0-1.0-0.108
<b>People tend to believe whatever is good for their friends.,Highly disagree,110/150,Somewhat agree,3,1698178622349,1698178624982,\Somewhat agree\,\Somewhat agree\,\3\,1698178624232,1698178624232,1883,1883,2633,buq,qns-item-noham,110,406732,0.0-1.0-0.109
"<b>When I talk about important topics, I try to make sure people know I?m not always right.",Highly disagree,111/150,Highly disagree,1,1698178624983,1698178629084,\Highly disagree\,\Highly disagree\,\1\,1698178628150,1698178628150,3167,3167,4101,buq,qns-item-noham,111,410834,0.0-1.0-0.110
<b>I used to be more certain my beliefs were true.,Highly disagree,112/150,Highly disagree,1,1698178629084,1698178631402,\Highly disagree\,\Highly disagree\,\1\,1698178631001,1698178631001,1917,1917,2318,buq,qns-item-noham,112,413152,0.0-1.0-0.111
<b>It?s often pretty easy to figure out whether something is true based on who said it.,Highly disagree,113/150,Highly agree,4,1698178631403,1698178635169,\Highly agree\,\Highly agree\,\4\,1698178634685,1698178634685,3282,3282,3766,buq,qns-item-noham,113,416919,0.0-1.0-0.112
<b>Having bad food in my favorite restaurant will make me think the restaurant is no longer good.,Highly disagree,114/150,Somewhat disagree,2,1698178635170,1698178638470,\Somewhat disagree\,\Somewhat disagree\,\2\,1698178638086,1698178638086,2916,2916,3300,buq,qns-item-noham,114,420220,0.0-1.0-0.113
<b>I transform into a hummingbird every day.,Highly disagree,115/150,Highly disagree,1,1698178638471,1698178640637,\Highly disagree\,\Highly disagree\,\1\,1698178640153,1698178640153,1682,1682,2166,buq,qns-item-noham,115,422387,0.0-1.0-0.114
"<b>Unfortunately, when people are wrong, it?s usually because they?re bad.",Highly disagree,116/150,Highly disagree,1,1698178640637,1698178643921,\Highly disagree\,\Highly disagree\,\1\,1698178643438,1698178643438,2801,2801,3284,buq,qns-item-noham,116,425671,0.0-1.0-0.115
<b>I think a lot about arguments against my views.,Highly disagree,117/150,Somewhat agree,3,1698178643922,1698178646539,\Somewhat agree\,\Somewhat agree\,\3\,1698178646106,1698178646106,2184,2184,2617,buq,qns-item-noham,117,428289,0.0-1.0-0.116
<b>Details tend to matter a lot for knowing whether a policy is good.,Highly disagree,118/150,Somewhat agree,3,1698178646540,1698178652424,\Somewhat agree\,\Somewhat agree\,\3\,1698178652024,1698178652024,5484,5484,5884,buq,qns-item-noham,118,434174,0.0-1.0-0.117
<b>Personal experience is usually more important than facts and figures.,Highly disagree,119/150,Somewhat agree,3,1698178652425,1698178655708,\Somewhat agree\,\Somewhat agree\,\3\,1698178655325,1698178655325,2900,2900,3283,buq,qns-item-noham,119,437458,0.0-1.0-0.118
<b>I?ve been tricked before about important matters.,Highly disagree,120/150,Somewhat agree,3,1698178655709,1698178658009,\Somewhat agree\,\Somewhat agree\,\3\,1698178657626,1698178657626,1917,1917,2300,buq,qns-item-noham,120,439759,0.0-1.0-0.119
<b>I would need to be totally wowed if I were to change my opinion of a restaurant I don?t like.,Highly disagree,121/150,Highly agree,4,1698178658010,1698178661877,\Highly agree\,\Highly agree\,\4\,1698178661461,1698178661461,3451,3451,3867,buq,qns-item-noham,121,443627,0.0-1.0-0.120
<b>I care a lot about politics.,Highly disagree,122/150,Somewhat disagree,2,1698178661878,1698178663644,\Somewhat disagree\,\Somewhat disagree\,\2\,1698178663161,1698178663161,1283,1283,1766,buq,qns-item-noham,122,445394,0.0-1.0-0.121
<b>People with conflicting beliefs usually have some facts they disagree on.,Highly disagree,123/150,Somewhat agree,3,1698178663645,1698178665962,\Somewhat agree\,\Somewhat agree\,\3\,1698178665578,1698178665578,1933,1933,2317,buq,qns-item-noham,123,447712,0.0-1.0-0.122
<b>There are some topics I?ve been really wrong about.,Highly disagree,124/150,Somewhat agree,3,1698178665963,1698178668279,\Somewhat agree\,\Somewhat agree\,\3\,1698178667829,1698178667829,1866,1866,2316,buq,qns-item-noham,124,450029,0.0-1.0-0.123
<b>Most beliefs can be supported with at least some evidence.,Highly disagree,125/150,Somewhat agree,3,1698178668280,1698178672047,\Somewhat agree\,\Somewhat agree\,\3\,1698178671397,1698178671397,3117,3117,3767,buq,qns-item-noham,125,453797,0.0-1.0-0.124
<b>Other people make life out to be more complicated than it really is.,Highly disagree,126/150,Somewhat agree,3,1698178672048,1698178674714,\Somewhat agree\,\Somewhat agree\,\3\,1698178674247,1698178674247,2199,2199,2666,buq,qns-item-noham,126,456464,0.0-1.0-0.125
"<b>My political views are being shaped continuously as I gather more information, rather than relying on what I?ve known to be true of my party in the past. ",Highly disagree,127/150,Somewhat disagree,2,1698178674715,1698178681117,\Somewhat disagree\,\Somewhat disagree\,\2\,1698178680616,1698178680616,5901,5901,6402,buq,qns-item-noham,127,462867,0.0-1.0-0.126
<b>It?s pretty unusual for true things to seem false.,Highly disagree,128/150,Somewhat agree,3,1698178681118,1698178704540,\Somewhat agree\,\Somewhat agree\,\3\,1698178698738,1698178698738,17620,17620,23422,buq,qns-item-noham,128,486290,0.0-1.0-0.127
"<b>Policy details don?t matter much, just the big picture.",Highly disagree,129/150,Somewhat disagree,2,1698178704541,1698178713427,\Somewhat disagree\,\Somewhat disagree\,\2\,1698178713010,1698178713010,8469,8469,8886,buq,qns-item-noham,129,495177,0.0-1.0-0.128
<b>I know my friends so well they can hardly ever surprise me.,Highly disagree,130/150,Highly agree,4,1698178713427,1698178718111,\Somewhat agree\,\Highly agree\,\3\,1698178717144,1698178717678,3717,4251,4684,buq,qns-item-noham,130,499861,0.0-1.0-0.129
"<b>When I talk to people, I often think about why they have the beliefs they do.",Highly disagree,131/150,Highly agree,4,1698178718112,1698178720346,\Highly agree\,\Highly agree\,\4\,1698178719928,1698178719928,1816,1816,2234,buq,qns-item-noham,131,502096,0.0-1.0-0.130
<b>I do not often change my views on people.,Highly disagree,132/150,Highly agree,4,1698178720347,1698178722229,\Highly agree\,\Highly agree\,\4\,1698178721729,1698178721729,1382,1382,1882,buq,qns-item-noham,132,503979,0.0-1.0-0.131
<b>I often wish I had more time to spend figuring out what?s true and what?s false in life.,Highly disagree,133/150,Highly agree,4,1698178722230,1698178724513,\Highly agree\,\Highly agree\,\4\,1698178724113,1698178724113,1883,1883,2283,buq,qns-item-noham,133,506263,0.0-1.0-0.132
<b>I?m more certain about my beliefs than I used to be.,Highly disagree,134/150,Highly agree,4,1698178724514,1698178726431,\Highly agree\,\Highly agree\,\4\,1698178725914,1698178725914,1400,1400,1917,buq,qns-item-noham,134,508181,0.0-1.0-0.133
"<b>Whenever I find out new information, I update my views on politics accordingly.",Highly disagree,135/150,Somewhat agree,3,1698178726431,1698178728598,\Somewhat agree\,\Somewhat agree\,\3\,1698178728148,1698178728148,1717,1717,2167,buq,qns-item-noham,135,510348,0.0-1.0-0.134
<b>People often tell falsehoods unintentionally.,Highly disagree,136/150,Somewhat agree,3,1698178728598,1698178731249,\Somewhat agree\,\Somewhat agree\,\3\,1698178730799,1698178730799,2201,2201,2651,buq,qns-item-noham,136,512999,0.0-1.0-0.135
<b>Most people don?t know much about most things.,Highly disagree,137/150,Somewhat agree,3,1698178731250,1698178745152,\Somewhat agree\,\Somewhat agree\,\3\,1698178744536,1698178744536,13286,13286,13902,buq,qns-item-noham,137,526902,0.0-1.0-0.136
"<b>If I find out something new about someone, I easily change my views about them.",Highly disagree,138/150,Somewhat agree,3,1698178745153,1698178748254,\Somewhat agree\,\Somewhat agree\,\3\,1698178747754,1698178747754,2601,2601,3101,buq,qns-item-noham,138,530004,0.0-1.0-0.137
<b>Having true beliefs is difficult.,Highly disagree,139/150,Somewhat agree,3,1698178748255,1698178751955,\Somewhat agree\,\Somewhat agree\,\3\,1698178751522,1698178751522,3267,3267,3700,buq,qns-item-noham,139,533705,0.0-1.0-0.138
<b>I don?t try new foods since I know I won?t like them.,Highly disagree,140/150,Highly disagree,1,1698178751956,1698178754773,\Highly disagree\,\Highly disagree\,\1\,1698178753939,1698178753939,1983,1983,2817,buq,qns-item-noham,140,536523,0.0-1.0-0.139
<b>It?s easy to figure out what?s true or false based on who?s saying it.,Highly disagree,141/150,Somewhat agree,3,1698178754773,1698178757324,\Somewhat agree\,\Somewhat agree\,\3\,1698178756807,1698178756807,2034,2034,2551,buq,qns-item-noham,141,539074,0.0-1.0-0.140
<b>False things have seemed true to me many times.,Highly disagree,142/150,Highly agree,4,1698178757324,1698178760357,\Highly agree\,\Highly agree\,\4\,1698178759941,1698178759941,2617,2617,3033,buq,qns-item-noham,142,542107,0.0-1.0-0.141
<b>It?s pretty easy to sort out what?s true and what?s false in life.,Highly disagree,143/150,Somewhat agree,3,1698178760358,1698178762558,\Somewhat agree\,\Somewhat agree\,\3\,1698178762175,1698178762175,1817,1817,2200,buq,qns-item-noham,143,544308,0.0-1.0-0.142
<b>Knowing lots of statistics about something is usually important for understanding it.,Highly disagree,144/150,Somewhat agree,3,1698178762559,1698178765042,\Somewhat agree\,\Somewhat agree\,\3\,1698178764392,1698178764392,1833,1833,2483,buq,qns-item-noham,144,546792,0.0-1.0-0.143
<b>Other people trick each other a lot.,Highly disagree,145/150,Somewhat agree,3,1698178765043,1698178767277,\Somewhat agree\,\Somewhat agree\,\3\,1698178766910,1698178766910,1867,1867,2234,buq,qns-item-noham,145,549027,0.0-1.0-0.144
<b>I would need to learn a lot about a person for my opinion of them to be swayed.,Highly disagree,146/150,Somewhat agree,3,1698178767278,1698178770027,\Somewhat agree\,\Somewhat agree\,\3\,1698178769627,1698178769627,2349,2349,2749,buq,qns-item-noham,146,551777,0.0-1.0-0.145
<b>People can?t usually trick me when it comes to topics I care about.,Highly disagree,147/150,Highly agree,4,1698178770028,1698178772412,\Highly agree\,\Highly agree\,\4\,1698178772062,1698178772062,2034,2034,2384,buq,qns-item-noham,147,554162,0.0-1.0-0.146
<b>I do not often change my views on food.,Highly disagree,148/150,Highly agree,4,1698178772412,1698178774545,\Highly agree\,\Highly agree\,\4\,1698178774078,1698178774078,1666,1666,2133,buq,qns-item-noham,148,556295,0.0-1.0-0.147
<b>Specific policies are often very important to me.,Highly disagree,149/150,Somewhat disagree,2,1698178774546,1698178776496,\Somewhat disagree\,\Somewhat disagree\,\2\,1698178776014,1698178776014,1468,1468,1950,buq,qns-item-noham,149,558246,0.0-1.0-0.148
<b>Most people are woefully under-informed.,Highly disagree,150/150,Highly agree,4,1698178776497,1698178778930,\Somewhat agree\,\Highly agree\,\3\,1698178778130,1698178778580,1633,2083,2433,buq,qns-item-noham,150,560680,0.0-1.0-0.149
