Question,qns_options,quest_num,answer,answer_num,question_load_timestamp,next_btn_timestamp,text_selected,final_text_selected,option_num_selected,preview_timestamps,final_text_selected_time_stamp,rt_first_option_click,rt_final_option_click,rt_submit_click,questionnaire,trial_type,trial_index,time_elapsed,internal_node_id
<b>Considering other people?s perspectives can help us figure out what?s true or false.,Highly disagree,1/150,Highly agree,4,1698178864366,1698178871153,\Highly agree\,\Highly agree\,\4\,1698178870194,1698178870194,5828,5828,6787,buq,qns-item-noham,1,74131,0.0-1.0-0.0
<b>Knowing what?s true and knowing what to do about it are usually basically the same.,Highly disagree,2/150,Somewhat agree,3,1698178871158,1698179012769,\Somewhat agree\,\Somewhat agree\,\3\,1698179010600,1698179010600,139442,139442,141611,buq,qns-item-noham,2,215746,0.0-1.0-0.1
<b>Most people just believe whatever is convenient for them.,Highly disagree,3/150,Highly agree,4,1698179012772,1698179016290,\Highly agree\,\Highly agree\,\4\,1698179015506,1698179015506,2734,2734,3518,buq,qns-item-noham,3,219268,0.0-1.0-0.2
<b>Even people who are wrong about most things can be right sometimes.,Highly disagree,4/150,Somewhat agree,3,1698179016294,1698179024258,\Somewhat agree\,\Somewhat agree\,\3\,1698179023554,1698179023554,7260,7260,7964,buq,qns-item-noham,4,227235,0.0-1.0-0.3
"<b>If the political party I support does something that upsets me, then the party may have changed, and I need to re-evaluate my support.",Highly disagree,5/150,Highly agree,4,1698179024261,1698179032457,\Highly agree\,\Highly agree\,\4\,1698179029600,1698179029600,5339,5339,8196,buq,qns-item-noham,5,235434,0.0-1.0-0.4
"<b>When people disagree, one side is usually completely right.",Highly disagree,6/150,Somewhat agree,3,1698179032460,1698179039034,\Somewhat agree\,\Somewhat agree\,\3\,1698179038240,1698179038240,5780,5780,6574,buq,qns-item-noham,6,242011,0.0-1.0-0.5
<b>People have lots of false beliefs.,Highly disagree,7/150,Somewhat agree,3,1698179039038,1698179047803,\Somewhat agree\,\Somewhat agree\,\3\,1698179046913,1698179046913,7875,7875,8765,buq,qns-item-noham,7,250780,0.0-1.0-0.6
<b>Having some big beliefs helps me sort out minor ones.,Highly disagree,8/150,Highly agree,4,1698179047806,1698179051250,\Highly agree\,\Highly agree\,\4\,1698179050537,1698179050537,2731,2731,3444,buq,qns-item-noham,8,254227,0.0-1.0-0.7
<b>Political questions are usually pretty complicated.,Highly disagree,9/150,Highly disagree,1,1698179051253,1698179056289,\Highly disagree\,\Highly disagree\,\1\,1698179055592,1698179055592,4339,4339,5036,buq,qns-item-noham,9,259266,0.0-1.0-0.8
<b>Figuring out what?s important in life requires learning a lot of facts.,Highly disagree,10/150,Highly agree,4,1698179056293,1698179073020,\Highly agree\,\Highly agree\,\4\,1698179072289,1698179072289,15996,15996,16727,buq,qns-item-noham,10,275997,0.0-1.0-0.9
<b>It is difficult for me to remember the last time I was surprised by politics.,Highly disagree,11/150,Highly disagree,1,1698179073023,1698179077738,\Highly agree\,\Highly disagree\,\4\,1698179075721,1698179076682,2698,3659,4715,buq,qns-item-noham,11,280715,0.0-1.0-0.10
<b>People?s false beliefs are understandable.,Highly disagree,12/150,Highly disagree,1,1698179077740,1698179082105,\Highly disagree\,\Highly disagree\,\1\,1698179081201,1698179081201,3461,3461,4365,buq,qns-item-noham,12,285082,0.0-1.0-0.11
<b>I spend a lot of time trying to be informed about politics.,Highly disagree,13/150,Highly disagree,1,1698179082108,1698179085721,\Highly disagree\,\Highly disagree\,\1\,1698179084944,1698179084944,2836,2836,3613,buq,qns-item-noham,13,288698,0.0-1.0-0.12
<b>I think a lot about whether my beliefs are right.,Highly disagree,14/150,Highly disagree,1,1698179085726,1698179089945,\Highly disagree\,\Highly disagree\,\1\,1698179089280,1698179089280,3554,3554,4219,buq,qns-item-noham,14,292922,0.0-1.0-0.13
<b>Statistics can be pretty misleading sometimes.,Highly disagree,15/150,Highly agree,4,1698179089947,1698179094585,\Highly agree\,\Highly agree\,\4\,1698179093847,1698179093847,3900,3900,4638,buq,qns-item-noham,15,297563,0.0-1.0-0.14
<b>Figuring out what?s true and what?s false takes a lot of time and effort.,Highly disagree,16/150,Highly disagree,1,1698179094587,1698179098218,\Highly disagree\,\Highly disagree\,\1\,1698179097489,1698179097489,2902,2902,3631,buq,qns-item-noham,16,301195,0.0-1.0-0.15
"<b>If a friend does something bad to me, it was likely an error on their part.",Highly disagree,17/150,Highly disagree,1,1698179098222,1698179279465,\Highly disagree\,\Highly disagree\,\1\,1698179278704,1698179278704,180482,180482,181243,buq,qns-item-noham,17,482442,0.0-1.0-0.16
<b>I have lots of beliefs that I?m only sort of sure about.,Highly disagree,18/150,Highly agree,4,1698179279468,1698179294802,\Highly agree\,\Highly agree\,\4\,1698179293840,1698179293840,14372,14372,15334,buq,qns-item-noham,18,497779,0.0-1.0-0.17
"<b>If I go to my favorite restaurant and the food is surprisingly bad, it reminds me there are many disappointments in life.",Highly disagree,19/150,Highly disagree,1,1698179294804,1698179305507,\Highly disagree\,\Highly disagree\,\1\,1698179304864,1698179304864,10060,10060,10703,buq,qns-item-noham,19,508484,0.0-1.0-0.18
<b>Sometimes my beliefs are inconvenient for me.,Highly disagree,20/150,Highly disagree,1,1698179305510,1698179319137,\Highly disagree\,\Highly disagree\,\1\,1698179307881,1698179317849,2371,12339,13627,buq,qns-item-noham,20,522115,0.0-1.0-0.19
<b>Paying attention to multiple news sources is important.,Highly disagree,21/150,Highly disagree,1,1698179319140,1698179322401,\Highly disagree\,\Highly disagree\,\1\,1698179321625,1698179321625,2485,2485,3261,buq,qns-item-noham,21,525378,0.0-1.0-0.20
"<b>If you are paying attention, please select ?Somewhat agree?",Highly disagree,22/150,Somewhat agree,3,1698179322405,1698179328666,\Somewhat agree\,\Somewhat agree\,\3\,1698179326746,1698179326746,4341,4341,6261,buq,qns-item-noham,22,531643,0.0-1.0-0.21
"<b>When I talk to others, I often worry I?ll convince them of something I didn?t mean to.",Highly disagree,23/150,Highly disagree,1,1698179328667,1698179333065,\Highly disagree\,\Highly disagree\,\1\,1698179331993,1698179331993,3326,3326,4398,buq,qns-item-noham,23,536042,0.0-1.0-0.22
<b>I would need to learn something utterly shocking about my party in order to change my political views.,Highly disagree,24/150,Somewhat disagree,2,1698179333068,1698179347018,\Highly disagree\,\Somewhat disagree\,\1\,1698179335921,1698179346265,2853,13197,13950,buq,qns-item-noham,24,549995,0.0-1.0-0.23
"<b>When I have new experiences, I tend to think of them as unique.",Highly disagree,25/150,Highly agree,4,1698179347020,1698179471826,\Highly agree\,\Highly agree\,\4\,1698179471137,1698179471137,124117,124117,124806,buq,qns-item-noham,25,674803,0.0-1.0-0.24
<b>Reading lots of things is important for understanding the world.,Highly disagree,26/150,Highly agree,4,1698179471830,1698179475673,\Highly agree\,\Highly agree\,\4\,1698179474969,1698179474969,3139,3139,3843,buq,qns-item-noham,26,678650,0.0-1.0-0.25
<b>The world is complicated.,Highly disagree,27/150,Highly agree,4,1698179475675,1698179478795,\Highly agree\,\Highly agree\,\4\,1698179477544,1698179478137,1869,2462,3120,buq,qns-item-noham,27,681772,0.0-1.0-0.26
<b>I change my mind about specific policies pretty frequently.,Highly disagree,28/150,Highly disagree,1,1698179478798,1698179481850,\Highly disagree\,\Highly disagree\,\1\,1698179481201,1698179481201,2403,2403,3052,buq,qns-item-noham,28,684827,0.0-1.0-0.27
"<b>If a politician in my political party supports something I disagree with, I give them the benefit of the doubt, as such issues often involve hidden complexities that aren?t obvious.   ",Highly disagree,29/150,Highly disagree,1,1698179481853,1698179486681,\Highly disagree\,\Highly disagree\,\1\,1698179485937,1698179485937,4084,4084,4828,buq,qns-item-noham,29,689658,0.0-1.0-0.28
<b>People?s bad politics are usually motivated by hatefulness.,Highly disagree,30/150,Highly agree,4,1698179486683,1698179658978,\Highly agree\,\Highly agree\,\4\,1698179488664,1698179488664,1981,1981,172295,buq,qns-item-noham,30,861955,0.0-1.0-0.29
"<b>Most new experiences are just like old ones, but a little bit different.",Highly disagree,31/150,Highly agree,4,1698179658980,1698179662914,\Highly agree\,\Highly agree\,\4\,1698179661689,1698179661689,2709,2709,3934,buq,qns-item-noham,31,865891,0.0-1.0-0.30
<b>I think a lot about how to reconcile my beliefs with one another.,Highly disagree,32/150,Highly agree,4,1698179662915,1698179669617,\Highly agree\,\Highly agree\,\4\,1698179664433,1698179664433,1518,1518,6702,buq,qns-item-noham,32,872594,0.0-1.0-0.31
<b>Personal experience rarely leads people astray.,Highly disagree,33/150,Highly agree,4,1698179669619,1698179675963,\Highly agree\,\Highly agree\,\4\,1698179675328,1698179675328,5709,5709,6344,buq,qns-item-noham,33,878941,0.0-1.0-0.32
<b>I might have false beliefs about important topics.,Highly disagree,34/150,Somewhat agree,3,1698179675967,1698179679344,\Somewhat agree\,\Somewhat agree\,\3\,1698179678720,1698179678720,2753,2753,3377,buq,qns-item-noham,34,882322,0.0-1.0-0.33
"<b>If a good friend of mine does something unexpected that upsets me, I feel like I don?t know them anymore.",Highly disagree,35/150,Somewhat agree,3,1698179679348,1698179696908,\Somewhat agree\,\Somewhat agree\,\3\,1698179696009,1698179696009,16661,16661,17560,buq,qns-item-noham,35,899885,0.0-1.0-0.34
<b>Other people?s beliefs are often incoherent.,Highly disagree,36/150,Highly disagree,1,1698179696910,1698179706513,\Highly disagree\,\Highly disagree\,\1\,1698179705338,1698179705338,8428,8428,9603,buq,qns-item-noham,36,909490,0.0-1.0-0.35
<b>It?s important to have friends who think about things differently than I do.,Highly disagree,37/150,Highly agree,4,1698179706516,1698179797162,\Highly agree\,\Highly agree\,\4\,1698179794345,1698179794345,87829,87829,90646,buq,qns-item-noham,37,1000139,0.0-1.0-0.36
"<b>Every now and then, a new experience will unsettle beliefs I?ve had for a while.",Highly disagree,38/150,Highly agree,4,1698179797165,1698179800818,\Highly agree\,\Highly agree\,\4\,1698179798833,1698179798833,1668,1668,3653,buq,qns-item-noham,38,1003795,0.0-1.0-0.37
<b>Some policies I agree with in principle are so bad I don?t support them. ,Highly disagree,39/150,Somewhat agree,3,1698179800821,1698179806299,\Highly disagree\,\Somewhat agree\,\1\,1698179803088,1698179805816,2267,4995,5478,buq,qns-item-noham,39,1009276,0.0-1.0-0.38
<b>I?m pretty sure I?ve accidentally spread false information.,Highly disagree,40/150,Highly disagree,1,1698179806300,1698179808834,\Highly disagree\,\Highly disagree\,\1\,1698179808329,1698179808329,2029,2029,2534,buq,qns-item-noham,40,1011811,0.0-1.0-0.39
"<b>If I go to my favorite restaurant and the food is unexpectedly bad, then they have changed owners.",Highly disagree,41/150,Highly disagree,1,1698179808839,1698179812497,\Highly disagree\,\Highly disagree\,\1\,1698179812001,1698179812001,3162,3162,3658,buq,qns-item-noham,41,1015474,0.0-1.0-0.40
"<b>In politics, it?s important to trust your friends and family.",Highly disagree,42/150,Highly disagree,1,1698179812501,1698179815690,\Highly disagree\,\Highly disagree\,\1\,1698179814864,1698179814864,2363,2363,3189,buq,qns-item-noham,42,1018667,0.0-1.0-0.41
<b>It?s OK to have some conflicting beliefs.,Highly disagree,43/150,Highly agree,4,1698179815692,1698179818218,\Highly agree\,\Highly agree\,\4\,1698179817225,1698179817225,1533,1533,2526,buq,qns-item-noham,43,1021195,0.0-1.0-0.42
<b>Sometimes the details of a matter seem to conflict with the big picture.,Highly disagree,44/150,Highly agree,4,1698179818220,1698179821369,\Highly agree\,\Highly agree\,\4\,1698179820737,1698179820737,2517,2517,3149,buq,qns-item-noham,44,1024346,0.0-1.0-0.43
<b>Listening to people I disagree with makes my opinions better.,Highly disagree,45/150,Highly disagree,1,1698179821372,1698179985401,\Highly agree\,\Highly disagree\,\4\,1698179823025,1698179984745,1653,163373,164029,buq,qns-item-noham,45,1188378,0.0-1.0-0.44
<b>Policies that sound bad are sometimes fine when you find out about their details.,Highly disagree,46/150,Highly agree,4,1698179985403,1698179988449,\Highly agree\,\Highly agree\,\4\,1698179987777,1698179987777,2374,2374,3046,buq,qns-item-noham,46,1191426,0.0-1.0-0.45
"<b>The world is always changing, so my beliefs are sometimes out-dated.",Highly disagree,47/150,Highly agree,4,1698179988451,1698179992354,\Highly agree\,\Highly agree\,\4\,1698179991449,1698179991449,2998,2998,3903,buq,qns-item-noham,47,1195331,0.0-1.0-0.46
"<b>If I receive a bad meal at my favorite restaurant and the food is surprisingly bad, I do not think much of it, and assume the chef is just having an ?off? day.",Highly disagree,48/150,Highly agree,4,1698179992356,1698179997812,\Highly agree\,\Highly agree\,\4\,1698179997112,1698179997112,4756,4756,5456,buq,qns-item-noham,48,1200789,0.0-1.0-0.47
"<b>False information is unavoidable, to some extent.",Highly disagree,49/150,Highly disagree,1,1698179997814,1698180002593,\Highly disagree\,\Highly disagree\,\1\,1698180001736,1698180001736,3922,3922,4779,buq,qns-item-noham,49,1205570,0.0-1.0-0.48
<b>My moral compass sometimes makes it harder to determine what?s true.,Highly disagree,50/150,Highly disagree,1,1698180002597,1698180005738,\Highly disagree\,\Highly disagree\,\1\,1698180004993,1698180004993,2396,2396,3141,buq,qns-item-noham,50,1208715,0.0-1.0-0.49
"<b>When you disagree with someone, it?s important to listen to them carefully.",Highly disagree,51/150,Highly agree,4,1698180005741,1698180008762,\Highly agree\,\Highly agree\,\4\,1698180007825,1698180007825,2084,2084,3021,buq,qns-item-noham,51,1211739,0.0-1.0-0.50
<b>Evidence pointing in the wrong direction isn?t really evidence at all.,Highly disagree,52/150,Somewhat agree,3,1698180008766,1698180015753,\Somewhat agree\,\Somewhat agree\,\3\,1698180014113,1698180014113,5347,5347,6987,buq,qns-item-noham,52,1218730,0.0-1.0-0.51
"<b>If the political party I support messes up, it makes me think politics is rotten.",Highly disagree,53/150,Highly agree,4,1698180015755,1698180018970,\Highly agree\,\Highly agree\,\4\,1698180018209,1698180018209,2454,2454,3215,buq,qns-item-noham,53,1221947,0.0-1.0-0.52
<b>Lots of important topics can only really be understood by some groups of people.,Highly disagree,54/150,Highly agree,4,1698180018972,1698180023233,\Highly agree\,\Highly agree\,\4\,1698180022537,1698180022537,3565,3565,4261,buq,qns-item-noham,54,1226211,0.0-1.0-0.53
<b>Details almost always matter for being right about something.,Highly disagree,55/150,Highly agree,4,1698180023236,1698180025354,\Highly agree\,\Highly agree\,\4\,1698180024625,1698180024625,1389,1389,2118,buq,qns-item-noham,55,1228331,0.0-1.0-0.54
"<b>The most important thing in politics is winning, not convincing people.",Highly disagree,56/150,Highly disagree,1,1698180025356,1698180032217,\Highly disagree\,\Highly disagree\,\1\,1698180027137,1698180027137,1781,1781,6861,buq,qns-item-noham,56,1235194,0.0-1.0-0.55
<b>Having conflicting beliefs means you haven?t thought about them enough.,Highly disagree,57/150,Highly disagree,1,1698180032219,1698180045729,\Highly disagree\,\Highly disagree\,\1\,1698180044953,1698180044953,12734,12734,13510,buq,qns-item-noham,57,1248707,0.0-1.0-0.56
<b>Other people have sometimes convinced me to change my mind on important topics.,Highly disagree,58/150,Highly agree,4,1698180045733,1698180053330,\Highly agree\,\Highly agree\,\4\,1698180052064,1698180052064,6331,6331,7597,buq,qns-item-noham,58,1256307,0.0-1.0-0.57
<b>I do not often change my political opinions.,Highly disagree,59/150,Highly disagree,1,1698180053333,1698180076322,\Highly disagree\,\Highly disagree\,\1\,1698180075626,1698180075626,22293,22293,22989,buq,qns-item-noham,59,1279299,0.0-1.0-0.58
<b>Thinking about how different things relate to one another is critical in life.,Highly disagree,60/150,Highly agree,4,1698180076325,1698180078716,\Highly agree\,\Highly agree\,\4\,1698180077761,1698180077761,1436,1436,2391,buq,qns-item-noham,60,1281693,0.0-1.0-0.59
<b>True beliefs can have unfortunate implications.,Highly disagree,61/150,Somewhat agree,3,1698180078719,1698180083202,\Somewhat agree\,\Somewhat agree\,\3\,1698180082729,1698180082729,4010,4010,4483,buq,qns-item-noham,61,1286179,0.0-1.0-0.60
<b>It?s difficult to not have at least some conflicting beliefs.,Highly disagree,62/150,Highly agree,4,1698180083206,1698180085379,\Highly agree\,\Highly agree\,\4\,1698180084825,1698180084825,1619,1619,2173,buq,qns-item-noham,62,1288356,0.0-1.0-0.61
"<b>When I learn new things, I think deeply about how my opinions should change.",Highly disagree,63/150,Highly agree,4,1698180085382,1698180093395,\Highly agree\,\Highly agree\,\4\,1698180092857,1698180092857,7475,7475,8013,buq,qns-item-noham,63,1296372,0.0-1.0-0.62
<b>I think a lot about how to interpret different sorts of evidence.,Highly disagree,64/150,Highly agree,4,1698180093398,1698180097210,\Highly agree\,\Highly agree\,\4\,1698180096033,1698180096033,2635,2635,3812,buq,qns-item-noham,64,1300187,0.0-1.0-0.63
<b>Politics is about thinking together and finding compromises.,Highly disagree,65/150,Highly agree,4,1698180097212,1698180100362,\Highly agree\,\Highly agree\,\4\,1698180099777,1698180099777,2565,2565,3150,buq,qns-item-noham,65,1303339,0.0-1.0-0.64
<b>Wishful thinking causes a lot of problems.,Highly disagree,66/150,Highly agree,4,1698180100364,1698180103816,\Highly agree\,\Highly agree\,\4\,1698180101833,1698180101833,1469,1469,3452,buq,qns-item-noham,66,1306793,0.0-1.0-0.65
<b>I judge a food item only once I try it many times.,Highly disagree,67/150,Highly agree,4,1698180103818,1698180271234,\Highly disagree\,\Highly agree\,\1\,1698180265546,1698180269608,161728,165790,167416,buq,qns-item-noham,67,1474211,0.0-1.0-0.66
"<b>When a person holds conflicting beliefs, they should really try to figure out what?s wrong.",Highly disagree,68/150,Highly disagree,1,1698180271236,1698180281738,\Highly disagree\,\Highly disagree\,\1\,1698180281073,1698180281073,9837,9837,10502,buq,qns-item-noham,68,1484716,0.0-1.0-0.67
<b>Knowing what?s important in life is easy.,Highly disagree,69/150,Highly disagree,1,1698180281740,1698180284736,\Highly agree\,\Highly disagree\,\4\,1698180283376,1698180284089,1636,2349,2996,buq,qns-item-noham,69,1487713,0.0-1.0-0.68
<b>Lots of smart people disagree about basic political questions.,Highly disagree,70/150,Highly disagree,1,1698180284739,1698180289185,\Highly disagree\,\Highly disagree\,\1\,1698180287249,1698180288649,2510,3910,4446,buq,qns-item-noham,70,1492162,0.0-1.0-0.69
<b>I swim across the Atlantic Ocean to get to work every day.,Highly disagree,71/150,Highly disagree,1,1698180289187,1698180291748,\Highly disagree\,\Highly disagree\,\1\,1698180291128,1698180291128,1941,1941,2561,buq,qns-item-noham,71,1494725,0.0-1.0-0.70
"<b>Sometimes, you just have to ignore evidence that you know is wrong.",Highly disagree,72/150,Highly disagree,1,1698180291750,1698180324530,\Highly disagree\,\Highly disagree\,\1\,1698180323777,1698180323777,32027,32027,32780,buq,qns-item-noham,72,1527507,0.0-1.0-0.71
<b>I have had some false beliefs.,Highly disagree,73/150,Highly disagree,1,1698180324533,1698180335457,\Highly disagree\,\Highly disagree\,\1\,1698180334673,1698180334673,10140,10140,10924,buq,qns-item-noham,73,1538435,0.0-1.0-0.72
"<b>If one friend does something that upsets me, I sometimes start to distrust people in general.",Highly disagree,74/150,Highly disagree,1,1698180335459,1698180345442,\Highly disagree\,\Highly disagree\,\1\,1698180344819,1698180344819,9360,9360,9983,buq,qns-item-noham,74,1548419,0.0-1.0-0.73
<b>I easily apply what I learn in one situation to another.,Highly disagree,75/150,Highly agree,4,1698180345445,1698180349730,\Highly agree\,\Highly agree\,\4\,1698180348841,1698180348841,3396,3396,4285,buq,qns-item-noham,75,1552707,0.0-1.0-0.74
<b>The facts about most important matters are easy to find.,Highly disagree,76/150,Highly agree,4,1698180349733,1698180352929,\Highly agree\,\Highly agree\,\4\,1698180351057,1698180351057,1324,1324,3196,buq,qns-item-noham,76,1555906,0.0-1.0-0.75
<b>It?s better to know what?s true than to know what?s moral.,Highly disagree,77/150,Somewhat agree,3,1698180352932,1698180357385,\Somewhat agree\,\Somewhat agree\,\3\,1698180356801,1698180356801,3869,3869,4453,buq,qns-item-noham,77,1560362,0.0-1.0-0.76
<b>It?s good to be skeptical of people you agree with.,Highly disagree,78/150,Highly agree,4,1698180357388,1698180360516,\Highly agree\,\Highly agree\,\4\,1698180359746,1698180359746,2358,2358,3128,buq,qns-item-noham,78,1563493,0.0-1.0-0.77
<b>Sometimes reasonable beliefs are wrong.,Highly disagree,79/150,Highly disagree,1,1698180360520,1698180365257,\Highly disagree\,\Highly disagree\,\1\,1698180363833,1698180363833,3313,3313,4737,buq,qns-item-noham,79,1568234,0.0-1.0-0.78
<b>I used to think the world was less complicated than I do now.,Highly disagree,80/150,Highly disagree,1,1698180365259,1698180370002,\Highly disagree\,\Highly disagree\,\1\,1698180369113,1698180369113,3854,3854,4743,buq,qns-item-noham,80,1572979,0.0-1.0-0.79
<b>People are usually completely right or completely wrong.,Highly disagree,81/150,Highly agree,4,1698180370004,1698180372634,\Highly agree\,\Highly agree\,\4\,1698180371896,1698180371896,1892,1892,2630,buq,qns-item-noham,81,1575611,0.0-1.0-0.80
<b>I spend a lot of time considering alternatives to my beliefs.,Highly disagree,82/150,Highly disagree,1,1698180372638,1698180378034,\Highly agree\,\Highly disagree\,\4\,1698180374530,1698180377369,1892,4731,5396,buq,qns-item-noham,82,1581011,0.0-1.0-0.81
"<b>Political enemies need to be defeated, not convinced.",Highly disagree,83/150,Highly agree,4,1698180378036,1698180381329,\Highly agree\,\Highly agree\,\4\,1698180379904,1698180379904,1868,1868,3293,buq,qns-item-noham,83,1584306,0.0-1.0-0.82
"<b>When forming an opinion about a restaurant, I am more swayed by my  latest meal there than  previous meals I?ve had there.",Highly disagree,84/150,Highly disagree,1,1698180381331,1698180391321,\Highly disagree\,\Highly disagree\,\1\,1698180390633,1698180390633,9302,9302,9990,buq,qns-item-noham,84,1594298,0.0-1.0-0.83
<b>I try to remain skeptical about most topics.,Highly disagree,85/150,Highly agree,4,1698180391325,1698180394266,\Highly agree\,\Highly agree\,\4\,1698180393372,1698180393372,2047,2047,2941,buq,qns-item-noham,85,1597243,0.0-1.0-0.84
<b>Being wrong is usually obvious in retrospect.,Highly disagree,86/150,Highly agree,4,1698180394269,1698180397572,\Highly agree\,\Highly agree\,\4\,1698180397002,1698180397002,2733,2733,3303,buq,qns-item-noham,86,1600549,0.0-1.0-0.85
<b>It can be hard to realize that my beliefs are in conflict.,Highly disagree,87/150,Highly agree,4,1698180397575,1698180400585,\Highly agree\,\Highly agree\,\4\,1698180399369,1698180399369,1794,1794,3010,buq,qns-item-noham,87,1603562,0.0-1.0-0.86
<b>I form my political views only after meticulously gathering historical and present information about their policies.,Highly disagree,88/150,Highly disagree,1,1698180400587,1698180404674,\Highly disagree\,\Highly disagree\,\1\,1698180404017,1698180404017,3430,3430,4087,buq,qns-item-noham,88,1607652,0.0-1.0-0.87
<b>Skeptical people are usually just bad-tempered.,Highly disagree,89/150,Highly disagree,1,1698180404677,1698180407569,\Highly disagree\,\Highly disagree\,\1\,1698180406745,1698180406745,2068,2068,2892,buq,qns-item-noham,89,1610546,0.0-1.0-0.88
<b>It is difficult for me to remember the last time I was surprised by politics.,Highly disagree,90/150,Highly disagree,1,1698180407573,1698180410929,\Highly disagree\,\Highly disagree\,\1\,1698180409785,1698180409785,2212,2212,3356,buq,qns-item-noham,90,1613906,0.0-1.0-0.89
"<b>When I find out I?m wrong, I think a lot about my related beliefs.",Highly disagree,91/150,Highly agree,4,1698180410931,1698180413410,\Highly agree\,\Highly agree\,\4\,1698180412752,1698180412752,1821,1821,2479,buq,qns-item-noham,91,1616387,0.0-1.0-0.90
"<b>If the political party I support messes up, it makes me think you can?t trust anyone these days",Highly disagree,92/150,Highly agree,4,1698180413413,1698180416458,\Highly agree\,\Highly agree\,\4\,1698180415865,1698180415865,2452,2452,3045,buq,qns-item-noham,92,1619435,0.0-1.0-0.91
<b>People?s brains turn off when they talk about politics.,Highly disagree,93/150,Highly disagree,1,1698180416461,1698180420186,\Highly disagree\,\Highly disagree\,\1\,1698180419537,1698180419537,3076,3076,3725,buq,qns-item-noham,93,1623163,0.0-1.0-0.92
<b>People who are wrong are usually just ignoring the obvious.,Highly disagree,94/150,Highly agree,4,1698180420188,1698180426394,\Highly agree\,\Highly agree\,\4\,1698180425393,1698180425393,5205,5205,6206,buq,qns-item-noham,94,1629371,0.0-1.0-0.93
"<b>The world isn?t that complicated, but it?s still hard to figure out how it works.",Highly disagree,95/150,Highly agree,4,1698180426398,1698180429705,\Highly agree\,\Highly agree\,\4\,1698180428409,1698180428409,2011,2011,3307,buq,qns-item-noham,95,1632682,0.0-1.0-0.94
"<b>When forming my views on people, I rely more on what they are like now rather than rely on my past experience with them.",Highly disagree,96/150,Highly agree,4,1698180429708,1698180433928,\Highly agree\,\Highly agree\,\4\,1698180431456,1698180431456,1748,1748,4220,buq,qns-item-noham,96,1636905,0.0-1.0-0.95
"<b>When people contradict my beliefs, I usually know about their evidence already.",Highly disagree,97/150,Somewhat agree,3,1698180433931,1698180441985,\Somewhat agree\,\Somewhat agree\,\3\,1698180441385,1698180441385,7454,7454,8054,buq,qns-item-noham,97,1644962,0.0-1.0-0.96
<b>Being wrong is a matter of degree.,Highly disagree,98/150,Somewhat disagree,2,1698180441990,1698180447618,\Highly agree\,\Somewhat disagree\,\4\,1698180446146,1698180447026,4156,5036,5628,buq,qns-item-noham,98,1650595,0.0-1.0-0.97
<b>Figuring out what?s true and what?s false mainly requires a strong moral compass.,Highly disagree,99/150,Highly agree,4,1698180447621,1698180450658,\Highly agree\,\Highly agree\,\4\,1698180449929,1698180449929,2308,2308,3037,buq,qns-item-noham,99,1653635,0.0-1.0-0.98
<b>Most of the beliefs people have are at least somewhat understandable.,Highly disagree,100/150,Highly agree,4,1698180450661,1698180453834,\Highly agree\,\Highly agree\,\4\,1698180453033,1698180453033,2372,2372,3173,buq,qns-item-noham,100,1656811,0.0-1.0-0.99
"<b>Usually I?m wrong about simple things, not complicated ones.",Highly disagree,101/150,Highly disagree,1,1698180453836,1698180457666,\Highly disagree\,\Highly disagree\,\1\,1698180457145,1698180457145,3309,3309,3830,buq,qns-item-noham,101,1660643,0.0-1.0-0.100
<b>Getting all the information I want about important things is hard.,Highly disagree,102/150,Highly agree,4,1698180457668,1698180460561,\Highly agree\,\Highly agree\,\4\,1698180460025,1698180460025,2357,2357,2893,buq,qns-item-noham,102,1663538,0.0-1.0-0.101
<b>Most false beliefs spread because people try to deceive one another.,Highly disagree,103/150,Highly agree,4,1698180460564,1698180463138,\Highly agree\,\Highly agree\,\4\,1698180462530,1698180462530,1966,1966,2574,buq,qns-item-noham,103,1666116,0.0-1.0-0.102
<b>I can usually find something to agree with in most people?s beliefs.,Highly disagree,104/150,Highly agree,4,1698180463141,1698180465589,\Highly agree\,\Highly agree\,\4\,1698180464961,1698180464961,1820,1820,2448,buq,qns-item-noham,104,1668566,0.0-1.0-0.103
<b>I only form my views of people once I get to know them very well.,Highly disagree,105/150,Highly agree,4,1698180465591,1698180478995,\Highly agree\,\Highly agree\,\4\,1698180467464,1698180467464,1873,1873,13404,buq,qns-item-noham,105,1681972,0.0-1.0-0.104
"<b>When people tell me important things about the world, I usually believe them.",Highly disagree,106/150,Highly disagree,1,1698180478997,1698180482745,\Highly agree\,\Highly disagree\,\4\,1698180481009,1698180482185,2012,3188,3748,buq,qns-item-noham,106,1685723,0.0-1.0-0.105
"<b>If a friend does something that upsets me, it reminds me what an unpredictable place the world is.",Highly disagree,107/150,Highly agree,4,1698180482747,1698180486122,\Highly agree\,\Highly agree\,\4\,1698180485353,1698180485353,2606,2606,3375,buq,qns-item-noham,107,1689099,0.0-1.0-0.106
<b>Having some conflicting beliefs is inevitable.,Highly disagree,108/150,Highly agree,4,1698180486125,1698180489233,\Highly agree\,\Highly agree\,\4\,1698180488554,1698180488554,2429,2429,3108,buq,qns-item-noham,108,1692210,0.0-1.0-0.107
<b>People are wrong because they haven?t thought much about things.,Highly disagree,109/150,Highly disagree,1,1698180489236,1698180492562,\Highly disagree\,\Highly disagree\,\1\,1698180491922,1698180491922,2686,2686,3326,buq,qns-item-noham,109,1695540,0.0-1.0-0.108
<b>People tend to believe whatever is good for their friends.,Highly disagree,110/150,Highly agree,4,1698180492565,1698180495298,\Highly agree\,\Highly agree\,\4\,1698180494513,1698180494513,1948,1948,2733,buq,qns-item-noham,110,1698275,0.0-1.0-0.109
"<b>When I talk about important topics, I try to make sure people know I?m not always right.",Highly disagree,111/150,Highly agree,4,1698180495301,1698180499146,\Highly agree\,\Highly agree\,\4\,1698180498425,1698180498425,3124,3124,3845,buq,qns-item-noham,111,1702123,0.0-1.0-0.110
<b>I used to be more certain my beliefs were true.,Highly disagree,112/150,Highly agree,4,1698180499148,1698180501339,\Highly agree\,\Highly agree\,\4\,1698180500593,1698180500593,1445,1445,2191,buq,qns-item-noham,112,1704316,0.0-1.0-0.111
<b>It?s often pretty easy to figure out whether something is true based on who said it.,Highly disagree,113/150,Highly disagree,1,1698180501341,1698180505746,\Highly disagree\,\Highly disagree\,\1\,1698180505153,1698180505153,3812,3812,4405,buq,qns-item-noham,113,1708723,0.0-1.0-0.112
<b>Having bad food in my favorite restaurant will make me think the restaurant is no longer good.,Highly disagree,114/150,Highly disagree,1,1698180505750,1698180509849,\Highly disagree\,\Highly disagree\,\1\,1698180508929,1698180508929,3179,3179,4099,buq,qns-item-noham,114,1712826,0.0-1.0-0.113
<b>I transform into a hummingbird every day.,Highly disagree,115/150,Highly disagree,1,1698180509852,1698180512841,\Highly disagree\,\Highly disagree\,\1\,1698180511985,1698180511985,2133,2133,2989,buq,qns-item-noham,115,1715819,0.0-1.0-0.114
"<b>Unfortunately, when people are wrong, it?s usually because they?re bad.",Highly disagree,116/150,Highly disagree,1,1698180512846,1698180516826,\Highly disagree\,\Highly disagree\,\1\,1698180516299,1698180516299,3453,3453,3980,buq,qns-item-noham,116,1719803,0.0-1.0-0.115
<b>I think a lot about arguments against my views.,Highly disagree,117/150,Highly disagree,1,1698180516828,1698180521547,\Highly disagree\,\Highly disagree\,\1\,1698180520961,1698180520961,4133,4133,4719,buq,qns-item-noham,117,1724524,0.0-1.0-0.116
<b>Details tend to matter a lot for knowing whether a policy is good.,Highly disagree,118/150,Highly disagree,1,1698180521550,1698180525378,\Highly disagree\,\Highly disagree\,\1\,1698180524849,1698180524849,3299,3299,3828,buq,qns-item-noham,118,1728355,0.0-1.0-0.117
<b>Personal experience is usually more important than facts and figures.,Highly disagree,119/150,Highly agree,4,1698180525380,1698180529451,\Highly agree\,\Highly agree\,\4\,1698180528689,1698180528689,3309,3309,4071,buq,qns-item-noham,119,1732428,0.0-1.0-0.118
<b>I?ve been tricked before about important matters.,Highly disagree,120/150,Highly agree,4,1698180529452,1698180533113,\Highly agree\,\Highly agree\,\4\,1698180532337,1698180532337,2885,2885,3661,buq,qns-item-noham,120,1736090,0.0-1.0-0.119
<b>I would need to be totally wowed if I were to change my opinion of a restaurant I don?t like.,Highly disagree,121/150,Highly disagree,1,1698180533117,1698180540089,\Highly disagree\,\Highly disagree\,\1\,1698180538561,1698180538561,5444,5444,6972,buq,qns-item-noham,121,1743066,0.0-1.0-0.120
<b>I care a lot about politics.,Highly disagree,122/150,Highly disagree,1,1698180540091,1698180542346,\Highly disagree\,\Highly disagree\,\1\,1698180541642,1698180541642,1551,1551,2255,buq,qns-item-noham,122,1745323,0.0-1.0-0.121
<b>People with conflicting beliefs usually have some facts they disagree on.,Highly disagree,123/150,Highly agree,4,1698180542348,1698180545602,\Highly agree\,\Highly agree\,\4\,1698180544921,1698180544921,2573,2573,3254,buq,qns-item-noham,123,1748579,0.0-1.0-0.122
<b>There are some topics I?ve been really wrong about.,Highly disagree,124/150,Highly agree,4,1698180545604,1698180548122,\Highly agree\,\Highly agree\,\4\,1698180547353,1698180547353,1749,1749,2518,buq,qns-item-noham,124,1751099,0.0-1.0-0.123
<b>Most beliefs can be supported with at least some evidence.,Highly disagree,125/150,Highly agree,4,1698180548125,1698180550787,\Highly agree\,\Highly agree\,\4\,1698180550058,1698180550058,1933,1933,2662,buq,qns-item-noham,125,1753764,0.0-1.0-0.124
<b>Other people make life out to be more complicated than it really is.,Highly disagree,126/150,Highly disagree,1,1698180550789,1698180554570,\Highly disagree\,\Highly disagree\,\1\,1698180553968,1698180553968,3179,3179,3781,buq,qns-item-noham,126,1757547,0.0-1.0-0.125
"<b>My political views are being shaped continuously as I gather more information, rather than relying on what I?ve known to be true of my party in the past. ",Highly disagree,127/150,Highly disagree,1,1698180554572,1698180559129,\Highly disagree\,\Highly disagree\,\1\,1698180557761,1698180557761,3189,3189,4557,buq,qns-item-noham,127,1762106,0.0-1.0-0.126
<b>It?s pretty unusual for true things to seem false.,Highly disagree,128/150,Somewhat agree,3,1698180559131,1698180565234,\Highly agree\,\Somewhat agree\,\4\,1698180562089,1698180562778,2958,3647,6103,buq,qns-item-noham,128,1768211,0.0-1.0-0.127
"<b>Policy details don?t matter much, just the big picture.",Highly disagree,129/150,Somewhat agree,3,1698180565236,1698180569770,\Somewhat agree\,\Somewhat agree\,\3\,1698180569170,1698180569170,3934,3934,4534,buq,qns-item-noham,129,1772747,0.0-1.0-0.128
<b>I know my friends so well they can hardly ever surprise me.,Highly disagree,130/150,Highly disagree,1,1698180569773,1698180573625,\Highly disagree\,\Highly disagree\,\1\,1698180573073,1698180573073,3300,3300,3852,buq,qns-item-noham,130,1776602,0.0-1.0-0.129
"<b>When I talk to people, I often think about why they have the beliefs they do.",Highly disagree,131/150,Highly disagree,1,1698180573628,1698180578098,\Highly disagree\,\Highly disagree\,\1\,1698180577370,1698180577370,3742,3742,4470,buq,qns-item-noham,131,1781075,0.0-1.0-0.130
<b>I do not often change my views on people.,Highly disagree,132/150,Highly disagree,1,1698180578100,1698180580921,\Highly disagree\,\Highly disagree\,\1\,1698180580178,1698180580178,2078,2078,2821,buq,qns-item-noham,132,1783899,0.0-1.0-0.131
<b>I often wish I had more time to spend figuring out what?s true and what?s false in life.,Highly disagree,133/150,Highly agree,4,1698180580923,1698180585003,\Highly agree\,\Highly agree\,\4\,1698180584369,1698180584369,3446,3446,4080,buq,qns-item-noham,133,1787980,0.0-1.0-0.132
<b>I?m more certain about my beliefs than I used to be.,Highly disagree,134/150,Highly agree,4,1698180585007,1698180588402,\Highly agree\,\Highly agree\,\4\,1698180587601,1698180587601,2594,2594,3395,buq,qns-item-noham,134,1791379,0.0-1.0-0.133
"<b>Whenever I find out new information, I update my views on politics accordingly.",Highly disagree,135/150,Highly agree,4,1698180588405,1698180593673,\Highly agree\,\Highly agree\,\4\,1698180590216,1698180590216,1811,1811,5268,buq,qns-item-noham,135,1796650,0.0-1.0-0.134
<b>People often tell falsehoods unintentionally.,Highly disagree,136/150,Somewhat agree,3,1698180593675,1698180597290,\Somewhat agree\,\Somewhat agree\,\3\,1698180596569,1698180596569,2894,2894,3615,buq,qns-item-noham,136,1800267,0.0-1.0-0.135
<b>Most people don?t know much about most things.,Highly disagree,137/150,Highly agree,4,1698180597294,1698180599954,\Highly agree\,\Highly agree\,\4\,1698180599449,1698180599449,2155,2155,2660,buq,qns-item-noham,137,1802931,0.0-1.0-0.136
"<b>If I find out something new about someone, I easily change my views about them.",Highly disagree,138/150,Highly disagree,1,1698180599956,1698180603617,\Highly disagree\,\Highly disagree\,\1\,1698180602897,1698180602897,2941,2941,3661,buq,qns-item-noham,138,1806595,0.0-1.0-0.137
<b>Having true beliefs is difficult.,Highly disagree,139/150,Highly disagree,1,1698180603621,1698180606169,\Highly disagree\,\Highly disagree\,\1\,1698180605649,1698180605649,2028,2028,2548,buq,qns-item-noham,139,1809146,0.0-1.0-0.138
<b>I don?t try new foods since I know I won?t like them.,Highly disagree,140/150,Highly disagree,1,1698180606172,1698180609177,\Highly disagree\,\Highly disagree\,\1\,1698180608633,1698180608633,2461,2461,3005,buq,qns-item-noham,140,1812154,0.0-1.0-0.139
<b>It?s easy to figure out what?s true or false based on who?s saying it.,Highly disagree,141/150,Highly disagree,1,1698180609180,1698180612026,\Highly disagree\,\Highly disagree\,\1\,1698180611409,1698180611409,2229,2229,2846,buq,qns-item-noham,141,1815003,0.0-1.0-0.140
<b>False things have seemed true to me many times.,Highly disagree,142/150,Highly agree,4,1698180612028,1698180615595,\Highly disagree\,\Highly agree\,\1\,1698180614185,1698180614682,2157,2654,3567,buq,qns-item-noham,142,1818572,0.0-1.0-0.141
<b>It?s pretty easy to sort out what?s true and what?s false in life.,Highly disagree,143/150,Highly disagree,1,1698180615596,1698180619106,\Highly disagree\,\Highly disagree\,\1\,1698180618553,1698180618553,2957,2957,3510,buq,qns-item-noham,143,1822083,0.0-1.0-0.142
<b>Knowing lots of statistics about something is usually important for understanding it.,Highly disagree,144/150,Somewhat agree,3,1698180619110,1698180622818,\Highly agree\,\Somewhat agree\,\4\,1698180622010,1698180622289,2900,3179,3708,buq,qns-item-noham,144,1825795,0.0-1.0-0.143
<b>Other people trick each other a lot.,Highly disagree,145/150,Highly agree,4,1698180622820,1698180625257,\Highly agree\,\Highly agree\,\4\,1698180624689,1698180624689,1869,1869,2437,buq,qns-item-noham,145,1828234,0.0-1.0-0.144
<b>I would need to learn a lot about a person for my opinion of them to be swayed.,Highly disagree,146/150,Highly agree,4,1698180625259,1698180628897,\Highly agree\,\Highly agree\,\4\,1698180628098,1698180628098,2839,2839,3638,buq,qns-item-noham,146,1831875,0.0-1.0-0.145
<b>People can?t usually trick me when it comes to topics I care about.,Highly disagree,147/150,Highly agree,4,1698180628900,1698180631610,\Highly agree\,\Highly agree\,\4\,1698180630729,1698180630729,1829,1829,2710,buq,qns-item-noham,147,1834587,0.0-1.0-0.146
<b>I do not often change my views on food.,Highly disagree,148/150,Highly disagree,1,1698180631614,1698180633810,\Highly disagree\,\Highly disagree\,\1\,1698180633122,1698180633122,1508,1508,2196,buq,qns-item-noham,148,1836787,0.0-1.0-0.147
<b>Specific policies are often very important to me.,Highly disagree,149/150,Highly disagree,1,1698180633813,1698180636810,\Highly disagree\,\Highly disagree\,\1\,1698180635802,1698180635802,1989,1989,2997,buq,qns-item-noham,149,1839787,0.0-1.0-0.148
<b>Most people are woefully under-informed.,Highly disagree,150/150,Highly agree,4,1698180636812,1698180639786,\Highly agree\,\Highly agree\,\4\,1698180638960,1698180638960,2148,2148,2974,buq,qns-item-noham,150,1842763,0.0-1.0-0.149
