Question,qns_options,quest_num,answer,answer_num,question_load_timestamp,next_btn_timestamp,text_selected,final_text_selected,option_num_selected,preview_timestamps,final_text_selected_time_stamp,rt_first_option_click,rt_final_option_click,rt_submit_click,questionnaire,trial_type,trial_index,time_elapsed,internal_node_id
<b>Considering other people?s perspectives can help us figure out what?s true or false.,Highly disagree,1/150,Highly agree,4,1698180079191,1698180084444,\Highly agree\,\Highly agree\,\4\,1698180083828,1698180083828,4637,4637,5253,buq,qns-item-noham,1,8902,0.0-1.0-0.0
<b>Knowing what?s true and knowing what to do about it are usually basically the same.,Highly disagree,2/150,Somewhat disagree,2,1698180084445,1698180088474,\Somewhat disagree\,\Somewhat disagree\,\2\,1698180087976,1698180087976,3531,3531,4029,buq,qns-item-noham,2,12932,0.0-1.0-0.1
<b>Most people just believe whatever is convenient for them.,Highly disagree,3/150,Highly agree,4,1698180088477,1698180091812,\Highly agree\,\Highly agree\,\4\,1698180091276,1698180091276,2799,2799,3335,buq,qns-item-noham,3,16270,0.0-1.0-0.2
<b>Even people who are wrong about most things can be right sometimes.,Highly disagree,4/150,Somewhat agree,3,1698180091813,1698180095474,\Somewhat agree\,\Somewhat agree\,\3\,1698180093898,1698180094952,2085,3139,3661,buq,qns-item-noham,4,19932,0.0-1.0-0.3
"<b>If the political party I support does something that upsets me, then the party may have changed, and I need to re-evaluate my support.",Highly disagree,5/150,Somewhat agree,3,1698180095475,1698180101844,\Somewhat agree\,\Somewhat agree\,\3\,1698180098380,1698180098380,2905,2905,6369,buq,qns-item-noham,5,26302,0.0-1.0-0.4
"<b>When people disagree, one side is usually completely right.",Highly disagree,6/150,Somewhat disagree,2,1698180101845,1698180106110,\Somewhat disagree\,\Somewhat disagree\,\2\,1698180105504,1698180105504,3659,3659,4265,buq,qns-item-noham,6,30568,0.0-1.0-0.5
<b>People have lots of false beliefs.,Highly disagree,7/150,Highly agree,4,1698180106111,1698180117716,\Somewhat disagree\,\Highly agree\,\2\,1698180114206,1698180116934,8095,10823,11605,buq,qns-item-noham,7,42174,0.0-1.0-0.6
<b>Having some big beliefs helps me sort out minor ones.,Highly disagree,8/150,Somewhat agree,3,1698180117717,1698180122520,\Somewhat agree\,\Somewhat agree\,\3\,1698180119620,1698180121786,1903,4069,4803,buq,qns-item-noham,8,46978,0.0-1.0-0.7
<b>Political questions are usually pretty complicated.,Highly disagree,9/150,Highly agree,4,1698180122522,1698180124762,\Somewhat agree\,\Highly agree\,\3\,1698180123602,1698180124164,1080,1642,2240,buq,qns-item-noham,9,49220,0.0-1.0-0.8
<b>Figuring out what?s important in life requires learning a lot of facts.,Highly disagree,10/150,Highly agree,4,1698180124763,1698180128440,\Somewhat agree\,\Highly agree\,\3\,1698180127595,1698180127880,2832,3117,3677,buq,qns-item-noham,10,52898,0.0-1.0-0.9
<b>It is difficult for me to remember the last time I was surprised by politics.,Highly disagree,11/150,Highly disagree,1,1698180128441,1698180131484,\Somewhat agree\,\Highly disagree\,\3\,1698180129248,1698180131002,807,2561,3043,buq,qns-item-noham,11,55942,0.0-1.0-0.10
<b>People?s false beliefs are understandable.,Highly disagree,12/150,Somewhat agree,3,1698180131485,1698180134539,\Somewhat agree\,\Somewhat agree\,\3\,1698180133468,1698180133468,1983,1983,3054,buq,qns-item-noham,12,58997,0.0-1.0-0.11
<b>I spend a lot of time trying to be informed about politics.,Highly disagree,13/150,Highly agree,4,1698180134540,1698180138480,\Somewhat agree\,\Highly agree\,\3\,1698180137687,1698180137983,3147,3443,3940,buq,qns-item-noham,13,62938,0.0-1.0-0.12
<b>I think a lot about whether my beliefs are right.,Highly disagree,14/150,Highly agree,4,1698180138482,1698180140492,\Somewhat agree\,\Highly agree\,\3\,1698180139728,1698180140094,1246,1612,2010,buq,qns-item-noham,14,64951,0.0-1.0-0.13
<b>Statistics can be pretty misleading sometimes.,Highly disagree,15/150,Somewhat agree,3,1698180140494,1698180142440,\Somewhat agree\,\Somewhat agree\,\3\,1698180141892,1698180141892,1398,1398,1946,buq,qns-item-noham,15,66898,0.0-1.0-0.14
<b>Figuring out what?s true and what?s false takes a lot of time and effort.,Highly disagree,16/150,Somewhat agree,3,1698180142441,1698180144754,\Somewhat agree\,\Somewhat agree\,\3\,1698180144189,1698180144189,1748,1748,2313,buq,qns-item-noham,16,69212,0.0-1.0-0.15
"<b>If a friend does something bad to me, it was likely an error on their part.",Highly disagree,17/150,Somewhat agree,3,1698180144755,1698180155494,\Somewhat agree\,\Somewhat agree\,\3\,1698180152314,1698180152314,7559,7559,10739,buq,qns-item-noham,17,79952,0.0-1.0-0.16
<b>I have lots of beliefs that I?m only sort of sure about.,Highly disagree,18/150,Somewhat agree,3,1698180155495,1698180165988,\Somewhat agree\,\Somewhat agree\,\3\,1698180165436,1698180165436,9941,9941,10493,buq,qns-item-noham,18,90446,0.0-1.0-0.17
"<b>If I go to my favorite restaurant and the food is surprisingly bad, it reminds me there are many disappointments in life.",Highly disagree,19/150,Somewhat disagree,2,1698180165989,1698180171634,\Somewhat disagree\,\Somewhat disagree\,\2\,1698180170868,1698180170868,4879,4879,5645,buq,qns-item-noham,19,96092,0.0-1.0-0.18
<b>Sometimes my beliefs are inconvenient for me.,Highly disagree,20/150,Somewhat agree,3,1698180171636,1698180185513,\Somewhat agree\,\Somewhat agree\,\3\,1698180184612,1698180184612,12976,12976,13877,buq,qns-item-noham,20,109971,0.0-1.0-0.19
<b>Paying attention to multiple news sources is important.,Highly disagree,21/150,Highly agree,4,1698180185514,1698180188644,\Highly agree\,\Highly agree\,\4\,1698180188140,1698180188140,2626,2626,3130,buq,qns-item-noham,21,113102,0.0-1.0-0.20
"<b>If you are paying attention, please select ?Somewhat agree?",Highly disagree,22/150,Somewhat agree,3,1698180188645,1698180190491,\Somewhat agree\,\Somewhat agree\,\3\,1698180190024,1698180190024,1379,1379,1846,buq,qns-item-noham,22,114949,0.0-1.0-0.21
"<b>When I talk to others, I often worry I?ll convince them of something I didn?t mean to.",Highly disagree,23/150,Somewhat agree,3,1698180190492,1698180195249,\Somewhat agree\,\Somewhat agree\,\3\,1698180194761,1698180194761,4269,4269,4757,buq,qns-item-noham,23,119707,0.0-1.0-0.22
<b>I would need to learn something utterly shocking about my party in order to change my political views.,Highly disagree,24/150,Somewhat agree,3,1698180195251,1698180198497,\Somewhat agree\,\Somewhat agree\,\3\,1698180198071,1698180198071,2820,2820,3246,buq,qns-item-noham,24,122955,0.0-1.0-0.23
"<b>When I have new experiences, I tend to think of them as unique.",Highly disagree,25/150,Somewhat agree,3,1698180198499,1698180200738,\Somewhat agree\,\Somewhat agree\,\3\,1698180200364,1698180200364,1865,1865,2239,buq,qns-item-noham,25,125196,0.0-1.0-0.24
<b>Reading lots of things is important for understanding the world.,Highly disagree,26/150,Highly agree,4,1698180200739,1698180205269,\Somewhat agree\,\Highly agree\,\3\,1698180202386,1698180204770,1647,4031,4530,buq,qns-item-noham,26,129727,0.0-1.0-0.25
<b>The world is complicated.,Highly disagree,27/150,Highly agree,4,1698180205270,1698180211739,\Highly agree\,\Highly agree\,\4\,1698180211204,1698180211204,5934,5934,6469,buq,qns-item-noham,27,136197,0.0-1.0-0.26
<b>I change my mind about specific policies pretty frequently.,Highly disagree,28/150,Somewhat disagree,2,1698180211740,1698180219371,\Somewhat disagree\,\Somewhat disagree\,\2\,1698180218731,1698180218731,6991,6991,7631,buq,qns-item-noham,28,143829,0.0-1.0-0.27
"<b>If a politician in my political party supports something I disagree with, I give them the benefit of the doubt, as such issues often involve hidden complexities that aren?t obvious.   ",Highly disagree,29/150,Somewhat agree,3,1698180219372,1698180230921,\Somewhat agree\,\Somewhat agree\,\3\,1698180230328,1698180230328,10956,10956,11549,buq,qns-item-noham,29,155379,0.0-1.0-0.28
<b>People?s bad politics are usually motivated by hatefulness.,Highly disagree,30/150,Somewhat disagree,2,1698180230923,1698180234589,\Somewhat disagree\,\Somewhat disagree\,\2\,1698180233919,1698180233919,2996,2996,3666,buq,qns-item-noham,30,159047,0.0-1.0-0.29
"<b>Most new experiences are just like old ones, but a little bit different.",Highly disagree,31/150,Somewhat disagree,2,1698180234591,1698180252744,\Somewhat disagree\,\Somewhat disagree\,\2\,1698180252272,1698180252272,17681,17681,18153,buq,qns-item-noham,31,177202,0.0-1.0-0.30
<b>I think a lot about how to reconcile my beliefs with one another.,Highly disagree,32/150,Somewhat agree,3,1698180252745,1698180461426,\Somewhat agree\,\Somewhat agree\,\3\,1698180460864,1698180460864,208119,208119,208681,buq,qns-item-noham,32,385884,0.0-1.0-0.31
<b>Personal experience rarely leads people astray.,Highly disagree,33/150,Somewhat disagree,2,1698180461429,1698180464287,\Somewhat disagree\,\Somewhat disagree\,\2\,1698180463776,1698180463776,2347,2347,2858,buq,qns-item-noham,33,388745,0.0-1.0-0.32
<b>I might have false beliefs about important topics.,Highly disagree,34/150,Somewhat agree,3,1698180464289,1698180528689,\Somewhat agree\,\Somewhat agree\,\3\,1698180528086,1698180528086,63797,63797,64400,buq,qns-item-noham,34,453147,0.0-1.0-0.33
"<b>If a good friend of mine does something unexpected that upsets me, I feel like I don?t know them anymore.",Highly disagree,35/150,Somewhat agree,3,1698180528690,1698180533865,\Somewhat agree\,\Somewhat agree\,\3\,1698180532997,1698180532997,4307,4307,5175,buq,qns-item-noham,35,458323,0.0-1.0-0.34
<b>Other people?s beliefs are often incoherent.,Highly disagree,36/150,Somewhat agree,3,1698180533866,1698180535771,\Somewhat agree\,\Somewhat agree\,\3\,1698180535303,1698180535303,1437,1437,1905,buq,qns-item-noham,36,460229,0.0-1.0-0.35
<b>It?s important to have friends who think about things differently than I do.,Highly disagree,37/150,Somewhat agree,3,1698180535772,1698180543464,\Somewhat agree\,\Somewhat agree\,\3\,1698180540563,1698180540563,4791,4791,7692,buq,qns-item-noham,37,467922,0.0-1.0-0.36
"<b>Every now and then, a new experience will unsettle beliefs I?ve had for a while.",Highly disagree,38/150,Somewhat agree,3,1698180543465,1698180545680,\Somewhat agree\,\Somewhat agree\,\3\,1698180545258,1698180545258,1793,1793,2215,buq,qns-item-noham,38,470138,0.0-1.0-0.37
<b>Some policies I agree with in principle are so bad I don?t support them. ,Highly disagree,39/150,Somewhat agree,3,1698180545682,1698180552482,\Somewhat agree\,\Somewhat agree\,\3\,1698180551964,1698180551964,6282,6282,6800,buq,qns-item-noham,39,476940,0.0-1.0-0.38
<b>I?m pretty sure I?ve accidentally spread false information.,Highly disagree,40/150,Somewhat agree,3,1698180552484,1698180560086,\Somewhat agree\,\Somewhat agree\,\3\,1698180559429,1698180559429,6945,6945,7602,buq,qns-item-noham,40,484544,0.0-1.0-0.39
"<b>If I go to my favorite restaurant and the food is unexpectedly bad, then they have changed owners.",Highly disagree,41/150,Highly disagree,1,1698180560087,1698180563882,\Somewhat disagree\,\Highly disagree\,\2\,1698180562534,1698180563397,2447,3310,3795,buq,qns-item-noham,41,488340,0.0-1.0-0.40
"<b>In politics, it?s important to trust your friends and family.",Highly disagree,42/150,Somewhat agree,3,1698180563884,1698180566592,\Somewhat agree\,\Somewhat agree\,\3\,1698180566130,1698180566130,2246,2246,2708,buq,qns-item-noham,42,491050,0.0-1.0-0.41
<b>It?s OK to have some conflicting beliefs.,Highly disagree,43/150,Somewhat agree,3,1698180566593,1698180568965,\Somewhat agree\,\Somewhat agree\,\3\,1698180568026,1698180568026,1433,1433,2372,buq,qns-item-noham,43,493423,0.0-1.0-0.42
<b>Sometimes the details of a matter seem to conflict with the big picture.,Highly disagree,44/150,Somewhat agree,3,1698180568966,1698180570823,\Somewhat agree\,\Somewhat agree\,\3\,1698180570319,1698180570319,1353,1353,1857,buq,qns-item-noham,44,495281,0.0-1.0-0.43
<b>Listening to people I disagree with makes my opinions better.,Highly disagree,45/150,Somewhat agree,3,1698180570824,1698180577711,\Somewhat agree\,\Somewhat agree\,\3\,1698180577333,1698180577333,6509,6509,6887,buq,qns-item-noham,45,502169,0.0-1.0-0.44
<b>Policies that sound bad are sometimes fine when you find out about their details.,Highly disagree,46/150,Somewhat agree,3,1698180577712,1698180581175,\Somewhat agree\,\Somewhat agree\,\3\,1698180580765,1698180580765,3053,3053,3463,buq,qns-item-noham,46,505633,0.0-1.0-0.45
"<b>The world is always changing, so my beliefs are sometimes out-dated.",Highly disagree,47/150,Somewhat agree,3,1698180581176,1698180585749,\Somewhat agree\,\Somewhat agree\,\3\,1698180585301,1698180585301,4125,4125,4573,buq,qns-item-noham,47,510207,0.0-1.0-0.46
"<b>If I receive a bad meal at my favorite restaurant and the food is surprisingly bad, I do not think much of it, and assume the chef is just having an ?off? day.",Highly disagree,48/150,Highly agree,4,1698180585750,1698180589197,\Somewhat agree\,\Highly agree\,\3\,1698180588339,1698180588689,2589,2939,3447,buq,qns-item-noham,48,513655,0.0-1.0-0.47
"<b>False information is unavoidable, to some extent.",Highly disagree,49/150,Highly agree,4,1698180589198,1698180658597,\Highly agree\,\Highly agree\,\4\,1698180658045,1698180658045,68847,68847,69399,buq,qns-item-noham,49,583055,0.0-1.0-0.48
<b>My moral compass sometimes makes it harder to determine what?s true.,Highly disagree,50/150,Somewhat disagree,2,1698180658598,1698180663853,\Somewhat disagree\,\Somewhat disagree\,\2\,1698180663440,1698180663440,4842,4842,5255,buq,qns-item-noham,50,588311,0.0-1.0-0.49
"<b>When you disagree with someone, it?s important to listen to them carefully.",Highly disagree,51/150,Highly agree,4,1698180663854,1698180666075,\Somewhat agree\,\Highly agree\,\3\,1698180665271,1698180665587,1417,1733,2221,buq,qns-item-noham,51,590533,0.0-1.0-0.50
<b>Evidence pointing in the wrong direction isn?t really evidence at all.,Highly disagree,52/150,Somewhat disagree,2,1698180666076,1698180670585,\Somewhat disagree\,\Somewhat disagree\,\2\,1698180670105,1698180670105,4029,4029,4509,buq,qns-item-noham,52,595043,0.0-1.0-0.51
"<b>If the political party I support messes up, it makes me think politics is rotten.",Highly disagree,53/150,Somewhat disagree,2,1698180670586,1698180696566,\Somewhat disagree\,\Somewhat disagree\,\2\,1698180695313,1698180695313,24727,24727,25980,buq,qns-item-noham,53,621024,0.0-1.0-0.52
<b>Lots of important topics can only really be understood by some groups of people.,Highly disagree,54/150,Somewhat disagree,2,1698180696566,1698180699297,\Somewhat disagree\,\Somewhat disagree\,\2\,1698180698727,1698180698727,2161,2161,2731,buq,qns-item-noham,54,623755,0.0-1.0-0.53
<b>Details almost always matter for being right about something.,Highly disagree,55/150,Somewhat agree,3,1698180699298,1698180703425,\Somewhat agree\,\Somewhat agree\,\3\,1698180702131,1698180702131,2833,2833,4127,buq,qns-item-noham,55,627883,0.0-1.0-0.54
"<b>The most important thing in politics is winning, not convincing people.",Highly disagree,56/150,Somewhat agree,3,1698180703426,1698180711193,\Somewhat agree\,\Somewhat agree\,\3\,1698180710736,1698180710736,7310,7310,7767,buq,qns-item-noham,56,635651,0.0-1.0-0.55
<b>Having conflicting beliefs means you haven?t thought about them enough.,Highly disagree,57/150,Somewhat disagree,2,1698180711194,1698180713799,\Somewhat disagree\,\Somewhat disagree\,\2\,1698180713111,1698180713111,1917,1917,2605,buq,qns-item-noham,57,638257,0.0-1.0-0.56
<b>Other people have sometimes convinced me to change my mind on important topics.,Highly disagree,58/150,Somewhat agree,3,1698180713800,1698180716228,\Somewhat agree\,\Somewhat agree\,\3\,1698180715713,1698180715713,1913,1913,2428,buq,qns-item-noham,58,640686,0.0-1.0-0.57
<b>I do not often change my political opinions.,Highly disagree,59/150,Somewhat disagree,2,1698180716229,1698180718055,\Somewhat disagree\,\Somewhat disagree\,\2\,1698180717416,1698180717416,1187,1187,1826,buq,qns-item-noham,59,642513,0.0-1.0-0.58
<b>Thinking about how different things relate to one another is critical in life.,Highly disagree,60/150,Highly agree,4,1698180718056,1698180724862,\Highly agree\,\Highly agree\,\4\,1698180724411,1698180724411,6355,6355,6806,buq,qns-item-noham,60,649320,0.0-1.0-0.59
<b>True beliefs can have unfortunate implications.,Highly disagree,61/150,Highly agree,4,1698180724863,1698180727507,\Highly agree\,\Highly agree\,\4\,1698180727058,1698180727058,2195,2195,2644,buq,qns-item-noham,61,651965,0.0-1.0-0.60
<b>It?s difficult to not have at least some conflicting beliefs.,Highly disagree,62/150,Somewhat agree,3,1698180727508,1698180731878,\Somewhat agree\,\Somewhat agree\,\3\,1698180731470,1698180731470,3962,3962,4370,buq,qns-item-noham,62,656336,0.0-1.0-0.61
"<b>When I learn new things, I think deeply about how my opinions should change.",Highly disagree,63/150,Somewhat agree,3,1698180731880,1698180734635,\Somewhat agree\,\Somewhat agree\,\3\,1698180734299,1698180734299,2419,2419,2755,buq,qns-item-noham,63,659093,0.0-1.0-0.62
<b>I think a lot about how to interpret different sorts of evidence.,Highly disagree,64/150,Somewhat agree,3,1698180734636,1698180736385,\Somewhat agree\,\Somewhat agree\,\3\,1698180736052,1698180736052,1416,1416,1749,buq,qns-item-noham,64,660843,0.0-1.0-0.63
<b>Politics is about thinking together and finding compromises.,Highly disagree,65/150,Somewhat disagree,2,1698180736386,1698180741927,\Somewhat disagree\,\Somewhat disagree\,\2\,1698180738965,1698180738965,2579,2579,5541,buq,qns-item-noham,65,666385,0.0-1.0-0.64
<b>Wishful thinking causes a lot of problems.,Highly disagree,66/150,Somewhat agree,3,1698180741928,1698181088077,\Somewhat agree\,\Somewhat agree\,\3\,1698181087520,1698181087520,345592,345592,346149,buq,qns-item-noham,66,1012535,0.0-1.0-0.65
<b>I judge a food item only once I try it many times.,Highly disagree,67/150,Somewhat disagree,2,1698181088078,1698181096529,\Somewhat agree\,\Somewhat disagree\,\3\,1698181092800,1698181096034,4722,7956,8451,buq,qns-item-noham,67,1020987,0.0-1.0-0.66
"<b>When a person holds conflicting beliefs, they should really try to figure out what?s wrong.",Highly disagree,68/150,Highly agree,4,1698181096530,1698181101789,\Somewhat agree\,\Highly agree\,\3\,1698181100271,1698181101297,3741,4767,5259,buq,qns-item-noham,68,1026247,0.0-1.0-0.67
<b>Knowing what?s important in life is easy.,Highly disagree,69/150,Highly disagree,1,1698181101790,1698181111623,\Somewhat agree\,\Highly disagree\,\3\,1698181102973,1698181111125,1183,9335,9833,buq,qns-item-noham,69,1036081,0.0-1.0-0.68
<b>Lots of smart people disagree about basic political questions.,Highly disagree,70/150,Highly agree,4,1698181111624,1698181114120,\Somewhat agree\,\Highly agree\,\3\,1698181113017,1698181113394,1393,1770,2496,buq,qns-item-noham,70,1038578,0.0-1.0-0.69
<b>I swim across the Atlantic Ocean to get to work every day.,Highly disagree,71/150,Highly disagree,1,1698181114121,1698181116002,\Highly disagree\,\Highly disagree\,\1\,1698181115506,1698181115506,1385,1385,1881,buq,qns-item-noham,71,1040460,0.0-1.0-0.70
"<b>Sometimes, you just have to ignore evidence that you know is wrong.",Highly disagree,72/150,Somewhat agree,3,1698181116003,1698181120610,\Somewhat agree\,\Somewhat agree\,\3\,1698181119099,1698181120171,3096,4168,4607,buq,qns-item-noham,72,1045068,0.0-1.0-0.71
<b>I have had some false beliefs.,Highly disagree,73/150,Somewhat agree,3,1698181120610,1698181122099,\Somewhat agree\,\Somewhat agree\,\3\,1698181121673,1698181121673,1063,1063,1489,buq,qns-item-noham,73,1046557,0.0-1.0-0.72
"<b>If one friend does something that upsets me, I sometimes start to distrust people in general.",Highly disagree,74/150,Somewhat agree,3,1698181122100,1698181125081,\Somewhat agree\,\Somewhat agree\,\3\,1698181124395,1698181124395,2295,2295,2981,buq,qns-item-noham,74,1049539,0.0-1.0-0.73
<b>I easily apply what I learn in one situation to another.,Highly disagree,75/150,Somewhat agree,3,1698181125082,1698181127625,\Somewhat agree\,\Somewhat agree\,\3\,1698181127177,1698181127177,2095,2095,2543,buq,qns-item-noham,75,1052083,0.0-1.0-0.74
<b>The facts about most important matters are easy to find.,Highly disagree,76/150,Somewhat disagree,2,1698181127626,1698181133191,\Somewhat disagree\,\Somewhat disagree\,\2\,1698181132757,1698181132757,5131,5131,5565,buq,qns-item-noham,76,1057649,0.0-1.0-0.75
<b>It?s better to know what?s true than to know what?s moral.,Highly disagree,77/150,Highly agree,4,1698181133192,1698181135825,\Somewhat agree\,\Highly agree\,\3\,1698181135008,1698181135337,1816,2145,2633,buq,qns-item-noham,77,1060283,0.0-1.0-0.76
<b>It?s good to be skeptical of people you agree with.,Highly disagree,78/150,Somewhat agree,3,1698181135826,1698181139363,\Somewhat agree\,\Somewhat agree\,\3\,1698181138851,1698181138851,3025,3025,3537,buq,qns-item-noham,78,1063821,0.0-1.0-0.77
<b>Sometimes reasonable beliefs are wrong.,Highly disagree,79/150,Somewhat agree,3,1698181139364,1698181140867,\Somewhat agree\,\Somewhat agree\,\3\,1698181140481,1698181140481,1117,1117,1503,buq,qns-item-noham,79,1065325,0.0-1.0-0.78
<b>I used to think the world was less complicated than I do now.,Highly disagree,80/150,Highly agree,4,1698181140869,1698181189733,\Highly agree\,\Highly agree\,\4\,1698181189199,1698181189199,48330,48330,48864,buq,qns-item-noham,80,1114191,0.0-1.0-0.79
<b>People are usually completely right or completely wrong.,Highly disagree,81/150,Somewhat disagree,2,1698181189734,1698181192293,\Somewhat disagree\,\Somewhat disagree\,\2\,1698181191943,1698181191943,2209,2209,2559,buq,qns-item-noham,81,1116751,0.0-1.0-0.80
<b>I spend a lot of time considering alternatives to my beliefs.,Highly disagree,82/150,Somewhat agree,3,1698181192294,1698181194228,\Somewhat agree\,\Somewhat agree\,\3\,1698181193875,1698181193875,1581,1581,1934,buq,qns-item-noham,82,1118686,0.0-1.0-0.81
"<b>Political enemies need to be defeated, not convinced.",Highly disagree,83/150,Somewhat agree,3,1698181194229,1698181198869,\Somewhat agree\,\Somewhat agree\,\3\,1698181198144,1698181198144,3915,3915,4640,buq,qns-item-noham,83,1123327,0.0-1.0-0.82
"<b>When forming an opinion about a restaurant, I am more swayed by my  latest meal there than  previous meals I?ve had there.",Highly disagree,84/150,Somewhat disagree,2,1698181198870,1698181202909,\Somewhat agree\,\Somewhat disagree\,\3\,1698181201331,1698181202435,2461,3565,4039,buq,qns-item-noham,84,1127367,0.0-1.0-0.83
<b>I try to remain skeptical about most topics.,Highly disagree,85/150,Somewhat agree,3,1698181202910,1698181205005,\Somewhat agree\,\Somewhat agree\,\3\,1698181204678,1698181204678,1768,1768,2095,buq,qns-item-noham,85,1129463,0.0-1.0-0.84
<b>Being wrong is usually obvious in retrospect.,Highly disagree,86/150,Somewhat disagree,2,1698181205006,1698181207925,\Somewhat disagree\,\Somewhat disagree\,\2\,1698181206982,1698181206982,1976,1976,2919,buq,qns-item-noham,86,1132383,0.0-1.0-0.85
<b>It can be hard to realize that my beliefs are in conflict.,Highly disagree,87/150,Somewhat agree,3,1698181207926,1698181210460,\Somewhat agree\,\Somewhat agree\,\3\,1698181209345,1698181209345,1419,1419,2534,buq,qns-item-noham,87,1134918,0.0-1.0-0.86
<b>I form my political views only after meticulously gathering historical and present information about their policies.,Highly disagree,88/150,Somewhat agree,3,1698181210461,1698181212890,\Somewhat agree\,\Somewhat agree\,\3\,1698181212305,1698181212305,1844,1844,2429,buq,qns-item-noham,88,1137348,0.0-1.0-0.87
<b>Skeptical people are usually just bad-tempered.,Highly disagree,89/150,Somewhat disagree,2,1698181212891,1698181215077,\Somewhat agree\,\Somewhat disagree\,\3\,1698181213754,1698181214635,863,1744,2186,buq,qns-item-noham,89,1139536,0.0-1.0-0.88
<b>It is difficult for me to remember the last time I was surprised by politics.,Highly disagree,90/150,Highly disagree,1,1698181215079,1698181221575,\Somewhat agree\,\Highly disagree\,\3\,1698181217079,1698181220979,2000,5900,6496,buq,qns-item-noham,90,1146033,0.0-1.0-0.89
"<b>When I find out I?m wrong, I think a lot about my related beliefs.",Highly disagree,91/150,Somewhat agree,3,1698181221576,1698181276737,\Somewhat agree\,\Somewhat agree\,\3\,1698181276330,1698181276330,54754,54754,55161,buq,qns-item-noham,91,1201195,0.0-1.0-0.90
"<b>If the political party I support messes up, it makes me think you can?t trust anyone these days",Highly disagree,92/150,Somewhat disagree,2,1698181276738,1698181279563,\Somewhat disagree\,\Somewhat disagree\,\2\,1698181279095,1698181279095,2357,2357,2825,buq,qns-item-noham,92,1204021,0.0-1.0-0.91
<b>People?s brains turn off when they talk about politics.,Highly disagree,93/150,Somewhat agree,3,1698181279564,1698181282509,\Somewhat disagree\,\Somewhat agree\,\2\,1698181281067,1698181281593,1503,2029,2945,buq,qns-item-noham,93,1206967,0.0-1.0-0.92
<b>People who are wrong are usually just ignoring the obvious.,Highly disagree,94/150,Highly agree,4,1698181282511,1698181284864,\Highly agree\,\Highly agree\,\4\,1698181284305,1698181284305,1794,1794,2353,buq,qns-item-noham,94,1209322,0.0-1.0-0.93
"<b>The world isn?t that complicated, but it?s still hard to figure out how it works.",Highly disagree,95/150,Somewhat disagree,2,1698181284864,1698181288165,\Somewhat agree\,\Somewhat disagree\,\3\,1698181286641,1698181287762,1777,2898,3301,buq,qns-item-noham,95,1212623,0.0-1.0-0.94
"<b>When forming my views on people, I rely more on what they are like now rather than rely on my past experience with them.",Highly disagree,96/150,Somewhat disagree,2,1698181288166,1698181293596,\Somewhat disagree\,\Somewhat disagree\,\2\,1698181292614,1698181292614,4448,4448,5430,buq,qns-item-noham,96,1218054,0.0-1.0-0.95
"<b>When people contradict my beliefs, I usually know about their evidence already.",Highly disagree,97/150,Somewhat disagree,2,1698181293597,1698181297360,\Somewhat disagree\,\Somewhat disagree\,\2\,1698181296539,1698181296539,2942,2942,3763,buq,qns-item-noham,97,1221818,0.0-1.0-0.96
<b>Being wrong is a matter of degree.,Highly disagree,98/150,Somewhat disagree,2,1698181297361,1698181299796,\Somewhat disagree\,\Somewhat disagree\,\2\,1698181299019,1698181299019,1658,1658,2435,buq,qns-item-noham,98,1224254,0.0-1.0-0.97
<b>Figuring out what?s true and what?s false mainly requires a strong moral compass.,Highly disagree,99/150,Somewhat disagree,2,1698181299797,1698181303130,\Somewhat agree\,\Somewhat disagree\,\3\,1698181301771,1698181302385,1974,2588,3333,buq,qns-item-noham,99,1227588,0.0-1.0-0.98
<b>Most of the beliefs people have are at least somewhat understandable.,Highly disagree,100/150,Somewhat agree,3,1698181303131,1698181305536,\Somewhat disagree\,\Somewhat agree\,\2\,1698181304681,1698181305043,1550,1912,2405,buq,qns-item-noham,100,1229994,0.0-1.0-0.99
"<b>Usually I?m wrong about simple things, not complicated ones.",Highly disagree,101/150,Somewhat disagree,2,1698181305537,1698181318147,\Somewhat disagree\,\Somewhat disagree\,\2\,1698181317672,1698181317672,12135,12135,12610,buq,qns-item-noham,101,1242605,0.0-1.0-0.100
<b>Getting all the information I want about important things is hard.,Highly disagree,102/150,Highly agree,4,1698181318148,1698181321121,\Highly agree\,\Highly agree\,\4\,1698181320301,1698181320301,2153,2153,2973,buq,qns-item-noham,102,1245579,0.0-1.0-0.101
<b>Most false beliefs spread because people try to deceive one another.,Highly disagree,103/150,Somewhat agree,3,1698181321123,1698181323239,\Somewhat agree\,\Somewhat agree\,\3\,1698181322631,1698181322631,1508,1508,2116,buq,qns-item-noham,103,1247697,0.0-1.0-0.102
<b>I can usually find something to agree with in most people?s beliefs.,Highly disagree,104/150,Somewhat agree,3,1698181323240,1698181325626,\Somewhat agree\,\Somewhat agree\,\3\,1698181324545,1698181324545,1305,1305,2386,buq,qns-item-noham,104,1250084,0.0-1.0-0.103
<b>I only form my views of people once I get to know them very well.,Highly disagree,105/150,Somewhat agree,3,1698181325627,1698181327643,\Somewhat agree\,\Somewhat agree\,\3\,1698181326769,1698181326769,1142,1142,2016,buq,qns-item-noham,105,1252101,0.0-1.0-0.104
"<b>When people tell me important things about the world, I usually believe them.",Highly disagree,106/150,Somewhat disagree,2,1698181327644,1698181331390,\Somewhat disagree\,\Somewhat disagree\,\2\,1698181330916,1698181330916,3272,3272,3746,buq,qns-item-noham,106,1255848,0.0-1.0-0.105
"<b>If a friend does something that upsets me, it reminds me what an unpredictable place the world is.",Highly disagree,107/150,Somewhat agree,3,1698181331391,1698181334272,\Somewhat disagree\,\Somewhat agree\,\2\,1698181333562,1698181333864,2171,2473,2881,buq,qns-item-noham,107,1258730,0.0-1.0-0.106
<b>Having some conflicting beliefs is inevitable.,Highly disagree,108/150,Somewhat agree,3,1698181334273,1698181335854,\Somewhat agree\,\Somewhat agree\,\3\,1698181335522,1698181335522,1249,1249,1581,buq,qns-item-noham,108,1260312,0.0-1.0-0.107
<b>People are wrong because they haven?t thought much about things.,Highly disagree,109/150,Somewhat agree,3,1698181335855,1698181338008,\Somewhat agree\,\Somewhat agree\,\3\,1698181336778,1698181336778,923,923,2153,buq,qns-item-noham,109,1262466,0.0-1.0-0.108
<b>People tend to believe whatever is good for their friends.,Highly disagree,110/150,Somewhat agree,3,1698181338009,1698181342996,\Somewhat agree\,\Somewhat agree\,\3\,1698181339537,1698181339537,1528,1528,4987,buq,qns-item-noham,110,1267454,0.0-1.0-0.109
"<b>When I talk about important topics, I try to make sure people know I?m not always right.",Highly disagree,111/150,Somewhat agree,3,1698181342996,1698181480853,\Somewhat agree\,\Somewhat agree\,\3\,1698181480509,1698181480509,137513,137513,137857,buq,qns-item-noham,111,1405311,0.0-1.0-0.110
<b>I used to be more certain my beliefs were true.,Highly disagree,112/150,Somewhat agree,3,1698181480855,1698181483457,\Somewhat agree\,\Somewhat agree\,\3\,1698181482166,1698181482166,1311,1311,2602,buq,qns-item-noham,112,1407915,0.0-1.0-0.111
<b>It?s often pretty easy to figure out whether something is true based on who said it.,Highly disagree,113/150,Somewhat agree,3,1698181483458,1698181485626,\Somewhat agree\,\Somewhat agree\,\3\,1698181484461,1698181484461,1003,1003,2168,buq,qns-item-noham,113,1410084,0.0-1.0-0.112
<b>Having bad food in my favorite restaurant will make me think the restaurant is no longer good.,Highly disagree,114/150,Somewhat disagree,2,1698181485627,1698181552423,\Somewhat disagree\,\Somewhat disagree\,\2\,1698181552007,1698181552007,66380,66380,66796,buq,qns-item-noham,114,1476881,0.0-1.0-0.113
<b>I transform into a hummingbird every day.,Highly disagree,115/150,Highly disagree,1,1698181552424,1698181555735,\Highly disagree\,\Highly disagree\,\1\,1698181554839,1698181554839,2415,2415,3311,buq,qns-item-noham,115,1480193,0.0-1.0-0.114
"<b>Unfortunately, when people are wrong, it?s usually because they?re bad.",Highly disagree,116/150,Somewhat disagree,2,1698181555736,1698181764300,\Somewhat disagree\,\Somewhat disagree\,\2\,1698181763820,1698181763820,208084,208084,208564,buq,qns-item-noham,116,1688758,0.0-1.0-0.115
<b>I think a lot about arguments against my views.,Highly disagree,117/150,Somewhat agree,3,1698181764301,1698181767324,\Somewhat agree\,\Somewhat agree\,\3\,1698181766982,1698181766982,2681,2681,3023,buq,qns-item-noham,117,1691782,0.0-1.0-0.116
<b>Details tend to matter a lot for knowing whether a policy is good.,Highly disagree,118/150,Somewhat agree,3,1698181767325,1698181775640,\Somewhat agree\,\Somewhat agree\,\3\,1698181775182,1698181775182,7857,7857,8315,buq,qns-item-noham,118,1700098,0.0-1.0-0.117
<b>Personal experience is usually more important than facts and figures.,Highly disagree,119/150,Somewhat disagree,2,1698181775641,1698181779398,\Somewhat disagree\,\Somewhat disagree\,\2\,1698181778828,1698181778828,3187,3187,3757,buq,qns-item-noham,119,1703857,0.0-1.0-0.118
<b>I?ve been tricked before about important matters.,Highly disagree,120/150,Highly agree,4,1698181779399,1698181785352,\Highly agree\,\Highly agree\,\4\,1698181784818,1698181784818,5419,5419,5953,buq,qns-item-noham,120,1709810,0.0-1.0-0.119
<b>I would need to be totally wowed if I were to change my opinion of a restaurant I don?t like.,Highly disagree,121/150,Somewhat agree,3,1698181785353,1698181961972,\Somewhat agree\,\Somewhat agree\,\3\,1698181961424,1698181961424,176071,176071,176619,buq,qns-item-noham,121,1886430,0.0-1.0-0.120
<b>I care a lot about politics.,Highly disagree,122/150,Highly agree,4,1698181961973,1698182097564,\Highly agree\,\Highly agree\,\4\,1698182097010,1698182097010,135037,135037,135591,buq,qns-item-noham,122,2022022,0.0-1.0-0.121
<b>People with conflicting beliefs usually have some facts they disagree on.,Highly disagree,123/150,Somewhat agree,3,1698182097565,1698182100262,\Somewhat agree\,\Somewhat agree\,\3\,1698182099906,1698182099906,2341,2341,2697,buq,qns-item-noham,123,2024720,0.0-1.0-0.122
<b>There are some topics I?ve been really wrong about.,Highly disagree,124/150,Somewhat agree,3,1698182100263,1698182103920,\Somewhat agree\,\Somewhat agree\,\3\,1698182103034,1698182103034,2771,2771,3657,buq,qns-item-noham,124,2028378,0.0-1.0-0.123
<b>Most beliefs can be supported with at least some evidence.,Highly disagree,125/150,Highly agree,4,1698182103921,1698182376086,\Somewhat agree\,\Highly agree\,\3\,1698182375086,1698182375632,271165,271711,272165,buq,qns-item-noham,125,2300544,0.0-1.0-0.124
<b>Other people make life out to be more complicated than it really is.,Highly disagree,126/150,Somewhat agree,3,1698182376088,1698182379650,\Somewhat agree\,\Somewhat agree\,\3\,1698182377150,1698182379277,1062,3189,3562,buq,qns-item-noham,126,2304108,0.0-1.0-0.125
"<b>My political views are being shaped continuously as I gather more information, rather than relying on what I?ve known to be true of my party in the past. ",Highly disagree,127/150,Somewhat agree,3,1698182379651,1698182428714,\Somewhat agree\,\Somewhat agree\,\3\,1698182428256,1698182428256,48605,48605,49063,buq,qns-item-noham,127,2353172,0.0-1.0-0.126
<b>It?s pretty unusual for true things to seem false.,Highly disagree,128/150,Somewhat agree,3,1698182428716,1698182435805,\Somewhat agree\,\Somewhat agree\,\3\,1698182434884,1698182434884,6168,6168,7089,buq,qns-item-noham,128,2360263,0.0-1.0-0.127
"<b>Policy details don?t matter much, just the big picture.",Highly disagree,129/150,Somewhat disagree,2,1698182435806,1698182447200,\Somewhat disagree\,\Somewhat disagree\,\2\,1698182446744,1698182446744,10938,10938,11394,buq,qns-item-noham,129,2371659,0.0-1.0-0.128
<b>I know my friends so well they can hardly ever surprise me.,Highly disagree,130/150,Somewhat disagree,2,1698182447201,1698182472405,\Somewhat disagree\,\Somewhat disagree\,\2\,1698182471997,1698182471997,24796,24796,25204,buq,qns-item-noham,130,2396863,0.0-1.0-0.129
"<b>When I talk to people, I often think about why they have the beliefs they do.",Highly disagree,131/150,Somewhat agree,3,1698182472406,1698182475338,\Somewhat agree\,\Somewhat agree\,\3\,1698182474943,1698182474943,2537,2537,2932,buq,qns-item-noham,131,2399796,0.0-1.0-0.130
<b>I do not often change my views on people.,Highly disagree,132/150,Somewhat agree,3,1698182475339,1698182615579,\Somewhat disagree\,\Somewhat agree\,\2\,1698182613533,1698182615135,138194,139796,140240,buq,qns-item-noham,132,2540037,0.0-1.0-0.131
<b>I often wish I had more time to spend figuring out what?s true and what?s false in life.,Highly disagree,133/150,Highly agree,4,1698182615580,1698182618019,\Somewhat agree\,\Highly agree\,\3\,1698182617015,1698182617531,1435,1951,2439,buq,qns-item-noham,133,2542477,0.0-1.0-0.132
<b>I?m more certain about my beliefs than I used to be.,Highly disagree,134/150,Somewhat agree,3,1698182618019,1698182619903,\Somewhat agree\,\Somewhat agree\,\3\,1698182619168,1698182619168,1149,1149,1884,buq,qns-item-noham,134,2544361,0.0-1.0-0.133
"<b>Whenever I find out new information, I update my views on politics accordingly.",Highly disagree,135/150,Somewhat agree,3,1698182619904,1698182621725,\Somewhat agree\,\Somewhat agree\,\3\,1698182621099,1698182621099,1195,1195,1821,buq,qns-item-noham,135,2546183,0.0-1.0-0.134
<b>People often tell falsehoods unintentionally.,Highly disagree,136/150,Somewhat agree,3,1698182621726,1698182624231,\Somewhat agree\,\Somewhat agree\,\3\,1698182622949,1698182622949,1223,1223,2505,buq,qns-item-noham,136,2548689,0.0-1.0-0.135
<b>Most people don?t know much about most things.,Highly disagree,137/150,Highly agree,4,1698182624232,1698182627426,\Somewhat agree\,\Highly agree\,\3\,1698182624961,1698182626941,729,2709,3194,buq,qns-item-noham,137,2551884,0.0-1.0-0.136
"<b>If I find out something new about someone, I easily change my views about them.",Highly disagree,138/150,Somewhat agree,3,1698182627427,1698182632581,\Somewhat agree\,\Somewhat agree\,\3\,1698182632187,1698182632187,4760,4760,5154,buq,qns-item-noham,138,2557039,0.0-1.0-0.137
<b>Having true beliefs is difficult.,Highly disagree,139/150,Somewhat disagree,2,1698182632582,1698182636247,\Somewhat disagree\,\Somewhat disagree\,\2\,1698182635893,1698182635893,3311,3311,3665,buq,qns-item-noham,139,2560705,0.0-1.0-0.138
<b>I don?t try new foods since I know I won?t like them.,Highly disagree,140/150,Somewhat disagree,2,1698182636248,1698182638765,\Somewhat disagree\,\Somewhat disagree\,\2\,1698182637719,1698182637719,1471,1471,2517,buq,qns-item-noham,140,2563224,0.0-1.0-0.139
<b>It?s easy to figure out what?s true or false based on who?s saying it.,Highly disagree,141/150,Somewhat agree,3,1698182638766,1698182647683,\Somewhat disagree\,\Somewhat agree\,\2\,1698182646003,1698182646429,7237,7663,8917,buq,qns-item-noham,141,2572141,0.0-1.0-0.140
<b>False things have seemed true to me many times.,Highly disagree,142/150,Somewhat agree,3,1698182647684,1698182651621,\Somewhat agree\,\Somewhat agree\,\3\,1698182651251,1698182651251,3567,3567,3937,buq,qns-item-noham,142,2576079,0.0-1.0-0.141
<b>It?s pretty easy to sort out what?s true and what?s false in life.,Highly disagree,143/150,Somewhat disagree,2,1698182651622,1698182654577,\Somewhat disagree\,\Somewhat disagree\,\2\,1698182654057,1698182654057,2435,2435,2955,buq,qns-item-noham,143,2579035,0.0-1.0-0.142
<b>Knowing lots of statistics about something is usually important for understanding it.,Highly disagree,144/150,Somewhat agree,3,1698182654578,1698182779021,\Somewhat agree\,\Somewhat agree\,\3\,1698182776001,1698182776001,121423,121423,124443,buq,qns-item-noham,144,2703479,0.0-1.0-0.143
<b>Other people trick each other a lot.,Highly disagree,145/150,Highly agree,4,1698182779022,1698182780711,\Highly agree\,\Highly agree\,\4\,1698182780293,1698182780293,1271,1271,1689,buq,qns-item-noham,145,2705169,0.0-1.0-0.144
<b>I would need to learn a lot about a person for my opinion of them to be swayed.,Highly disagree,146/150,Somewhat agree,3,1698182780712,1698182782561,\Somewhat agree\,\Somewhat agree\,\3\,1698182782003,1698182782003,1291,1291,1849,buq,qns-item-noham,146,2707019,0.0-1.0-0.145
<b>People can?t usually trick me when it comes to topics I care about.,Highly disagree,147/150,Somewhat agree,3,1698182782563,1698182786186,\Somewhat agree\,\Somewhat agree\,\3\,1698182785811,1698182785811,3248,3248,3623,buq,qns-item-noham,147,2710644,0.0-1.0-0.146
<b>I do not often change my views on food.,Highly disagree,148/150,Somewhat disagree,2,1698182786187,1698182787985,\Somewhat disagree\,\Somewhat disagree\,\2\,1698182787611,1698182787611,1424,1424,1798,buq,qns-item-noham,148,2712443,0.0-1.0-0.147
<b>Specific policies are often very important to me.,Highly disagree,149/150,Somewhat agree,3,1698182787986,1698182790460,\Somewhat agree\,\Somewhat agree\,\3\,1698182790000,1698182790000,2014,2014,2474,buq,qns-item-noham,149,2714918,0.0-1.0-0.148
<b>Most people are woefully under-informed.,Highly disagree,150/150,Highly agree,4,1698182790462,1698182792854,\Somewhat agree\,\Highly agree\,\3\,1698182791807,1698182792339,1345,1877,2392,buq,qns-item-noham,150,2717312,0.0-1.0-0.149
