Question,qns_options,quest_num,answer,answer_num,question_load_timestamp,next_btn_timestamp,text_selected,final_text_selected,option_num_selected,preview_timestamps,final_text_selected_time_stamp,rt_first_option_click,rt_final_option_click,rt_submit_click,questionnaire,trial_type,trial_index,time_elapsed,internal_node_id
<b>Considering other people?s perspectives can help us figure out what?s true or false.,Highly disagree,1/150,Highly agree,4,1698180790619,1698180801849,\Highly agree\,\Highly agree\,\4\,1698180800038,1698180800038,9419,9419,11230,buq,qns-item-noham,1,25199,0.0-1.0-0.0
<b>Knowing what?s true and knowing what to do about it are usually basically the same.,Highly disagree,2/150,Somewhat agree,3,1698180801854,1698180819780,\Highly disagree\,\Somewhat agree\,\1\,1698180810596,1698180817791,8742,15937,17926,buq,qns-item-noham,2,43131,0.0-1.0-0.1
<b>Most people just believe whatever is convenient for them.,Highly disagree,3/150,Highly agree,4,1698180819788,1698180834061,\Highly agree\,\Highly agree\,\4\,1698180832703,1698180832703,12915,12915,14273,buq,qns-item-noham,3,57411,0.0-1.0-0.2
<b>Even people who are wrong about most things can be right sometimes.,Highly disagree,4/150,Highly agree,4,1698180834066,1698180841945,\Highly agree\,\Highly agree\,\4\,1698180840945,1698180840945,6879,6879,7879,buq,qns-item-noham,4,65296,0.0-1.0-0.3
"<b>If the political party I support does something that upsets me, then the party may have changed, and I need to re-evaluate my support.",Highly disagree,5/150,Highly disagree,1,1698180841953,1698180855561,\Highly disagree\,\Highly disagree\,\1\,1698180853543,1698180853543,11590,11590,13608,buq,qns-item-noham,5,78912,0.0-1.0-0.4
"<b>When people disagree, one side is usually completely right.",Highly disagree,6/150,Highly agree,4,1698180855566,1698180867559,\Somewhat agree\,\Highly agree\,\3\,1698180864405,1698180866402,8839,10836,11993,buq,qns-item-noham,6,90909,0.0-1.0-0.5
<b>People have lots of false beliefs.,Highly disagree,7/150,Somewhat agree,3,1698180867566,1698180874147,\Somewhat agree\,\Somewhat agree\,\3\,1698180872241,1698180872241,4675,4675,6581,buq,qns-item-noham,7,97497,0.0-1.0-0.6
<b>Having some big beliefs helps me sort out minor ones.,Highly disagree,8/150,Highly disagree,1,1698180874153,1698180882125,\Highly disagree\,\Highly disagree\,\1\,1698180880666,1698180880666,6513,6513,7972,buq,qns-item-noham,8,105475,0.0-1.0-0.7
<b>Political questions are usually pretty complicated.,Highly disagree,9/150,Highly agree,4,1698180882130,1698180909033,\Highly agree\,\Highly agree\,\4\,1698180907477,1698180907477,25347,25347,26903,buq,qns-item-noham,9,132383,0.0-1.0-0.8
<b>Figuring out what?s important in life requires learning a lot of facts.,Highly disagree,10/150,Highly disagree,1,1698180909038,1698180931312,\Highly disagree\,\Highly disagree\,\1\,1698180929488,1698180929488,20450,20450,22274,buq,qns-item-noham,10,154663,0.0-1.0-0.9
<b>It is difficult for me to remember the last time I was surprised by politics.,Highly disagree,11/150,Somewhat agree,3,1698180931317,1698180942555,\Somewhat agree\,\Somewhat agree\,\3\,1698180941413,1698180941413,10096,10096,11238,buq,qns-item-noham,11,165905,0.0-1.0-0.10
<b>People?s false beliefs are understandable.,Highly disagree,12/150,Highly agree,4,1698180942559,1698180953419,\Highly agree\,\Highly agree\,\4\,1698180951550,1698180951550,8991,8991,10860,buq,qns-item-noham,12,176770,0.0-1.0-0.11
<b>I spend a lot of time trying to be informed about politics.,Highly disagree,13/150,Highly disagree,1,1698180953424,1698180981780,\Highly disagree\,\Highly disagree\,\1\,1698180981124,1698180981124,27700,27700,28356,buq,qns-item-noham,13,205130,0.0-1.0-0.12
<b>I think a lot about whether my beliefs are right.,Highly disagree,14/150,Somewhat agree,3,1698180981782,1698180986473,\Somewhat agree\,\Somewhat agree\,\3\,1698180986074,1698180986074,4292,4292,4691,buq,qns-item-noham,14,209823,0.0-1.0-0.13
<b>Statistics can be pretty misleading sometimes.,Highly disagree,15/150,Highly agree,4,1698180986475,1698180995774,\Highly agree\,\Highly agree\,\4\,1698180995163,1698180995163,8688,8688,9299,buq,qns-item-noham,15,219124,0.0-1.0-0.14
<b>Figuring out what?s true and what?s false takes a lot of time and effort.,Highly disagree,16/150,Highly agree,4,1698180995776,1698181025928,\Highly agree\,\Highly agree\,\4\,1698181025303,1698181025303,29527,29527,30152,buq,qns-item-noham,16,249278,0.0-1.0-0.15
"<b>If a friend does something bad to me, it was likely an error on their part.",Highly disagree,17/150,Highly disagree,1,1698181025930,1698181035874,\Highly disagree\,\Highly disagree\,\1\,1698181035221,1698181035221,9291,9291,9944,buq,qns-item-noham,17,259224,0.0-1.0-0.16
<b>I have lots of beliefs that I?m only sort of sure about.,Highly disagree,18/150,Somewhat agree,3,1698181035879,1698181045445,\Somewhat agree\,\Somewhat agree\,\3\,1698181045014,1698181045014,9135,9135,9566,buq,qns-item-noham,18,268795,0.0-1.0-0.17
"<b>If I go to my favorite restaurant and the food is surprisingly bad, it reminds me there are many disappointments in life.",Highly disagree,19/150,Somewhat disagree,2,1698181045448,1698181054577,\Somewhat disagree\,\Somewhat disagree\,\2\,1698181054229,1698181054229,8781,8781,9129,buq,qns-item-noham,19,277927,0.0-1.0-0.18
<b>Sometimes my beliefs are inconvenient for me.,Highly disagree,20/150,Somewhat agree,3,1698181054582,1698181059673,\Somewhat agree\,\Somewhat agree\,\3\,1698181059279,1698181059279,4697,4697,5091,buq,qns-item-noham,20,283023,0.0-1.0-0.19
<b>Paying attention to multiple news sources is important.,Highly disagree,21/150,Somewhat disagree,2,1698181059676,1698181089662,\Somewhat disagree\,\Somewhat disagree\,\2\,1698181083266,1698181083266,23590,23590,29986,buq,qns-item-noham,21,313013,0.0-1.0-0.20
"<b>If you are paying attention, please select ?Somewhat agree?",Highly disagree,22/150,Somewhat agree,3,1698181089666,1698181096164,\Somewhat agree\,\Somewhat agree\,\3\,1698181094634,1698181094634,4968,4968,6498,buq,qns-item-noham,22,319514,0.0-1.0-0.21
"<b>When I talk to others, I often worry I?ll convince them of something I didn?t mean to.",Highly disagree,23/150,Highly agree,4,1698181096166,1698181133101,\Highly agree\,\Highly agree\,\4\,1698181132409,1698181132409,36243,36243,36935,buq,qns-item-noham,23,356451,0.0-1.0-0.22
<b>I would need to learn something utterly shocking about my party in order to change my political views.,Highly disagree,24/150,Somewhat agree,3,1698181133103,1698181141248,\Somewhat agree\,\Somewhat agree\,\3\,1698181140895,1698181140895,7792,7792,8145,buq,qns-item-noham,24,364598,0.0-1.0-0.23
"<b>When I have new experiences, I tend to think of them as unique.",Highly disagree,25/150,Somewhat disagree,2,1698181141252,1698181142522,\Somewhat disagree\,\Somewhat disagree\,\2\,1698181142146,1698181142146,894,894,1270,buq,qns-item-noham,25,365872,0.0-1.0-0.24
<b>Reading lots of things is important for understanding the world.,Highly disagree,26/150,Somewhat agree,3,1698181142524,1698181143679,\Somewhat agree\,\Somewhat agree\,\3\,1698181143227,1698181143227,703,703,1155,buq,qns-item-noham,26,367029,0.0-1.0-0.25
<b>The world is complicated.,Highly disagree,27/150,Somewhat agree,3,1698181143683,1698181147453,\Somewhat agree\,\Somewhat agree\,\3\,1698181146982,1698181146982,3299,3299,3770,buq,qns-item-noham,27,370803,0.0-1.0-0.26
<b>I change my mind about specific policies pretty frequently.,Highly disagree,28/150,Highly agree,4,1698181147455,1698181148830,\Highly agree\,\Highly agree\,\4\,1698181148380,1698181148380,925,925,1375,buq,qns-item-noham,28,372180,0.0-1.0-0.27
"<b>If a politician in my political party supports something I disagree with, I give them the benefit of the doubt, as such issues often involve hidden complexities that aren?t obvious.   ",Highly disagree,29/150,Somewhat agree,3,1698181148831,1698181150497,\Somewhat agree\,\Somewhat agree\,\3\,1698181149865,1698181149865,1034,1034,1666,buq,qns-item-noham,29,373847,0.0-1.0-0.28
<b>People?s bad politics are usually motivated by hatefulness.,Highly disagree,30/150,Somewhat agree,3,1698181150502,1698181152136,\Somewhat agree\,\Somewhat agree\,\3\,1698181151610,1698181151610,1108,1108,1634,buq,qns-item-noham,30,375486,0.0-1.0-0.29
"<b>Most new experiences are just like old ones, but a little bit different.",Highly disagree,31/150,Highly agree,4,1698181152138,1698181155985,\Highly agree\,\Highly agree\,\4\,1698181155159,1698181155159,3021,3021,3847,buq,qns-item-noham,31,379335,0.0-1.0-0.30
<b>I think a lot about how to reconcile my beliefs with one another.,Highly disagree,32/150,Somewhat agree,3,1698181155988,1698181157621,\Somewhat agree\,\Somewhat agree\,\3\,1698181157009,1698181157009,1021,1021,1633,buq,qns-item-noham,32,380971,0.0-1.0-0.31
<b>Personal experience rarely leads people astray.,Highly disagree,33/150,Somewhat disagree,2,1698181157625,1698181159185,\Somewhat disagree\,\Somewhat disagree\,\2\,1698181158581,1698181158581,956,956,1560,buq,qns-item-noham,33,382535,0.0-1.0-0.32
<b>I might have false beliefs about important topics.,Highly disagree,34/150,Somewhat agree,3,1698181159192,1698181160630,\Somewhat agree\,\Somewhat agree\,\3\,1698181159976,1698181159976,784,784,1438,buq,qns-item-noham,34,383980,0.0-1.0-0.33
"<b>If a good friend of mine does something unexpected that upsets me, I feel like I don?t know them anymore.",Highly disagree,35/150,Somewhat agree,3,1698181160635,1698181180513,\Somewhat agree\,\Somewhat agree\,\3\,1698181180107,1698181180107,19472,19472,19878,buq,qns-item-noham,35,403863,0.0-1.0-0.34
<b>Other people?s beliefs are often incoherent.,Highly disagree,36/150,Highly agree,4,1698181180518,1698181182407,\Highly agree\,\Highly agree\,\4\,1698181181869,1698181181869,1351,1351,1889,buq,qns-item-noham,36,405757,0.0-1.0-0.35
<b>It?s important to have friends who think about things differently than I do.,Highly disagree,37/150,Somewhat agree,3,1698181182409,1698181184139,\Somewhat agree\,\Somewhat agree\,\3\,1698181183669,1698181183669,1260,1260,1730,buq,qns-item-noham,37,407489,0.0-1.0-0.36
"<b>Every now and then, a new experience will unsettle beliefs I?ve had for a while.",Highly disagree,38/150,Somewhat agree,3,1698181184141,1698181185786,\Somewhat agree\,\Somewhat agree\,\3\,1698181185329,1698181185329,1188,1188,1645,buq,qns-item-noham,38,409136,0.0-1.0-0.37
<b>Some policies I agree with in principle are so bad I don?t support them. ,Highly disagree,39/150,Highly agree,4,1698181185788,1698181189225,\Highly agree\,\Highly agree\,\4\,1698181188765,1698181188765,2977,2977,3437,buq,qns-item-noham,39,412575,0.0-1.0-0.38
<b>I?m pretty sure I?ve accidentally spread false information.,Highly disagree,40/150,Somewhat agree,3,1698181189227,1698181192260,\Somewhat agree\,\Somewhat agree\,\3\,1698181190401,1698181190401,1174,1174,3033,buq,qns-item-noham,40,415610,0.0-1.0-0.39
"<b>If I go to my favorite restaurant and the food is unexpectedly bad, then they have changed owners.",Highly disagree,41/150,Somewhat disagree,2,1698181192267,1698181194445,\Somewhat disagree\,\Somewhat disagree\,\2\,1698181193609,1698181193609,1342,1342,2178,buq,qns-item-noham,41,417795,0.0-1.0-0.40
"<b>In politics, it?s important to trust your friends and family.",Highly disagree,42/150,Somewhat agree,3,1698181194449,1698181196175,\Somewhat agree\,\Somewhat agree\,\3\,1698181195400,1698181195400,951,951,1726,buq,qns-item-noham,42,419525,0.0-1.0-0.41
<b>It?s OK to have some conflicting beliefs.,Highly disagree,43/150,Highly agree,4,1698181196181,1698181199266,\Highly agree\,\Highly agree\,\4\,1698181198637,1698181198637,2456,2456,3085,buq,qns-item-noham,43,422616,0.0-1.0-0.42
<b>Sometimes the details of a matter seem to conflict with the big picture.,Highly disagree,44/150,Somewhat agree,3,1698181199269,1698181202798,\Somewhat agree\,\Somewhat agree\,\3\,1698181200346,1698181200346,1077,1077,3529,buq,qns-item-noham,44,426148,0.0-1.0-0.43
<b>Listening to people I disagree with makes my opinions better.,Highly disagree,45/150,Highly disagree,1,1698181202801,1698181208567,\Highly disagree\,\Highly disagree\,\1\,1698181207984,1698181207984,5183,5183,5766,buq,qns-item-noham,45,431917,0.0-1.0-0.44
<b>Policies that sound bad are sometimes fine when you find out about their details.,Highly disagree,46/150,Somewhat agree,3,1698181208572,1698181225582,\Somewhat agree\,\Somewhat agree\,\3\,1698181225143,1698181225143,16571,16571,17010,buq,qns-item-noham,46,448932,0.0-1.0-0.45
"<b>The world is always changing, so my beliefs are sometimes out-dated.",Highly disagree,47/150,Somewhat disagree,2,1698181225590,1698181226843,\Somewhat disagree\,\Somewhat disagree\,\2\,1698181226414,1698181226414,824,824,1253,buq,qns-item-noham,47,450193,0.0-1.0-0.46
"<b>If I receive a bad meal at my favorite restaurant and the food is surprisingly bad, I do not think much of it, and assume the chef is just having an ?off? day.",Highly disagree,48/150,Somewhat agree,3,1698181226848,1698181229133,\Somewhat agree\,\Somewhat agree\,\3\,1698181228643,1698181228643,1795,1795,2285,buq,qns-item-noham,48,452483,0.0-1.0-0.47
"<b>False information is unavoidable, to some extent.",Highly disagree,49/150,Highly agree,4,1698181229139,1698181235935,\Highly agree\,\Highly agree\,\4\,1698181235383,1698181235383,6244,6244,6796,buq,qns-item-noham,49,459285,0.0-1.0-0.48
<b>My moral compass sometimes makes it harder to determine what?s true.,Highly disagree,50/150,Highly agree,4,1698181235939,1698181237835,\Highly agree\,\Highly agree\,\4\,1698181237334,1698181237334,1395,1395,1896,buq,qns-item-noham,50,461185,0.0-1.0-0.49
"<b>When you disagree with someone, it?s important to listen to them carefully.",Highly disagree,51/150,Somewhat disagree,2,1698181237838,1698181239879,\Somewhat disagree\,\Somewhat disagree\,\2\,1698181239472,1698181239472,1634,1634,2041,buq,qns-item-noham,51,463229,0.0-1.0-0.50
<b>Evidence pointing in the wrong direction isn?t really evidence at all.,Highly disagree,52/150,Somewhat agree,3,1698181239887,1698181241219,\Somewhat agree\,\Somewhat agree\,\3\,1698181240748,1698181240748,861,861,1332,buq,qns-item-noham,52,464569,0.0-1.0-0.51
"<b>If the political party I support messes up, it makes me think politics is rotten.",Highly disagree,53/150,Highly agree,4,1698181241227,1698181242601,\Highly agree\,\Highly agree\,\4\,1698181242126,1698181242126,899,899,1374,buq,qns-item-noham,53,465951,0.0-1.0-0.52
<b>Lots of important topics can only really be understood by some groups of people.,Highly disagree,54/150,Somewhat agree,3,1698181242606,1698181243783,\Somewhat agree\,\Somewhat agree\,\3\,1698181243326,1698181243326,720,720,1177,buq,qns-item-noham,54,467133,0.0-1.0-0.53
<b>Details almost always matter for being right about something.,Highly disagree,55/150,Somewhat agree,3,1698181243787,1698181244933,\Somewhat agree\,\Somewhat agree\,\3\,1698181244492,1698181244492,705,705,1146,buq,qns-item-noham,55,468283,0.0-1.0-0.54
"<b>The most important thing in politics is winning, not convincing people.",Highly disagree,56/150,Somewhat disagree,2,1698181244939,1698181246145,\Somewhat disagree\,\Somewhat disagree\,\2\,1698181245686,1698181245686,747,747,1206,buq,qns-item-noham,56,469495,0.0-1.0-0.55
<b>Having conflicting beliefs means you haven?t thought about them enough.,Highly disagree,57/150,Somewhat agree,3,1698181246147,1698181247355,\Somewhat agree\,\Somewhat agree\,\3\,1698181246910,1698181246910,763,763,1208,buq,qns-item-noham,57,470705,0.0-1.0-0.56
<b>Other people have sometimes convinced me to change my mind on important topics.,Highly disagree,58/150,Highly agree,4,1698181247356,1698181248670,\Highly agree\,\Highly agree\,\4\,1698181248258,1698181248258,902,902,1314,buq,qns-item-noham,58,472020,0.0-1.0-0.57
<b>I do not often change my political opinions.,Highly disagree,59/150,Somewhat agree,3,1698181248673,1698181250080,\Somewhat agree\,\Somewhat agree\,\3\,1698181249401,1698181249401,728,728,1407,buq,qns-item-noham,59,473431,0.0-1.0-0.58
<b>Thinking about how different things relate to one another is critical in life.,Highly disagree,60/150,Somewhat agree,3,1698181250087,1698181262589,\Somewhat agree\,\Somewhat agree\,\3\,1698181262151,1698181262151,12064,12064,12502,buq,qns-item-noham,60,485939,0.0-1.0-0.59
<b>True beliefs can have unfortunate implications.,Highly disagree,61/150,Somewhat disagree,2,1698181262592,1698181263989,\Somewhat disagree\,\Somewhat disagree\,\2\,1698181263484,1698181263484,892,892,1397,buq,qns-item-noham,61,487339,0.0-1.0-0.60
<b>It?s difficult to not have at least some conflicting beliefs.,Highly disagree,62/150,Somewhat agree,3,1698181263991,1698181266674,\Highly agree\,\Somewhat agree\,\4\,1698181264792,1698181266211,801,2220,2683,buq,qns-item-noham,62,490024,0.0-1.0-0.61
"<b>When I learn new things, I think deeply about how my opinions should change.",Highly disagree,63/150,Somewhat agree,3,1698181266681,1698181268397,\Somewhat agree\,\Somewhat agree\,\3\,1698181267977,1698181267977,1296,1296,1716,buq,qns-item-noham,63,491747,0.0-1.0-0.62
<b>I think a lot about how to interpret different sorts of evidence.,Highly disagree,64/150,Somewhat disagree,2,1698181268401,1698181269891,\Somewhat disagree\,\Somewhat disagree\,\2\,1698181269453,1698181269453,1052,1052,1490,buq,qns-item-noham,64,493242,0.0-1.0-0.63
<b>Politics is about thinking together and finding compromises.,Highly disagree,65/150,Somewhat agree,3,1698181269897,1698181270979,\Somewhat agree\,\Somewhat agree\,\3\,1698181270535,1698181270535,638,638,1082,buq,qns-item-noham,65,494329,0.0-1.0-0.64
<b>Wishful thinking causes a lot of problems.,Highly disagree,66/150,Somewhat agree,3,1698181270983,1698181272485,\Somewhat agree\,\Somewhat agree\,\3\,1698181271823,1698181271823,840,840,1502,buq,qns-item-noham,66,495835,0.0-1.0-0.65
<b>I judge a food item only once I try it many times.,Highly disagree,67/150,Highly agree,4,1698181272492,1698181275722,\Highly agree\,\Highly agree\,\4\,1698181273873,1698181273873,1381,1381,3230,buq,qns-item-noham,67,499072,0.0-1.0-0.66
"<b>When a person holds conflicting beliefs, they should really try to figure out what?s wrong.",Highly disagree,68/150,Somewhat agree,3,1698181275725,1698181277131,\Somewhat agree\,\Somewhat agree\,\3\,1698181276574,1698181276574,849,849,1406,buq,qns-item-noham,68,500482,0.0-1.0-0.67
<b>Knowing what?s important in life is easy.,Highly disagree,69/150,Somewhat disagree,2,1698181277139,1698181278723,\Somewhat disagree\,\Somewhat disagree\,\2\,1698181278205,1698181278205,1066,1066,1584,buq,qns-item-noham,69,502073,0.0-1.0-0.68
<b>Lots of smart people disagree about basic political questions.,Highly disagree,70/150,Somewhat agree,3,1698181278727,1698181280227,\Somewhat agree\,\Somewhat agree\,\3\,1698181279717,1698181279717,990,990,1500,buq,qns-item-noham,70,503577,0.0-1.0-0.69
<b>I swim across the Atlantic Ocean to get to work every day.,Highly disagree,71/150,Somewhat agree,3,1698181280231,1698181281599,\Somewhat agree\,\Somewhat agree\,\3\,1698181281146,1698181281146,915,915,1368,buq,qns-item-noham,71,504949,0.0-1.0-0.70
"<b>Sometimes, you just have to ignore evidence that you know is wrong.",Highly disagree,72/150,Somewhat disagree,2,1698181281602,1698181290268,\Somewhat disagree\,\Somewhat disagree\,\2\,1698181282404,1698181282404,802,802,8666,buq,qns-item-noham,72,513618,0.0-1.0-0.71
<b>I have had some false beliefs.,Highly disagree,73/150,Somewhat agree,3,1698181290269,1698181294267,\Somewhat disagree\,\Somewhat agree\,\2\,1698181293109,1698181293844,2840,3575,3998,buq,qns-item-noham,73,517618,0.0-1.0-0.72
"<b>If one friend does something that upsets me, I sometimes start to distrust people in general.",Highly disagree,74/150,Somewhat agree,3,1698181294272,1698181295964,\Somewhat agree\,\Somewhat agree\,\3\,1698181295392,1698181295392,1120,1120,1692,buq,qns-item-noham,74,519314,0.0-1.0-0.73
<b>I easily apply what I learn in one situation to another.,Highly disagree,75/150,Highly agree,4,1698181295969,1698181297460,\Highly agree\,\Highly agree\,\4\,1698181296988,1698181296988,1019,1019,1491,buq,qns-item-noham,75,520810,0.0-1.0-0.74
<b>The facts about most important matters are easy to find.,Highly disagree,76/150,Somewhat agree,3,1698181297464,1698181298705,\Somewhat agree\,\Somewhat agree\,\3\,1698181298165,1698181298165,701,701,1241,buq,qns-item-noham,76,522055,0.0-1.0-0.75
<b>It?s better to know what?s true than to know what?s moral.,Highly disagree,77/150,Somewhat agree,3,1698181298706,1698181300168,\Somewhat agree\,\Somewhat agree\,\3\,1698181299735,1698181299735,1029,1029,1462,buq,qns-item-noham,77,523518,0.0-1.0-0.76
<b>It?s good to be skeptical of people you agree with.,Highly disagree,78/150,Somewhat disagree,2,1698181300170,1698181303315,\Somewhat disagree\,\Somewhat disagree\,\2\,1698181301194,1698181301194,1024,1024,3145,buq,qns-item-noham,78,526665,0.0-1.0-0.77
<b>Sometimes reasonable beliefs are wrong.,Highly disagree,79/150,Somewhat agree,3,1698181303317,1698181354257,\Somewhat agree\,\Somewhat agree\,\3\,1698181353187,1698181353187,49870,49870,50940,buq,qns-item-noham,79,577607,0.0-1.0-0.78
<b>I used to think the world was less complicated than I do now.,Highly disagree,80/150,Somewhat disagree,2,1698181354261,1698181356177,\Somewhat disagree\,\Somewhat disagree\,\2\,1698181355576,1698181355576,1315,1315,1916,buq,qns-item-noham,80,579527,0.0-1.0-0.79
<b>People are usually completely right or completely wrong.,Highly disagree,81/150,Somewhat agree,3,1698181356181,1698181359426,\Somewhat agree\,\Somewhat agree\,\3\,1698181358975,1698181358975,2794,2794,3245,buq,qns-item-noham,81,582776,0.0-1.0-0.80
<b>I spend a lot of time considering alternatives to my beliefs.,Highly disagree,82/150,Highly agree,4,1698181359428,1698181361198,\Highly agree\,\Highly agree\,\4\,1698181360271,1698181360271,843,843,1770,buq,qns-item-noham,82,584549,0.0-1.0-0.81
"<b>Political enemies need to be defeated, not convinced.",Highly disagree,83/150,Somewhat agree,3,1698181361204,1698181362214,\Somewhat agree\,\Somewhat agree\,\3\,1698181361784,1698181361784,580,580,1010,buq,qns-item-noham,83,585565,0.0-1.0-0.82
"<b>When forming an opinion about a restaurant, I am more swayed by my  latest meal there than  previous meals I?ve had there.",Highly disagree,84/150,Somewhat disagree,2,1698181362224,1698181364942,\Somewhat disagree\,\Somewhat disagree\,\2\,1698181363251,1698181363251,1027,1027,2718,buq,qns-item-noham,84,588292,0.0-1.0-0.83
<b>I try to remain skeptical about most topics.,Highly disagree,85/150,Somewhat agree,3,1698181364945,1698181366339,\Somewhat agree\,\Somewhat agree\,\3\,1698181365899,1698181365899,954,954,1394,buq,qns-item-noham,85,589689,0.0-1.0-0.84
<b>Being wrong is usually obvious in retrospect.,Highly disagree,86/150,Highly agree,4,1698181366344,1698181367740,\Highly agree\,\Highly agree\,\4\,1698181367285,1698181367285,941,941,1396,buq,qns-item-noham,86,591090,0.0-1.0-0.85
<b>It can be hard to realize that my beliefs are in conflict.,Highly disagree,87/150,Somewhat agree,3,1698181367746,1698181369137,\Somewhat agree\,\Somewhat agree\,\3\,1698181368528,1698181368528,782,782,1391,buq,qns-item-noham,87,592487,0.0-1.0-0.86
<b>I form my political views only after meticulously gathering historical and present information about their policies.,Highly disagree,88/150,Somewhat disagree,2,1698181369143,1698181371089,\Somewhat disagree\,\Somewhat disagree\,\2\,1698181370697,1698181370697,1554,1554,1946,buq,qns-item-noham,88,594439,0.0-1.0-0.87
<b>Skeptical people are usually just bad-tempered.,Highly disagree,89/150,Somewhat agree,3,1698181371096,1698181376029,\Somewhat agree\,\Somewhat agree\,\3\,1698181372445,1698181372445,1349,1349,4933,buq,qns-item-noham,89,599380,0.0-1.0-0.88
<b>It is difficult for me to remember the last time I was surprised by politics.,Highly disagree,90/150,Highly agree,4,1698181376035,1698181382100,\Highly agree\,\Highly agree\,\4\,1698181378476,1698181378476,2441,2441,6065,buq,qns-item-noham,90,605450,0.0-1.0-0.89
"<b>When I find out I?m wrong, I think a lot about my related beliefs.",Highly disagree,91/150,Somewhat disagree,2,1698181382103,1698181391131,\Somewhat disagree\,\Somewhat disagree\,\2\,1698181390627,1698181390627,8524,8524,9028,buq,qns-item-noham,91,614481,0.0-1.0-0.90
"<b>If the political party I support messes up, it makes me think you can?t trust anyone these days",Highly disagree,92/150,Somewhat agree,3,1698181391135,1698181392149,\Somewhat agree\,\Somewhat agree\,\3\,1698181391791,1698181391791,656,656,1014,buq,qns-item-noham,92,615499,0.0-1.0-0.91
<b>People?s brains turn off when they talk about politics.,Highly disagree,93/150,Somewhat disagree,2,1698181392152,1698181393295,\Somewhat disagree\,\Somewhat disagree\,\2\,1698181392865,1698181392865,713,713,1143,buq,qns-item-noham,93,616645,0.0-1.0-0.92
<b>People who are wrong are usually just ignoring the obvious.,Highly disagree,94/150,Highly agree,4,1698181393304,1698181394594,\Highly agree\,\Highly agree\,\4\,1698181394174,1698181394174,870,870,1290,buq,qns-item-noham,94,617944,0.0-1.0-0.93
"<b>The world isn?t that complicated, but it?s still hard to figure out how it works.",Highly disagree,95/150,Somewhat agree,3,1698181394598,1698181396114,\Somewhat agree\,\Somewhat agree\,\3\,1698181395544,1698181395544,946,946,1516,buq,qns-item-noham,95,619465,0.0-1.0-0.94
"<b>When forming my views on people, I rely more on what they are like now rather than rely on my past experience with them.",Highly disagree,96/150,Somewhat agree,3,1698181396117,1698181397970,\Somewhat agree\,\Somewhat agree\,\3\,1698181397582,1698181397582,1465,1465,1853,buq,qns-item-noham,96,621320,0.0-1.0-0.95
"<b>When people contradict my beliefs, I usually know about their evidence already.",Highly disagree,97/150,Somewhat disagree,2,1698181397972,1698181399299,\Somewhat disagree\,\Somewhat disagree\,\2\,1698181398741,1698181398741,769,769,1327,buq,qns-item-noham,97,622649,0.0-1.0-0.96
<b>Being wrong is a matter of degree.,Highly disagree,98/150,Somewhat agree,3,1698181399301,1698181401722,\Somewhat agree\,\Somewhat agree\,\3\,1698181400679,1698181400679,1378,1378,2421,buq,qns-item-noham,98,625072,0.0-1.0-0.97
<b>Figuring out what?s true and what?s false mainly requires a strong moral compass.,Highly disagree,99/150,Somewhat disagree,2,1698181401725,1698181403293,\Somewhat disagree\,\Somewhat disagree\,\2\,1698181402889,1698181402889,1164,1164,1568,buq,qns-item-noham,99,626643,0.0-1.0-0.98
<b>Most of the beliefs people have are at least somewhat understandable.,Highly disagree,100/150,Somewhat agree,3,1698181403300,1698181404345,\Somewhat agree\,\Somewhat agree\,\3\,1698181403895,1698181403895,595,595,1045,buq,qns-item-noham,100,627695,0.0-1.0-0.99
"<b>Usually I?m wrong about simple things, not complicated ones.",Highly disagree,101/150,Highly agree,4,1698181404350,1698181405558,\Highly agree\,\Highly agree\,\4\,1698181405023,1698181405023,673,673,1208,buq,qns-item-noham,101,628908,0.0-1.0-0.100
<b>Getting all the information I want about important things is hard.,Highly disagree,102/150,Highly agree,4,1698181405561,1698181406911,\Highly agree\,\Highly agree\,\4\,1698181406312,1698181406312,751,751,1350,buq,qns-item-noham,102,630261,0.0-1.0-0.101
<b>Most false beliefs spread because people try to deceive one another.,Highly disagree,103/150,Somewhat agree,3,1698181406913,1698181440787,\Somewhat agree\,\Somewhat agree\,\3\,1698181440162,1698181440162,33249,33249,33874,buq,qns-item-noham,103,664137,0.0-1.0-0.102
<b>I can usually find something to agree with in most people?s beliefs.,Highly disagree,104/150,Somewhat agree,3,1698181440789,1698181444197,\Somewhat agree\,\Somewhat agree\,\3\,1698181443703,1698181443703,2914,2914,3408,buq,qns-item-noham,104,667547,0.0-1.0-0.103
<b>I only form my views of people once I get to know them very well.,Highly disagree,105/150,Somewhat disagree,2,1698181444203,1698181445702,\Somewhat disagree\,\Somewhat disagree\,\2\,1698181444988,1698181444988,785,785,1499,buq,qns-item-noham,105,669052,0.0-1.0-0.104
"<b>When people tell me important things about the world, I usually believe them.",Highly disagree,106/150,Somewhat agree,3,1698181445704,1698181447116,\Somewhat agree\,\Somewhat agree\,\3\,1698181446510,1698181446510,806,806,1412,buq,qns-item-noham,106,670466,0.0-1.0-0.105
"<b>If a friend does something that upsets me, it reminds me what an unpredictable place the world is.",Highly disagree,107/150,Somewhat agree,3,1698181447126,1698181448551,\Somewhat agree\,\Somewhat agree\,\3\,1698181447985,1698181447985,859,859,1425,buq,qns-item-noham,107,671901,0.0-1.0-0.106
<b>Having some conflicting beliefs is inevitable.,Highly disagree,108/150,Somewhat agree,3,1698181448553,1698181456854,\Somewhat agree\,\Somewhat agree\,\3\,1698181456072,1698181456072,7519,7519,8301,buq,qns-item-noham,108,680204,0.0-1.0-0.107
<b>People are wrong because they haven?t thought much about things.,Highly disagree,109/150,Somewhat disagree,2,1698181456858,1698181458519,\Somewhat disagree\,\Somewhat disagree\,\2\,1698181457873,1698181457873,1015,1015,1661,buq,qns-item-noham,109,681869,0.0-1.0-0.108
<b>People tend to believe whatever is good for their friends.,Highly disagree,110/150,Somewhat disagree,2,1698181458527,1698181460566,\Somewhat disagree\,\Somewhat disagree\,\2\,1698181459937,1698181459937,1410,1410,2039,buq,qns-item-noham,110,683916,0.0-1.0-0.109
"<b>When I talk about important topics, I try to make sure people know I?m not always right.",Highly disagree,111/150,Somewhat disagree,2,1698181460570,1698181487508,\Somewhat disagree\,\Somewhat disagree\,\2\,1698181486924,1698181486924,26354,26354,26938,buq,qns-item-noham,111,710858,0.0-1.0-0.110
<b>I used to be more certain my beliefs were true.,Highly disagree,112/150,Somewhat agree,3,1698181487511,1698181488786,\Somewhat agree\,\Somewhat agree\,\3\,1698181488252,1698181488252,741,741,1275,buq,qns-item-noham,112,712136,0.0-1.0-0.111
<b>It?s often pretty easy to figure out whether something is true based on who said it.,Highly disagree,113/150,Somewhat agree,3,1698181488791,1698181490461,\Somewhat agree\,\Somewhat agree\,\3\,1698181489752,1698181489752,961,961,1670,buq,qns-item-noham,113,713811,0.0-1.0-0.112
<b>Having bad food in my favorite restaurant will make me think the restaurant is no longer good.,Highly disagree,114/150,Somewhat disagree,2,1698181490467,1698181491869,\Somewhat disagree\,\Somewhat disagree\,\2\,1698181491368,1698181491368,901,901,1402,buq,qns-item-noham,114,715220,0.0-1.0-0.113
<b>I transform into a hummingbird every day.,Highly disagree,115/150,Somewhat agree,3,1698181491874,1698181493833,\Somewhat agree\,\Somewhat agree\,\3\,1698181493413,1698181493413,1539,1539,1959,buq,qns-item-noham,115,717183,0.0-1.0-0.114
"<b>Unfortunately, when people are wrong, it?s usually because they?re bad.",Highly disagree,116/150,Somewhat disagree,2,1698181493838,1698181495394,\Somewhat disagree\,\Somewhat disagree\,\2\,1698181494836,1698181494836,998,998,1556,buq,qns-item-noham,116,718744,0.0-1.0-0.115
<b>I think a lot about arguments against my views.,Highly disagree,117/150,Somewhat disagree,2,1698181495398,1698181496729,\Somewhat disagree\,\Somewhat disagree\,\2\,1698181496154,1698181496154,756,756,1331,buq,qns-item-noham,117,720079,0.0-1.0-0.116
<b>Details tend to matter a lot for knowing whether a policy is good.,Highly disagree,118/150,Somewhat disagree,2,1698181496734,1698181498183,\Somewhat disagree\,\Somewhat disagree\,\2\,1698181497636,1698181497636,902,902,1449,buq,qns-item-noham,118,721533,0.0-1.0-0.117
<b>Personal experience is usually more important than facts and figures.,Highly disagree,119/150,Somewhat agree,3,1698181498186,1698181499603,\Somewhat agree\,\Somewhat agree\,\3\,1698181499053,1698181499053,867,867,1417,buq,qns-item-noham,119,722954,0.0-1.0-0.118
<b>I?ve been tricked before about important matters.,Highly disagree,120/150,Highly agree,4,1698181499611,1698181508617,\Highly agree\,\Highly agree\,\4\,1698181507945,1698181507945,8334,8334,9006,buq,qns-item-noham,120,731967,0.0-1.0-0.119
<b>I would need to be totally wowed if I were to change my opinion of a restaurant I don?t like.,Highly disagree,121/150,Somewhat agree,3,1698181508625,1698181557152,\Somewhat agree\,\Somewhat agree\,\3\,1698181556777,1698181556777,48152,48152,48527,buq,qns-item-noham,121,780503,0.0-1.0-0.120
<b>I care a lot about politics.,Highly disagree,122/150,Somewhat agree,3,1698181557154,1698181558862,\Somewhat agree\,\Somewhat agree\,\3\,1698181557903,1698181557903,749,749,1708,buq,qns-item-noham,122,782212,0.0-1.0-0.121
<b>People with conflicting beliefs usually have some facts they disagree on.,Highly disagree,123/150,Somewhat disagree,2,1698181558870,1698181559914,\Somewhat disagree\,\Somewhat disagree\,\2\,1698181559459,1698181559459,589,589,1044,buq,qns-item-noham,123,783264,0.0-1.0-0.122
<b>There are some topics I?ve been really wrong about.,Highly disagree,124/150,Somewhat agree,3,1698181559921,1698181561110,\Somewhat agree\,\Somewhat agree\,\3\,1698181560670,1698181560670,749,749,1189,buq,qns-item-noham,124,784460,0.0-1.0-0.123
<b>Most beliefs can be supported with at least some evidence.,Highly disagree,125/150,Somewhat disagree,2,1698181561112,1698181562452,\Somewhat disagree\,\Somewhat disagree\,\2\,1698181562105,1698181562105,993,993,1340,buq,qns-item-noham,125,785802,0.0-1.0-0.124
<b>Other people make life out to be more complicated than it really is.,Highly disagree,126/150,Somewhat agree,3,1698181562454,1698181563489,\Somewhat agree\,\Somewhat agree\,\3\,1698181563100,1698181563100,646,646,1035,buq,qns-item-noham,126,786840,0.0-1.0-0.125
"<b>My political views are being shaped continuously as I gather more information, rather than relying on what I?ve known to be true of my party in the past. ",Highly disagree,127/150,Highly agree,4,1698181563495,1698181565834,\Highly agree\,\Highly agree\,\4\,1698181564753,1698181564753,1258,1258,2339,buq,qns-item-noham,127,789184,0.0-1.0-0.126
<b>It?s pretty unusual for true things to seem false.,Highly disagree,128/150,Somewhat agree,3,1698181565841,1698181567037,\Somewhat agree\,\Somewhat agree\,\3\,1698181566680,1698181566680,839,839,1196,buq,qns-item-noham,128,790387,0.0-1.0-0.127
"<b>Policy details don?t matter much, just the big picture.",Highly disagree,129/150,Somewhat agree,3,1698181567044,1698181567925,\Somewhat agree\,\Somewhat agree\,\3\,1698181567593,1698181567593,549,549,881,buq,qns-item-noham,129,791275,0.0-1.0-0.128
<b>I know my friends so well they can hardly ever surprise me.,Highly disagree,130/150,Somewhat disagree,2,1698181567936,1698181569038,\Somewhat disagree\,\Somewhat disagree\,\2\,1698181568721,1698181568721,785,785,1102,buq,qns-item-noham,130,792388,0.0-1.0-0.129
"<b>When I talk to people, I often think about why they have the beliefs they do.",Highly disagree,131/150,Somewhat agree,3,1698181569039,1698181570083,\Somewhat agree\,\Somewhat agree\,\3\,1698181569673,1698181569673,634,634,1044,buq,qns-item-noham,131,793433,0.0-1.0-0.130
<b>I do not often change my views on people.,Highly disagree,132/150,Somewhat disagree,2,1698181570091,1698181573440,\Somewhat disagree\,\Somewhat disagree\,\2\,1698181573035,1698181573035,2944,2944,3349,buq,qns-item-noham,132,796790,0.0-1.0-0.131
<b>I often wish I had more time to spend figuring out what?s true and what?s false in life.,Highly disagree,133/150,Somewhat agree,3,1698181573443,1698181574727,\Somewhat agree\,\Somewhat agree\,\3\,1698181574194,1698181574194,751,751,1284,buq,qns-item-noham,133,798078,0.0-1.0-0.132
<b>I?m more certain about my beliefs than I used to be.,Highly disagree,134/150,Somewhat agree,3,1698181574731,1698181576242,\Somewhat agree\,\Somewhat agree\,\3\,1698181575512,1698181575512,781,781,1511,buq,qns-item-noham,134,799592,0.0-1.0-0.133
"<b>Whenever I find out new information, I update my views on politics accordingly.",Highly disagree,135/150,Somewhat disagree,2,1698181576252,1698181577730,\Somewhat disagree\,\Somewhat disagree\,\2\,1698181577236,1698181577236,984,984,1478,buq,qns-item-noham,135,801080,0.0-1.0-0.134
<b>People often tell falsehoods unintentionally.,Highly disagree,136/150,Somewhat agree,3,1698181577732,1698181578931,\Somewhat agree\,\Somewhat agree\,\3\,1698181578391,1698181578391,659,659,1199,buq,qns-item-noham,136,802281,0.0-1.0-0.135
<b>Most people don?t know much about most things.,Highly disagree,137/150,Somewhat agree,3,1698181578933,1698181580682,\Somewhat agree\,\Somewhat agree\,\3\,1698181580242,1698181580242,1309,1309,1749,buq,qns-item-noham,137,804032,0.0-1.0-0.136
"<b>If I find out something new about someone, I easily change my views about them.",Highly disagree,138/150,Highly disagree,1,1698181580687,1698181586588,\Highly disagree\,\Highly disagree\,\1\,1698181585933,1698181585933,5246,5246,5901,buq,qns-item-noham,138,809938,0.0-1.0-0.137
<b>Having true beliefs is difficult.,Highly disagree,139/150,Somewhat agree,3,1698181586591,1698181589693,\Somewhat agree\,\Somewhat agree\,\3\,1698181589268,1698181589268,2677,2677,3102,buq,qns-item-noham,139,813043,0.0-1.0-0.138
<b>I don?t try new foods since I know I won?t like them.,Highly disagree,140/150,Somewhat disagree,2,1698181589697,1698181591364,\Somewhat disagree\,\Somewhat disagree\,\2\,1698181591016,1698181591016,1319,1319,1667,buq,qns-item-noham,140,814714,0.0-1.0-0.139
<b>It?s easy to figure out what?s true or false based on who?s saying it.,Highly disagree,141/150,Somewhat agree,3,1698181591366,1698181592394,\Somewhat agree\,\Somewhat agree\,\3\,1698181591987,1698181591987,621,621,1028,buq,qns-item-noham,141,815744,0.0-1.0-0.140
<b>False things have seemed true to me many times.,Highly disagree,142/150,Somewhat agree,3,1698181592397,1698181593483,\Somewhat agree\,\Somewhat agree\,\3\,1698181592985,1698181592985,588,588,1086,buq,qns-item-noham,142,816833,0.0-1.0-0.141
<b>It?s pretty easy to sort out what?s true and what?s false in life.,Highly disagree,143/150,Somewhat disagree,2,1698181593494,1698181595022,\Somewhat disagree\,\Somewhat disagree\,\2\,1698181594339,1698181594339,845,845,1528,buq,qns-item-noham,143,818372,0.0-1.0-0.142
<b>Knowing lots of statistics about something is usually important for understanding it.,Highly disagree,144/150,Somewhat agree,3,1698181595027,1698181596563,\Somewhat agree\,\Somewhat agree\,\3\,1698181596108,1698181596108,1081,1081,1536,buq,qns-item-noham,144,819914,0.0-1.0-0.143
<b>Other people trick each other a lot.,Highly disagree,145/150,Somewhat agree,3,1698181596566,1698181598012,\Somewhat agree\,\Somewhat agree\,\3\,1698181597563,1698181597563,997,997,1446,buq,qns-item-noham,145,821362,0.0-1.0-0.144
<b>I would need to learn a lot about a person for my opinion of them to be swayed.,Highly disagree,146/150,Somewhat disagree,2,1698181598017,1698181599135,\Somewhat disagree\,\Somewhat disagree\,\2\,1698181598771,1698181598771,754,754,1118,buq,qns-item-noham,146,822485,0.0-1.0-0.145
<b>People can?t usually trick me when it comes to topics I care about.,Highly disagree,147/150,Somewhat agree,3,1698181599136,1698181600609,\Somewhat agree\,\Somewhat agree\,\3\,1698181599920,1698181599920,784,784,1473,buq,qns-item-noham,147,823960,0.0-1.0-0.146
<b>I do not often change my views on food.,Highly disagree,148/150,Highly disagree,1,1698181600614,1698181603933,\Somewhat disagree\,\Highly disagree\,\2\,1698181601641,1698181603514,1027,2900,3319,buq,qns-item-noham,148,827284,0.0-1.0-0.147
<b>Specific policies are often very important to me.,Highly disagree,149/150,Somewhat agree,3,1698181603938,1698181605205,\Somewhat agree\,\Somewhat agree\,\3\,1698181604763,1698181604763,825,825,1267,buq,qns-item-noham,149,828555,0.0-1.0-0.148
<b>Most people are woefully under-informed.,Highly disagree,150/150,Somewhat agree,3,1698181605210,1698181608133,\Somewhat disagree\,\Somewhat agree\,\2\,1698181606546,1698181607617,1336,2407,2923,buq,qns-item-noham,150,831483,0.0-1.0-0.149
