Question,qns_options,quest_num,answer,answer_num,question_load_timestamp,next_btn_timestamp,text_selected,final_text_selected,option_num_selected,preview_timestamps,final_text_selected_time_stamp,rt_first_option_click,rt_final_option_click,rt_submit_click,questionnaire,trial_type,trial_index,time_elapsed,internal_node_id
<b>Considering other people?s perspectives can help us figure out what?s true or false.,Highly disagree,1/150,Somewhat agree,3,1698180090859,1698180110160,\Somewhat agree\,\Somewhat agree\,\3\,1698180108033,1698180108033,17174,17174,19301,buq,qns-item-noham,1,30062,0.0-1.0-0.0
<b>Knowing what?s true and knowing what to do about it are usually basically the same.,Highly disagree,2/150,Somewhat disagree,2,1698180110162,1698180117043,\Somewhat disagree\,\Somewhat disagree\,\2\,1698180116545,1698180116545,6383,6383,6881,buq,qns-item-noham,2,36945,0.0-1.0-0.1
<b>Most people just believe whatever is convenient for them.,Highly disagree,3/150,Somewhat agree,3,1698180117044,1698180120875,\Somewhat agree\,\Somewhat agree\,\3\,1698180120363,1698180120363,3319,3319,3831,buq,qns-item-noham,3,40777,0.0-1.0-0.2
<b>Even people who are wrong about most things can be right sometimes.,Highly disagree,4/150,Somewhat agree,3,1698180120876,1698180126712,\Somewhat agree\,\Somewhat agree\,\3\,1698180126127,1698180126127,5251,5251,5836,buq,qns-item-noham,4,46614,0.0-1.0-0.3
"<b>If the political party I support does something that upsets me, then the party may have changed, and I need to re-evaluate my support.",Highly disagree,5/150,Somewhat agree,3,1698180126713,1698180142338,\Somewhat disagree\,\Somewhat agree\,\2\,1698180136360,1698180141635,9647,14922,15625,buq,qns-item-noham,5,62240,0.0-1.0-0.4
"<b>When people disagree, one side is usually completely right.",Highly disagree,6/150,Somewhat disagree,2,1698180142339,1698180153186,\Somewhat disagree\,\Somewhat disagree\,\2\,1698180152001,1698180152001,9662,9662,10847,buq,qns-item-noham,6,73088,0.0-1.0-0.5
<b>People have lots of false beliefs.,Highly disagree,7/150,Highly agree,4,1698180153187,1698180155919,\Highly agree\,\Highly agree\,\4\,1698180155362,1698180155362,2175,2175,2732,buq,qns-item-noham,7,75821,0.0-1.0-0.6
<b>Having some big beliefs helps me sort out minor ones.,Highly disagree,8/150,Somewhat disagree,2,1698180155920,1698180163130,\Somewhat disagree\,\Somewhat disagree\,\2\,1698180162621,1698180162621,6701,6701,7210,buq,qns-item-noham,8,83032,0.0-1.0-0.7
<b>Political questions are usually pretty complicated.,Highly disagree,9/150,Somewhat agree,3,1698180163131,1698180166988,\Somewhat agree\,\Somewhat agree\,\3\,1698180166428,1698180166428,3297,3297,3857,buq,qns-item-noham,9,86890,0.0-1.0-0.8
<b>Figuring out what?s important in life requires learning a lot of facts.,Highly disagree,10/150,Somewhat agree,3,1698180166989,1698180171547,\Somewhat agree\,\Somewhat agree\,\3\,1698180170748,1698180170748,3759,3759,4558,buq,qns-item-noham,10,91449,0.0-1.0-0.9
<b>It is difficult for me to remember the last time I was surprised by politics.,Highly disagree,11/150,Somewhat agree,3,1698180171548,1698180177048,\Somewhat agree\,\Somewhat agree\,\3\,1698180176550,1698180176550,5002,5002,5500,buq,qns-item-noham,11,96950,0.0-1.0-0.10
<b>People?s false beliefs are understandable.,Highly disagree,12/150,Somewhat agree,3,1698180177049,1698180182769,\Somewhat agree\,\Somewhat agree\,\3\,1698180182296,1698180182296,5247,5247,5720,buq,qns-item-noham,12,102671,0.0-1.0-0.11
<b>I spend a lot of time trying to be informed about politics.,Highly disagree,13/150,Highly disagree,1,1698180182770,1698180185842,\Highly disagree\,\Highly disagree\,\1\,1698180185348,1698180185348,2578,2578,3072,buq,qns-item-noham,13,105744,0.0-1.0-0.12
<b>I think a lot about whether my beliefs are right.,Highly disagree,14/150,Somewhat disagree,2,1698180185843,1698180189607,\Somewhat disagree\,\Somewhat disagree\,\2\,1698180189133,1698180189133,3290,3290,3764,buq,qns-item-noham,14,109509,0.0-1.0-0.13
<b>Statistics can be pretty misleading sometimes.,Highly disagree,15/150,Somewhat agree,3,1698180189608,1698180196503,\Somewhat agree\,\Somewhat agree\,\3\,1698180195919,1698180195919,6311,6311,6895,buq,qns-item-noham,15,116405,0.0-1.0-0.14
<b>Figuring out what?s true and what?s false takes a lot of time and effort.,Highly disagree,16/150,Somewhat agree,3,1698180196504,1698180203018,\Somewhat agree\,\Somewhat agree\,\3\,1698180202489,1698180202489,5985,5985,6514,buq,qns-item-noham,16,122920,0.0-1.0-0.15
"<b>If a friend does something bad to me, it was likely an error on their part.",Highly disagree,17/150,Somewhat agree,3,1698180203019,1698180213150,\Somewhat agree\,\Somewhat agree\,\3\,1698180212651,1698180212651,9632,9632,10131,buq,qns-item-noham,17,133052,0.0-1.0-0.16
<b>I have lots of beliefs that I?m only sort of sure about.,Highly disagree,18/150,Somewhat agree,3,1698180213151,1698180224179,\Somewhat agree\,\Somewhat agree\,\3\,1698180223715,1698180223715,10564,10564,11028,buq,qns-item-noham,18,144081,0.0-1.0-0.17
"<b>If I go to my favorite restaurant and the food is surprisingly bad, it reminds me there are many disappointments in life.",Highly disagree,19/150,Somewhat agree,3,1698180224180,1698180232743,\Somewhat agree\,\Somewhat agree\,\3\,1698180232313,1698180232313,8133,8133,8563,buq,qns-item-noham,19,152645,0.0-1.0-0.18
<b>Sometimes my beliefs are inconvenient for me.,Highly disagree,20/150,Somewhat agree,3,1698180232744,1698180236095,\Somewhat agree\,\Somewhat agree\,\3\,1698180235654,1698180235654,2910,2910,3351,buq,qns-item-noham,20,155997,0.0-1.0-0.19
<b>Paying attention to multiple news sources is important.,Highly disagree,21/150,Somewhat agree,3,1698180236096,1698180240255,\Somewhat agree\,\Somewhat agree\,\3\,1698180238945,1698180238945,2849,2849,4159,buq,qns-item-noham,21,160157,0.0-1.0-0.20
"<b>If you are paying attention, please select ?Somewhat agree?",Highly disagree,22/150,Somewhat agree,3,1698180240256,1698180243654,\Somewhat agree\,\Somewhat agree\,\3\,1698180243231,1698180243231,2975,2975,3398,buq,qns-item-noham,22,163556,0.0-1.0-0.21
"<b>When I talk to others, I often worry I?ll convince them of something I didn?t mean to.",Highly disagree,23/150,Somewhat disagree,2,1698180243655,1698180249565,\Somewhat disagree\,\Somewhat disagree\,\2\,1698180249030,1698180249030,5375,5375,5910,buq,qns-item-noham,23,169467,0.0-1.0-0.22
<b>I would need to learn something utterly shocking about my party in order to change my political views.,Highly disagree,24/150,Somewhat disagree,2,1698180249566,1698180258740,\Somewhat disagree\,\Somewhat disagree\,\2\,1698180258154,1698180258154,8588,8588,9174,buq,qns-item-noham,24,178642,0.0-1.0-0.23
"<b>When I have new experiences, I tend to think of them as unique.",Highly disagree,25/150,Somewhat disagree,2,1698180258741,1698180264551,\Somewhat agree\,\Somewhat disagree\,\3\,1698180262748,1698180264114,4007,5373,5810,buq,qns-item-noham,25,184453,0.0-1.0-0.24
<b>Reading lots of things is important for understanding the world.,Highly disagree,26/150,Somewhat agree,3,1698180264552,1698180268523,\Somewhat agree\,\Somewhat agree\,\3\,1698180268036,1698180268036,3484,3484,3971,buq,qns-item-noham,26,188425,0.0-1.0-0.25
<b>The world is complicated.,Highly disagree,27/150,Highly agree,4,1698180268523,1698180270854,\Highly agree\,\Highly agree\,\4\,1698180270397,1698180270397,1874,1874,2331,buq,qns-item-noham,27,190756,0.0-1.0-0.26
<b>I change my mind about specific policies pretty frequently.,Highly disagree,28/150,Somewhat disagree,2,1698180270855,1698180273891,\Somewhat disagree\,\Somewhat disagree\,\2\,1698180273410,1698180273410,2555,2555,3036,buq,qns-item-noham,28,193793,0.0-1.0-0.27
"<b>If a politician in my political party supports something I disagree with, I give them the benefit of the doubt, as such issues often involve hidden complexities that aren?t obvious.   ",Highly disagree,29/150,Somewhat agree,3,1698180273892,1698180285871,\Somewhat agree\,\Somewhat agree\,\3\,1698180284660,1698180284660,10768,10768,11979,buq,qns-item-noham,29,205773,0.0-1.0-0.28
<b>People?s bad politics are usually motivated by hatefulness.,Highly disagree,30/150,Somewhat disagree,2,1698180285872,1698180289799,\Somewhat disagree\,\Somewhat disagree\,\2\,1698180289409,1698180289409,3537,3537,3927,buq,qns-item-noham,30,209701,0.0-1.0-0.29
"<b>Most new experiences are just like old ones, but a little bit different.",Highly disagree,31/150,Somewhat disagree,2,1698180289800,1698180298492,\Somewhat disagree\,\Somewhat disagree\,\2\,1698180297767,1698180297767,7967,7967,8692,buq,qns-item-noham,31,218394,0.0-1.0-0.30
<b>I think a lot about how to reconcile my beliefs with one another.,Highly disagree,32/150,Somewhat disagree,2,1698180298493,1698180306496,\Somewhat disagree\,\Somewhat disagree\,\2\,1698180305522,1698180305522,7029,7029,8003,buq,qns-item-noham,32,226398,0.0-1.0-0.31
<b>Personal experience rarely leads people astray.,Highly disagree,33/150,Somewhat agree,3,1698180306497,1698180314378,\Somewhat agree\,\Somewhat agree\,\3\,1698180313930,1698180313930,7433,7433,7881,buq,qns-item-noham,33,234280,0.0-1.0-0.32
<b>I might have false beliefs about important topics.,Highly disagree,34/150,Somewhat agree,3,1698180314379,1698180317996,\Somewhat agree\,\Somewhat agree\,\3\,1698180317497,1698180317497,3118,3118,3617,buq,qns-item-noham,34,237898,0.0-1.0-0.33
"<b>If a good friend of mine does something unexpected that upsets me, I feel like I don?t know them anymore.",Highly disagree,35/150,Somewhat disagree,2,1698180317997,1698180327442,\Somewhat disagree\,\Somewhat disagree\,\2\,1698180326796,1698180326796,8799,8799,9445,buq,qns-item-noham,35,247344,0.0-1.0-0.34
<b>Other people?s beliefs are often incoherent.,Highly disagree,36/150,Somewhat agree,3,1698180327443,1698180330654,\Somewhat agree\,\Somewhat agree\,\3\,1698180330235,1698180330235,2792,2792,3211,buq,qns-item-noham,36,250556,0.0-1.0-0.35
<b>It?s important to have friends who think about things differently than I do.,Highly disagree,37/150,Somewhat agree,3,1698180330655,1698180334332,\Somewhat agree\,\Somewhat agree\,\3\,1698180333754,1698180333754,3099,3099,3677,buq,qns-item-noham,37,254234,0.0-1.0-0.36
"<b>Every now and then, a new experience will unsettle beliefs I?ve had for a while.",Highly disagree,38/150,Somewhat disagree,2,1698180334333,1698180352437,\Somewhat disagree\,\Somewhat disagree\,\2\,1698180349374,1698180349374,15041,15041,18104,buq,qns-item-noham,38,272339,0.0-1.0-0.37
<b>Some policies I agree with in principle are so bad I don?t support them. ,Highly disagree,39/150,Somewhat agree,3,1698180352438,1698180367335,\Somewhat agree\,\Somewhat agree\,\3\,1698180366495,1698180366495,14057,14057,14897,buq,qns-item-noham,39,287237,0.0-1.0-0.38
<b>I?m pretty sure I?ve accidentally spread false information.,Highly disagree,40/150,Somewhat agree,3,1698180367336,1698180371496,\Somewhat agree\,\Somewhat agree\,\3\,1698180370830,1698180370830,3494,3494,4160,buq,qns-item-noham,40,291398,0.0-1.0-0.39
"<b>If I go to my favorite restaurant and the food is unexpectedly bad, then they have changed owners.",Highly disagree,41/150,Somewhat disagree,2,1698180371497,1698180377278,\Somewhat disagree\,\Somewhat disagree\,\2\,1698180376804,1698180376804,5307,5307,5781,buq,qns-item-noham,41,297180,0.0-1.0-0.40
"<b>In politics, it?s important to trust your friends and family.",Highly disagree,42/150,Somewhat disagree,2,1698180377279,1698180382803,\Somewhat disagree\,\Somewhat disagree\,\2\,1698180382253,1698180382253,4974,4974,5524,buq,qns-item-noham,42,302705,0.0-1.0-0.41
<b>It?s OK to have some conflicting beliefs.,Highly disagree,43/150,Somewhat disagree,2,1698180382804,1698180386348,\Somewhat agree\,\Somewhat disagree\,\3\,1698180384585,1698180385701,1781,2897,3544,buq,qns-item-noham,43,306250,0.0-1.0-0.42
<b>Sometimes the details of a matter seem to conflict with the big picture.,Highly disagree,44/150,Somewhat agree,3,1698180386349,1698180393354,\Somewhat agree\,\Somewhat agree\,\3\,1698180392822,1698180392822,6473,6473,7005,buq,qns-item-noham,44,313256,0.0-1.0-0.43
<b>Listening to people I disagree with makes my opinions better.,Highly disagree,45/150,Somewhat agree,3,1698180393355,1698180399523,\Somewhat agree\,\Somewhat agree\,\3\,1698180398993,1698180398993,5638,5638,6168,buq,qns-item-noham,45,319425,0.0-1.0-0.44
<b>Policies that sound bad are sometimes fine when you find out about their details.,Highly disagree,46/150,Somewhat agree,3,1698180399524,1698180407383,\Somewhat agree\,\Somewhat agree\,\3\,1698180406937,1698180406937,7413,7413,7859,buq,qns-item-noham,46,327285,0.0-1.0-0.45
"<b>The world is always changing, so my beliefs are sometimes out-dated.",Highly disagree,47/150,Somewhat agree,3,1698180407384,1698180413378,\Somewhat agree\,\Somewhat agree\,\3\,1698180412766,1698180412766,5382,5382,5994,buq,qns-item-noham,47,333280,0.0-1.0-0.46
"<b>If I receive a bad meal at my favorite restaurant and the food is surprisingly bad, I do not think much of it, and assume the chef is just having an ?off? day.",Highly disagree,48/150,Somewhat agree,3,1698180413379,1698180424534,\Somewhat agree\,\Somewhat agree\,\3\,1698180424068,1698180424068,10689,10689,11155,buq,qns-item-noham,48,344436,0.0-1.0-0.47
"<b>False information is unavoidable, to some extent.",Highly disagree,49/150,Somewhat agree,3,1698180424535,1698180427596,\Somewhat agree\,\Somewhat agree\,\3\,1698180426941,1698180426941,2406,2406,3061,buq,qns-item-noham,49,347498,0.0-1.0-0.48
<b>My moral compass sometimes makes it harder to determine what?s true.,Highly disagree,50/150,Somewhat disagree,2,1698180427597,1698180431811,\Somewhat disagree\,\Somewhat disagree\,\2\,1698180431332,1698180431332,3735,3735,4214,buq,qns-item-noham,50,351713,0.0-1.0-0.49
"<b>When you disagree with someone, it?s important to listen to them carefully.",Highly disagree,51/150,Somewhat agree,3,1698180431812,1698180435424,\Somewhat agree\,\Somewhat agree\,\3\,1698180434942,1698180434942,3130,3130,3612,buq,qns-item-noham,51,355326,0.0-1.0-0.50
<b>Evidence pointing in the wrong direction isn?t really evidence at all.,Highly disagree,52/150,Somewhat disagree,2,1698180435425,1698180441794,\Highly disagree\,\Somewhat disagree\,\1\,1698180439929,1698180440768,4504,5343,6369,buq,qns-item-noham,52,361696,0.0-1.0-0.51
"<b>If the political party I support messes up, it makes me think politics is rotten.",Highly disagree,53/150,Somewhat disagree,2,1698180441795,1698180452667,\Somewhat disagree\,\Somewhat disagree\,\2\,1698180452068,1698180452068,10273,10273,10872,buq,qns-item-noham,53,372569,0.0-1.0-0.52
<b>Lots of important topics can only really be understood by some groups of people.,Highly disagree,54/150,Somewhat agree,3,1698180452668,1698180458591,\Somewhat agree\,\Somewhat agree\,\3\,1698180458006,1698180458006,5338,5338,5923,buq,qns-item-noham,54,378493,0.0-1.0-0.53
<b>Details almost always matter for being right about something.,Highly disagree,55/150,Highly agree,4,1698180458591,1698180463363,\Highly agree\,\Highly agree\,\4\,1698180462907,1698180462907,4316,4316,4772,buq,qns-item-noham,55,383265,0.0-1.0-0.54
"<b>The most important thing in politics is winning, not convincing people.",Highly disagree,56/150,Somewhat disagree,2,1698180463364,1698180469083,\Somewhat disagree\,\Somewhat disagree\,\2\,1698180468573,1698180468573,5209,5209,5719,buq,qns-item-noham,56,388985,0.0-1.0-0.55
<b>Having conflicting beliefs means you haven?t thought about them enough.,Highly disagree,57/150,Somewhat disagree,2,1698180469084,1698180478363,\Somewhat disagree\,\Somewhat disagree\,\2\,1698180477934,1698180477934,8850,8850,9279,buq,qns-item-noham,57,398265,0.0-1.0-0.56
<b>Other people have sometimes convinced me to change my mind on important topics.,Highly disagree,58/150,Somewhat disagree,2,1698180478364,1698180485400,\Somewhat agree\,\Somewhat disagree\,\3\,1698180482175,1698180483324,3811,4960,7036,buq,qns-item-noham,58,405302,0.0-1.0-0.57
<b>I do not often change my political opinions.,Highly disagree,59/150,Somewhat disagree,2,1698180485401,1698180489473,\Somewhat disagree\,\Somewhat disagree\,\2\,1698180488961,1698180488961,3560,3560,4072,buq,qns-item-noham,59,409375,0.0-1.0-0.58
<b>Thinking about how different things relate to one another is critical in life.,Highly disagree,60/150,Somewhat agree,3,1698180489474,1698180493636,\Somewhat agree\,\Somewhat agree\,\3\,1698180493196,1698180493196,3722,3722,4162,buq,qns-item-noham,60,413538,0.0-1.0-0.59
<b>True beliefs can have unfortunate implications.,Highly disagree,61/150,Somewhat agree,3,1698180493637,1698180502502,\Somewhat agree\,\Somewhat agree\,\3\,1698180501849,1698180501849,8212,8212,8865,buq,qns-item-noham,61,422404,0.0-1.0-0.60
<b>It?s difficult to not have at least some conflicting beliefs.,Highly disagree,62/150,Somewhat disagree,2,1698180502503,1698180507525,\Somewhat disagree\,\Somewhat disagree\,\2\,1698180507035,1698180507035,4532,4532,5022,buq,qns-item-noham,62,427427,0.0-1.0-0.61
"<b>When I learn new things, I think deeply about how my opinions should change.",Highly disagree,63/150,Somewhat agree,3,1698180507526,1698180519858,\Somewhat disagree\,\Somewhat agree\,\2\,1698180516895,1698180518987,9369,11461,12332,buq,qns-item-noham,63,439760,0.0-1.0-0.62
<b>I think a lot about how to interpret different sorts of evidence.,Highly disagree,64/150,Somewhat agree,3,1698180519859,1698180523956,\Somewhat agree\,\Somewhat agree\,\3\,1698180523411,1698180523411,3552,3552,4097,buq,qns-item-noham,64,443858,0.0-1.0-0.63
<b>Politics is about thinking together and finding compromises.,Highly disagree,65/150,Somewhat agree,3,1698180523957,1698180526584,\Somewhat agree\,\Somewhat agree\,\3\,1698180526133,1698180526133,2176,2176,2627,buq,qns-item-noham,65,446486,0.0-1.0-0.64
<b>Wishful thinking causes a lot of problems.,Highly disagree,66/150,Somewhat agree,3,1698180526585,1698180530125,\Somewhat agree\,\Somewhat agree\,\3\,1698180529666,1698180529666,3081,3081,3540,buq,qns-item-noham,66,450027,0.0-1.0-0.65
<b>I judge a food item only once I try it many times.,Highly disagree,67/150,Somewhat disagree,2,1698180530126,1698180536151,\Somewhat disagree\,\Somewhat disagree\,\2\,1698180535641,1698180535641,5515,5515,6025,buq,qns-item-noham,67,456053,0.0-1.0-0.66
"<b>When a person holds conflicting beliefs, they should really try to figure out what?s wrong.",Highly disagree,68/150,Somewhat agree,3,1698180536152,1698180543157,\Somewhat agree\,\Somewhat agree\,\3\,1698180542652,1698180542652,6500,6500,7005,buq,qns-item-noham,68,463059,0.0-1.0-0.67
<b>Knowing what?s important in life is easy.,Highly disagree,69/150,Somewhat agree,3,1698180543158,1698180546427,\Somewhat agree\,\Somewhat agree\,\3\,1698180545809,1698180545809,2651,2651,3269,buq,qns-item-noham,69,466329,0.0-1.0-0.68
<b>Lots of smart people disagree about basic political questions.,Highly disagree,70/150,Somewhat agree,3,1698180546428,1698180550506,\Somewhat agree\,\Somewhat agree\,\3\,1698180550035,1698180550035,3607,3607,4078,buq,qns-item-noham,70,470408,0.0-1.0-0.69
<b>I swim across the Atlantic Ocean to get to work every day.,Highly disagree,71/150,Highly disagree,1,1698180550506,1698180555145,\Highly disagree\,\Highly disagree\,\1\,1698180553862,1698180553862,3356,3356,4639,buq,qns-item-noham,71,475047,0.0-1.0-0.70
"<b>Sometimes, you just have to ignore evidence that you know is wrong.",Highly disagree,72/150,Somewhat disagree,2,1698180555145,1698180563767,\Somewhat disagree\,\Somewhat disagree\,\2\,1698180563293,1698180563293,8148,8148,8622,buq,qns-item-noham,72,483670,0.0-1.0-0.71
<b>I have had some false beliefs.,Highly disagree,73/150,Somewhat agree,3,1698180563768,1698180567232,\Somewhat agree\,\Somewhat agree\,\3\,1698180566696,1698180566696,2928,2928,3464,buq,qns-item-noham,73,487134,0.0-1.0-0.72
"<b>If one friend does something that upsets me, I sometimes start to distrust people in general.",Highly disagree,74/150,Somewhat disagree,2,1698180567233,1698180574706,\Somewhat disagree\,\Somewhat disagree\,\2\,1698180574156,1698180574156,6923,6923,7473,buq,qns-item-noham,74,494608,0.0-1.0-0.73
<b>I easily apply what I learn in one situation to another.,Highly disagree,75/150,Somewhat agree,3,1698180574707,1698180577745,\Somewhat agree\,\Somewhat agree\,\3\,1698180577228,1698180577228,2521,2521,3038,buq,qns-item-noham,75,497647,0.0-1.0-0.74
<b>The facts about most important matters are easy to find.,Highly disagree,76/150,Somewhat disagree,2,1698180577746,1698180585898,\Somewhat disagree\,\Somewhat disagree\,\2\,1698180585349,1698180585349,7603,7603,8152,buq,qns-item-noham,76,505800,0.0-1.0-0.75
<b>It?s better to know what?s true than to know what?s moral.,Highly disagree,77/150,Highly agree,4,1698180585899,1698180675761,\Highly agree\,\Highly agree\,\4\,1698180674787,1698180674787,88888,88888,89862,buq,qns-item-noham,77,595663,0.0-1.0-0.76
<b>It?s good to be skeptical of people you agree with.,Highly disagree,78/150,Somewhat agree,3,1698180675762,1698180690638,\Somewhat agree\,\Somewhat agree\,\3\,1698180689577,1698180689577,13815,13815,14876,buq,qns-item-noham,78,610540,0.0-1.0-0.77
<b>Sometimes reasonable beliefs are wrong.,Highly disagree,79/150,Somewhat agree,3,1698180690639,1698180711528,\Somewhat agree\,\Somewhat agree\,\3\,1698180711075,1698180711075,20436,20436,20889,buq,qns-item-noham,79,631430,0.0-1.0-0.78
<b>I used to think the world was less complicated than I do now.,Highly disagree,80/150,Somewhat disagree,2,1698180711529,1698180717034,\Somewhat disagree\,\Somewhat disagree\,\2\,1698180716577,1698180716577,5048,5048,5505,buq,qns-item-noham,80,636936,0.0-1.0-0.79
<b>People are usually completely right or completely wrong.,Highly disagree,81/150,Somewhat agree,3,1698180717035,1698180720362,\Somewhat agree\,\Somewhat agree\,\3\,1698180719809,1698180719809,2774,2774,3327,buq,qns-item-noham,81,640264,0.0-1.0-0.80
<b>I spend a lot of time considering alternatives to my beliefs.,Highly disagree,82/150,Somewhat disagree,2,1698180720363,1698180939477,\Somewhat disagree\,\Somewhat disagree\,\2\,1698180938954,1698180938954,218591,218591,219114,buq,qns-item-noham,82,859379,0.0-1.0-0.81
"<b>Political enemies need to be defeated, not convinced.",Highly disagree,83/150,Somewhat disagree,2,1698180939478,1698180951505,\Somewhat disagree\,\Somewhat disagree\,\2\,1698180951028,1698180951028,11550,11550,12027,buq,qns-item-noham,83,871407,0.0-1.0-0.82
"<b>When forming an opinion about a restaurant, I am more swayed by my  latest meal there than  previous meals I?ve had there.",Highly disagree,84/150,Somewhat disagree,2,1698180951506,1698181026864,\Somewhat disagree\,\Somewhat disagree\,\2\,1698181026403,1698181026403,74897,74897,75358,buq,qns-item-noham,84,946767,0.0-1.0-0.83
<b>I try to remain skeptical about most topics.,Highly disagree,85/150,Somewhat disagree,2,1698181026865,1698181034904,\Somewhat disagree\,\Somewhat disagree\,\2\,1698181034414,1698181034414,7549,7549,8039,buq,qns-item-noham,85,954806,0.0-1.0-0.84
<b>Being wrong is usually obvious in retrospect.,Highly disagree,86/150,Somewhat agree,3,1698181034904,1698181040348,\Somewhat agree\,\Somewhat agree\,\3\,1698181039936,1698181039936,5032,5032,5444,buq,qns-item-noham,86,960250,0.0-1.0-0.85
<b>It can be hard to realize that my beliefs are in conflict.,Highly disagree,87/150,Somewhat disagree,2,1698181040348,1698181077001,\Somewhat disagree\,\Somewhat disagree\,\2\,1698181076445,1698181076445,36097,36097,36653,buq,qns-item-noham,87,996903,0.0-1.0-0.86
<b>I form my political views only after meticulously gathering historical and present information about their policies.,Highly disagree,88/150,Somewhat disagree,2,1698181077001,1698181091477,\Somewhat disagree\,\Somewhat disagree\,\2\,1698181090770,1698181090770,13769,13769,14476,buq,qns-item-noham,88,1011379,0.0-1.0-0.87
<b>Skeptical people are usually just bad-tempered.,Highly disagree,89/150,Somewhat disagree,2,1698181091478,1698181095299,\Somewhat disagree\,\Somewhat disagree\,\2\,1698181094805,1698181094805,3327,3327,3821,buq,qns-item-noham,89,1015202,0.0-1.0-0.88
<b>It is difficult for me to remember the last time I was surprised by politics.,Highly disagree,90/150,Somewhat agree,3,1698181095300,1698181103161,\Somewhat disagree\,\Somewhat agree\,\2\,1698181100434,1698181102733,5134,7433,7861,buq,qns-item-noham,90,1023063,0.0-1.0-0.89
"<b>When I find out I?m wrong, I think a lot about my related beliefs.",Highly disagree,91/150,Somewhat agree,3,1698181103162,1698181109927,\Somewhat agree\,\Somewhat agree\,\3\,1698181109183,1698181109183,6021,6021,6765,buq,qns-item-noham,91,1029829,0.0-1.0-0.90
"<b>If the political party I support messes up, it makes me think you can?t trust anyone these days",Highly disagree,92/150,Somewhat disagree,2,1698181109928,1698181134857,\Somewhat disagree\,\Somewhat disagree\,\2\,1698181134123,1698181134123,24195,24195,24929,buq,qns-item-noham,92,1054759,0.0-1.0-0.91
<b>People?s brains turn off when they talk about politics.,Highly disagree,93/150,Somewhat agree,3,1698181134858,1698181148468,\Somewhat agree\,\Somewhat agree\,\3\,1698181147790,1698181147790,12932,12932,13610,buq,qns-item-noham,93,1068370,0.0-1.0-0.92
<b>People who are wrong are usually just ignoring the obvious.,Highly disagree,94/150,Somewhat disagree,2,1698181148469,1698181164248,\Somewhat disagree\,\Somewhat disagree\,\2\,1698181163423,1698181163423,14954,14954,15779,buq,qns-item-noham,94,1084150,0.0-1.0-0.93
"<b>The world isn?t that complicated, but it?s still hard to figure out how it works.",Highly disagree,95/150,Somewhat agree,3,1698181164249,1698181171975,\Somewhat agree\,\Somewhat agree\,\3\,1698181171198,1698181171198,6949,6949,7726,buq,qns-item-noham,95,1091877,0.0-1.0-0.94
"<b>When forming my views on people, I rely more on what they are like now rather than rely on my past experience with them.",Highly disagree,96/150,Somewhat agree,3,1698181171976,1698181243182,\Somewhat agree\,\Somewhat agree\,\3\,1698181242685,1698181242685,70709,70709,71206,buq,qns-item-noham,96,1163084,0.0-1.0-0.95
"<b>When people contradict my beliefs, I usually know about their evidence already.",Highly disagree,97/150,Somewhat disagree,2,1698181243183,1698181264532,\Somewhat disagree\,\Somewhat disagree\,\2\,1698181263985,1698181263985,20802,20802,21349,buq,qns-item-noham,97,1184434,0.0-1.0-0.96
<b>Being wrong is a matter of degree.,Highly disagree,98/150,Somewhat disagree,2,1698181264533,1698181268513,\Somewhat disagree\,\Somewhat disagree\,\2\,1698181267739,1698181267739,3206,3206,3980,buq,qns-item-noham,98,1188415,0.0-1.0-0.97
<b>Figuring out what?s true and what?s false mainly requires a strong moral compass.,Highly disagree,99/150,Somewhat disagree,2,1698181268514,1698181329198,\Somewhat disagree\,\Somewhat disagree\,\2\,1698181328455,1698181328455,59941,59941,60684,buq,qns-item-noham,99,1249100,0.0-1.0-0.98
<b>Most of the beliefs people have are at least somewhat understandable.,Highly disagree,100/150,Somewhat agree,3,1698181329199,1698181337300,\Somewhat disagree\,\Somewhat agree\,\2\,1698181336493,1698181336846,7294,7647,8101,buq,qns-item-noham,100,1257202,0.0-1.0-0.99
"<b>Usually I?m wrong about simple things, not complicated ones.",Highly disagree,101/150,Somewhat disagree,2,1698181337300,1698181343159,\Somewhat disagree\,\Somewhat disagree\,\2\,1698181342661,1698181342661,5361,5361,5859,buq,qns-item-noham,101,1263061,0.0-1.0-0.100
<b>Getting all the information I want about important things is hard.,Highly disagree,102/150,Somewhat disagree,2,1698181343160,1698181423097,\Somewhat disagree\,\Somewhat disagree\,\2\,1698181422497,1698181422497,79337,79337,79937,buq,qns-item-noham,102,1342999,0.0-1.0-0.101
<b>Most false beliefs spread because people try to deceive one another.,Highly disagree,103/150,Somewhat agree,3,1698181423098,1698181429515,\Somewhat agree\,\Somewhat agree\,\3\,1698181428842,1698181428842,5744,5744,6417,buq,qns-item-noham,103,1349417,0.0-1.0-0.102
<b>I can usually find something to agree with in most people?s beliefs.,Highly disagree,104/150,Somewhat agree,3,1698181429516,1698181471405,\Somewhat agree\,\Somewhat agree\,\3\,1698181470898,1698181470898,41382,41382,41889,buq,qns-item-noham,104,1391307,0.0-1.0-0.103
<b>I only form my views of people once I get to know them very well.,Highly disagree,105/150,Somewhat disagree,2,1698181471405,1698181477366,\Somewhat disagree\,\Somewhat disagree\,\2\,1698181476838,1698181476838,5433,5433,5961,buq,qns-item-noham,105,1397268,0.0-1.0-0.104
"<b>When people tell me important things about the world, I usually believe them.",Highly disagree,106/150,Somewhat disagree,2,1698181477366,1698181498393,\Somewhat disagree\,\Somewhat disagree\,\2\,1698181496430,1698181496430,19064,19064,21027,buq,qns-item-noham,106,1418296,0.0-1.0-0.105
"<b>If a friend does something that upsets me, it reminds me what an unpredictable place the world is.",Highly disagree,107/150,Somewhat disagree,2,1698181498394,1698181568997,\Somewhat disagree\,\Somewhat disagree\,\2\,1698181568560,1698181568560,70166,70166,70603,buq,qns-item-noham,107,1488899,0.0-1.0-0.106
<b>Having some conflicting beliefs is inevitable.,Highly disagree,108/150,Somewhat disagree,2,1698181568998,1698181581266,\Somewhat disagree\,\Somewhat disagree\,\2\,1698181580606,1698181580606,11608,11608,12268,buq,qns-item-noham,108,1501168,0.0-1.0-0.107
<b>People are wrong because they haven?t thought much about things.,Highly disagree,109/150,Somewhat agree,3,1698181581267,1698181626022,\Somewhat agree\,\Somewhat agree\,\3\,1698181625370,1698181625370,44103,44103,44755,buq,qns-item-noham,109,1545924,0.0-1.0-0.108
<b>People tend to believe whatever is good for their friends.,Highly disagree,110/150,Somewhat agree,3,1698181626023,1698181629423,\Somewhat agree\,\Somewhat agree\,\3\,1698181628899,1698181628899,2876,2876,3400,buq,qns-item-noham,110,1549325,0.0-1.0-0.109
"<b>When I talk about important topics, I try to make sure people know I?m not always right.",Highly disagree,111/150,Somewhat disagree,2,1698181629424,1698181634472,\Somewhat disagree\,\Somewhat disagree\,\2\,1698181633979,1698181633979,4555,4555,5048,buq,qns-item-noham,111,1554374,0.0-1.0-0.110
<b>I used to be more certain my beliefs were true.,Highly disagree,112/150,Somewhat disagree,2,1698181634473,1698181655962,\Somewhat disagree\,\Somewhat disagree\,\2\,1698181655419,1698181655419,20946,20946,21489,buq,qns-item-noham,112,1575864,0.0-1.0-0.111
<b>It?s often pretty easy to figure out whether something is true based on who said it.,Highly disagree,113/150,Somewhat agree,3,1698181655963,1698181691387,\Somewhat agree\,\Somewhat agree\,\3\,1698181689981,1698181689981,34018,34018,35424,buq,qns-item-noham,113,1611289,0.0-1.0-0.112
<b>Having bad food in my favorite restaurant will make me think the restaurant is no longer good.,Highly disagree,114/150,Somewhat disagree,2,1698181691388,1698181716983,\Somewhat disagree\,\Somewhat disagree\,\2\,1698181716482,1698181716482,25094,25094,25595,buq,qns-item-noham,114,1636885,0.0-1.0-0.113
<b>I transform into a hummingbird every day.,Highly disagree,115/150,Highly disagree,1,1698181716984,1698181720462,\Highly disagree\,\Highly disagree\,\1\,1698181719636,1698181719636,2652,2652,3478,buq,qns-item-noham,115,1640364,0.0-1.0-0.114
"<b>Unfortunately, when people are wrong, it?s usually because they?re bad.",Highly disagree,116/150,Somewhat disagree,2,1698181720463,1698181724800,\Somewhat disagree\,\Somewhat disagree\,\2\,1698181724314,1698181724314,3851,3851,4337,buq,qns-item-noham,116,1644702,0.0-1.0-0.115
<b>I think a lot about arguments against my views.,Highly disagree,117/150,Somewhat agree,3,1698181724801,1698181730987,\Somewhat agree\,\Somewhat agree\,\3\,1698181730487,1698181730487,5686,5686,6186,buq,qns-item-noham,117,1650889,0.0-1.0-0.116
<b>Details tend to matter a lot for knowing whether a policy is good.,Highly disagree,118/150,Somewhat agree,3,1698181730988,1698181799314,\Somewhat agree\,\Somewhat agree\,\3\,1698181798860,1698181798860,67872,67872,68326,buq,qns-item-noham,118,1719216,0.0-1.0-0.117
<b>Personal experience is usually more important than facts and figures.,Highly disagree,119/150,Somewhat disagree,2,1698181799314,1698181804844,\Somewhat disagree\,\Somewhat disagree\,\2\,1698181804004,1698181804004,4690,4690,5530,buq,qns-item-noham,119,1724746,0.0-1.0-0.118
<b>I?ve been tricked before about important matters.,Highly disagree,120/150,Somewhat agree,3,1698181804845,1698181817209,\Somewhat agree\,\Somewhat agree\,\3\,1698181816791,1698181816791,11946,11946,12364,buq,qns-item-noham,120,1737111,0.0-1.0-0.119
<b>I would need to be totally wowed if I were to change my opinion of a restaurant I don?t like.,Highly disagree,121/150,Somewhat agree,3,1698181817210,1698181923033,\Somewhat agree\,\Somewhat agree\,\3\,1698181922232,1698181922232,105022,105022,105823,buq,qns-item-noham,121,1842935,0.0-1.0-0.120
<b>I care a lot about politics.,Highly disagree,122/150,Highly disagree,1,1698181923034,1698181928229,\Somewhat disagree\,\Highly disagree\,\2\,1698181926786,1698181927386,3752,4352,5195,buq,qns-item-noham,122,1848131,0.0-1.0-0.121
<b>People with conflicting beliefs usually have some facts they disagree on.,Highly disagree,123/150,Highly agree,4,1698181928230,1698181997220,\Somewhat agree\,\Highly agree\,\3\,1698181995874,1698181996642,67644,68412,68990,buq,qns-item-noham,123,1917122,0.0-1.0-0.122
<b>There are some topics I?ve been really wrong about.,Highly disagree,124/150,Somewhat agree,3,1698181997221,1698182023151,\Somewhat agree\,\Somewhat agree\,\3\,1698182022617,1698182022617,25396,25396,25930,buq,qns-item-noham,124,1943053,0.0-1.0-0.123
<b>Most beliefs can be supported with at least some evidence.,Highly disagree,125/150,Somewhat agree,3,1698182023152,1698182083754,\Somewhat agree\,\Somewhat agree\,\3\,1698182082938,1698182082938,59786,59786,60602,buq,qns-item-noham,125,2003656,0.0-1.0-0.124
<b>Other people make life out to be more complicated than it really is.,Highly disagree,126/150,Somewhat agree,3,1698182083755,1698182108606,\Somewhat agree\,\Somewhat agree\,\3\,1698182108113,1698182108113,24358,24358,24851,buq,qns-item-noham,126,2028508,0.0-1.0-0.125
"<b>My political views are being shaped continuously as I gather more information, rather than relying on what I?ve known to be true of my party in the past. ",Highly disagree,127/150,Somewhat agree,3,1698182108607,1698182113521,\Somewhat agree\,\Somewhat agree\,\3\,1698182112978,1698182112978,4371,4371,4914,buq,qns-item-noham,127,2033423,0.0-1.0-0.126
<b>It?s pretty unusual for true things to seem false.,Highly disagree,128/150,Somewhat disagree,2,1698182113522,1698182117554,\Somewhat disagree\,\Somewhat disagree\,\2\,1698182117066,1698182117066,3544,3544,4032,buq,qns-item-noham,128,2037456,0.0-1.0-0.127
"<b>Policy details don?t matter much, just the big picture.",Highly disagree,129/150,Somewhat disagree,2,1698182117555,1698182122717,\Somewhat disagree\,\Somewhat disagree\,\2\,1698182122274,1698182122274,4719,4719,5162,buq,qns-item-noham,129,2042619,0.0-1.0-0.128
<b>I know my friends so well they can hardly ever surprise me.,Highly disagree,130/150,Somewhat agree,3,1698182122718,1698182126446,\Somewhat agree\,\Somewhat agree\,\3\,1698182125948,1698182125948,3230,3230,3728,buq,qns-item-noham,130,2046348,0.0-1.0-0.129
"<b>When I talk to people, I often think about why they have the beliefs they do.",Highly disagree,131/150,Somewhat disagree,2,1698182126447,1698182134446,\Somewhat disagree\,\Somewhat disagree\,\2\,1698182133960,1698182133960,7513,7513,7999,buq,qns-item-noham,131,2054348,0.0-1.0-0.130
<b>I do not often change my views on people.,Highly disagree,132/150,Somewhat agree,3,1698182134447,1698182138244,\Somewhat disagree\,\Somewhat agree\,\2\,1698182136814,1698182137745,2367,3298,3797,buq,qns-item-noham,132,2058146,0.0-1.0-0.131
<b>I often wish I had more time to spend figuring out what?s true and what?s false in life.,Highly disagree,133/150,Somewhat disagree,2,1698182138245,1698182143512,\Somewhat disagree\,\Somewhat disagree\,\2\,1698182143042,1698182143042,4797,4797,5267,buq,qns-item-noham,133,2063414,0.0-1.0-0.132
<b>I?m more certain about my beliefs than I used to be.,Highly disagree,134/150,Somewhat agree,3,1698182143513,1698182147711,\Somewhat agree\,\Somewhat agree\,\3\,1698182147243,1698182147243,3730,3730,4198,buq,qns-item-noham,134,2067613,0.0-1.0-0.133
"<b>Whenever I find out new information, I update my views on politics accordingly.",Highly disagree,135/150,Somewhat agree,3,1698182147712,1698182157630,\Somewhat disagree\,\Somewhat agree\,\2\,1698182155209,1698182157197,7497,9485,9918,buq,qns-item-noham,135,2077532,0.0-1.0-0.134
<b>People often tell falsehoods unintentionally.,Highly disagree,136/150,Somewhat agree,3,1698182157631,1698182160827,\Somewhat agree\,\Somewhat agree\,\3\,1698182160401,1698182160401,2770,2770,3196,buq,qns-item-noham,136,2080729,0.0-1.0-0.135
<b>Most people don?t know much about most things.,Highly disagree,137/150,Somewhat agree,3,1698182160828,1698182165048,\Somewhat agree\,\Somewhat agree\,\3\,1698182164530,1698182164530,3702,3702,4220,buq,qns-item-noham,137,2084950,0.0-1.0-0.136
"<b>If I find out something new about someone, I easily change my views about them.",Highly disagree,138/150,Somewhat disagree,2,1698182165049,1698182175008,\Somewhat disagree\,\Somewhat disagree\,\2\,1698182174483,1698182174483,9434,9434,9959,buq,qns-item-noham,138,2094910,0.0-1.0-0.137
<b>Having true beliefs is difficult.,Highly disagree,139/150,Somewhat disagree,2,1698182175009,1698182180094,\Somewhat agree\,\Somewhat disagree\,\3\,1698182178010,1698182179029,3001,4020,5085,buq,qns-item-noham,139,2099996,0.0-1.0-0.138
<b>I don?t try new foods since I know I won?t like them.,Highly disagree,140/150,Somewhat disagree,2,1698182180095,1698182183451,\Somewhat disagree\,\Somewhat disagree\,\2\,1698182182958,1698182182958,2863,2863,3356,buq,qns-item-noham,140,2103353,0.0-1.0-0.139
<b>It?s easy to figure out what?s true or false based on who?s saying it.,Highly disagree,141/150,Somewhat disagree,2,1698182183452,1698182188216,\Somewhat disagree\,\Somewhat disagree\,\2\,1698182187746,1698182187746,4294,4294,4764,buq,qns-item-noham,141,2108118,0.0-1.0-0.140
<b>False things have seemed true to me many times.,Highly disagree,142/150,Somewhat disagree,2,1698182188217,1698182192824,\Somewhat agree\,\Somewhat disagree\,\3\,1698182191647,1698182192339,3430,4122,4607,buq,qns-item-noham,142,2112726,0.0-1.0-0.141
<b>It?s pretty easy to sort out what?s true and what?s false in life.,Highly disagree,143/150,Somewhat disagree,2,1698182192825,1698182197374,\Somewhat disagree\,\Somewhat disagree\,\2\,1698182196892,1698182196892,4067,4067,4549,buq,qns-item-noham,143,2117276,0.0-1.0-0.142
<b>Knowing lots of statistics about something is usually important for understanding it.,Highly disagree,144/150,Somewhat agree,3,1698182197375,1698182202363,\Somewhat agree\,\Somewhat agree\,\3\,1698182201860,1698182201860,4485,4485,4988,buq,qns-item-noham,144,2122265,0.0-1.0-0.143
<b>Other people trick each other a lot.,Highly disagree,145/150,Somewhat agree,3,1698182202364,1698182204795,\Somewhat agree\,\Somewhat agree\,\3\,1698182204354,1698182204354,1990,1990,2431,buq,qns-item-noham,145,2124697,0.0-1.0-0.144
<b>I would need to learn a lot about a person for my opinion of them to be swayed.,Highly disagree,146/150,Somewhat agree,3,1698182204796,1698182212225,\Somewhat agree\,\Somewhat agree\,\3\,1698182211769,1698182211769,6973,6973,7429,buq,qns-item-noham,146,2132127,0.0-1.0-0.145
<b>People can?t usually trick me when it comes to topics I care about.,Highly disagree,147/150,Somewhat agree,3,1698182212226,1698182218312,\Somewhat agree\,\Somewhat agree\,\3\,1698182217779,1698182217779,5553,5553,6086,buq,qns-item-noham,147,2138214,0.0-1.0-0.146
<b>I do not often change my views on food.,Highly disagree,148/150,Somewhat agree,3,1698182218313,1698182222456,\Somewhat agree\,\Somewhat agree\,\3\,1698182221845,1698182221845,3532,3532,4143,buq,qns-item-noham,148,2142358,0.0-1.0-0.147
<b>Specific policies are often very important to me.,Highly disagree,149/150,Somewhat disagree,2,1698182222457,1698182227827,\Somewhat disagree\,\Somewhat disagree\,\2\,1698182225994,1698182225994,3537,3537,5370,buq,qns-item-noham,149,2147729,0.0-1.0-0.148
<b>Most people are woefully under-informed.,Highly disagree,150/150,Somewhat agree,3,1698182227828,1698182231429,\Somewhat agree\,\Somewhat agree\,\3\,1698182230927,1698182230927,3099,3099,3601,buq,qns-item-noham,150,2151331,0.0-1.0-0.149
