Question,qns_options,quest_num,answer,answer_num,question_load_timestamp,next_btn_timestamp,text_selected,final_text_selected,option_num_selected,preview_timestamps,final_text_selected_time_stamp,rt_first_option_click,rt_final_option_click,rt_submit_click,questionnaire,trial_type,trial_index,time_elapsed,internal_node_id
<b>Considering other people?s perspectives can help us figure out what?s true or false.,Highly disagree,1/150,Somewhat agree,3,1698237388652,1698237390887,\Somewhat agree\,\Somewhat agree\,\3\,1698237390531,1698237390531,1879,1879,2235,buq,qns-item-noham,1,4141,0.0-1.0-0.0
<b>Knowing what?s true and knowing what to do about it are usually basically the same.,Highly disagree,2/150,Somewhat agree,3,1698237390890,1698237391496,\Somewhat agree\,\Somewhat agree\,\3\,1698237391203,1698237391203,313,313,606,buq,qns-item-noham,2,4750,0.0-1.0-0.1
<b>Most people just believe whatever is convenient for them.,Highly disagree,3/150,Somewhat agree,3,1698237391497,1698237392487,\Somewhat agree\,\Somewhat agree\,\3\,1698237392200,1698237392200,703,703,990,buq,qns-item-noham,3,5741,0.0-1.0-0.2
<b>Even people who are wrong about most things can be right sometimes.,Highly disagree,4/150,Somewhat agree,3,1698237392489,1698237393227,\Somewhat agree\,\Somewhat agree\,\3\,1698237392857,1698237392857,368,368,738,buq,qns-item-noham,4,6481,0.0-1.0-0.3
"<b>If the political party I support does something that upsets me, then the party may have changed, and I need to re-evaluate my support.",Highly disagree,5/150,Somewhat agree,3,1698237393228,1698237394130,\Somewhat agree\,\Somewhat agree\,\3\,1698237393778,1698237393778,550,550,902,buq,qns-item-noham,5,7384,0.0-1.0-0.4
"<b>When people disagree, one side is usually completely right.",Highly disagree,6/150,Somewhat agree,3,1698237394131,1698237394724,\Somewhat agree\,\Somewhat agree\,\3\,1698237394432,1698237394432,301,301,593,buq,qns-item-noham,6,7978,0.0-1.0-0.5
<b>People have lots of false beliefs.,Highly disagree,7/150,Somewhat agree,3,1698237394726,1698237395298,\Somewhat agree\,\Somewhat agree\,\3\,1698237395006,1698237395006,280,280,572,buq,qns-item-noham,7,8553,0.0-1.0-0.6
<b>Having some big beliefs helps me sort out minor ones.,Highly disagree,8/150,Somewhat agree,3,1698237395300,1698237396795,\Somewhat agree\,\Somewhat agree\,\3\,1698237395635,1698237396243,335,943,1495,buq,qns-item-noham,8,10049,0.0-1.0-0.7
<b>Political questions are usually pretty complicated.,Highly disagree,9/150,Somewhat agree,3,1698237396798,1698237397795,\Somewhat agree\,\Somewhat agree\,\3\,1698237397077,1698237397077,279,279,997,buq,qns-item-noham,9,11049,0.0-1.0-0.8
<b>Figuring out what?s important in life requires learning a lot of facts.,Highly disagree,10/150,Somewhat agree,3,1698237397796,1698237398739,\Somewhat agree\,\Somewhat agree\,\3\,1698237398450,1698237398450,654,654,943,buq,qns-item-noham,10,11993,0.0-1.0-0.9
<b>It is difficult for me to remember the last time I was surprised by politics.,Highly disagree,11/150,Somewhat agree,3,1698237398741,1698237399386,\Somewhat agree\,\Somewhat agree\,\3\,1698237399111,1698237399111,370,370,645,buq,qns-item-noham,11,12640,0.0-1.0-0.10
<b>People?s false beliefs are understandable.,Highly disagree,12/150,Somewhat disagree,2,1698237399387,1698237400137,\Somewhat disagree\,\Somewhat disagree\,\2\,1698237399821,1698237399821,434,434,750,buq,qns-item-noham,12,13391,0.0-1.0-0.11
<b>I spend a lot of time trying to be informed about politics.,Highly disagree,13/150,Somewhat disagree,2,1698237400138,1698237400804,\Somewhat disagree\,\Somewhat disagree\,\2\,1698237400485,1698237400485,347,347,666,buq,qns-item-noham,13,14058,0.0-1.0-0.12
<b>I think a lot about whether my beliefs are right.,Highly disagree,14/150,Somewhat disagree,2,1698237400806,1698237401441,\Somewhat disagree\,\Somewhat disagree\,\2\,1698237401092,1698237401092,286,286,635,buq,qns-item-noham,14,14695,0.0-1.0-0.13
<b>Statistics can be pretty misleading sometimes.,Highly disagree,15/150,Somewhat disagree,2,1698237401442,1698237402070,\Somewhat disagree\,\Somewhat disagree\,\2\,1698237401780,1698237401780,338,338,628,buq,qns-item-noham,15,15324,0.0-1.0-0.14
<b>Figuring out what?s true and what?s false takes a lot of time and effort.,Highly disagree,16/150,Somewhat disagree,2,1698237402071,1698237403070,\Somewhat disagree\,\Somewhat disagree\,\2\,1698237402354,1698237402354,283,283,999,buq,qns-item-noham,16,16324,0.0-1.0-0.15
"<b>If a friend does something bad to me, it was likely an error on their part.",Highly disagree,17/150,Somewhat disagree,2,1698237403071,1698237403691,\Somewhat disagree\,\Somewhat disagree\,\2\,1698237403377,1698237403377,306,306,620,buq,qns-item-noham,17,16945,0.0-1.0-0.16
<b>I have lots of beliefs that I?m only sort of sure about.,Highly disagree,18/150,Somewhat agree,3,1698237403692,1698237404456,\Somewhat agree\,\Somewhat agree\,\3\,1698237404141,1698237404141,449,449,764,buq,qns-item-noham,18,17710,0.0-1.0-0.17
"<b>If I go to my favorite restaurant and the food is surprisingly bad, it reminds me there are many disappointments in life.",Highly disagree,19/150,Somewhat agree,3,1698237404457,1698237405103,\Somewhat agree\,\Somewhat agree\,\3\,1698237404803,1698237404803,346,346,646,buq,qns-item-noham,19,18357,0.0-1.0-0.18
<b>Sometimes my beliefs are inconvenient for me.,Highly disagree,20/150,Somewhat agree,3,1698237405105,1698237405896,\Somewhat agree\,\Somewhat agree\,\3\,1698237405446,1698237405446,341,341,791,buq,qns-item-noham,20,19150,0.0-1.0-0.19
<b>Paying attention to multiple news sources is important.,Highly disagree,21/150,Somewhat agree,3,1698237405898,1698237406525,\Somewhat agree\,\Somewhat agree\,\3\,1698237406223,1698237406223,325,325,627,buq,qns-item-noham,21,19779,0.0-1.0-0.20
"<b>If you are paying attention, please select ?Somewhat agree?",Highly disagree,22/150,Somewhat agree,3,1698237406526,1698237407212,\Somewhat agree\,\Somewhat agree\,\3\,1698237406899,1698237406899,373,373,686,buq,qns-item-noham,22,20466,0.0-1.0-0.21
"<b>When I talk to others, I often worry I?ll convince them of something I didn?t mean to.",Highly disagree,23/150,Somewhat agree,3,1698237407213,1698237407977,\Somewhat agree\,\Somewhat agree\,\3\,1698237407576,1698237407576,363,363,764,buq,qns-item-noham,23,21231,0.0-1.0-0.22
<b>I would need to learn something utterly shocking about my party in order to change my political views.,Highly disagree,24/150,Somewhat agree,3,1698237407978,1698237408845,\Somewhat agree\,\Somewhat agree\,\3\,1698237408375,1698237408375,397,397,867,buq,qns-item-noham,24,22099,0.0-1.0-0.23
"<b>When I have new experiences, I tend to think of them as unique.",Highly disagree,25/150,Somewhat agree,3,1698237408847,1698237409456,\Somewhat agree\,\Somewhat agree\,\3\,1698237409173,1698237409173,326,326,609,buq,qns-item-noham,25,22710,0.0-1.0-0.24
<b>Reading lots of things is important for understanding the world.,Highly disagree,26/150,Somewhat agree,3,1698237409457,1698237410070,\Somewhat agree\,\Somewhat agree\,\3\,1698237409767,1698237409767,310,310,613,buq,qns-item-noham,26,23324,0.0-1.0-0.25
<b>The world is complicated.,Highly disagree,27/150,Somewhat agree,3,1698237410071,1698237410669,\Somewhat agree\,\Somewhat agree\,\3\,1698237410375,1698237410375,304,304,598,buq,qns-item-noham,27,23923,0.0-1.0-0.26
<b>I change my mind about specific policies pretty frequently.,Highly disagree,28/150,Somewhat agree,3,1698237410671,1698237411354,\Somewhat agree\,\Somewhat agree\,\3\,1698237411005,1698237411005,334,334,683,buq,qns-item-noham,28,24608,0.0-1.0-0.27
"<b>If a politician in my political party supports something I disagree with, I give them the benefit of the doubt, as such issues often involve hidden complexities that aren?t obvious.   ",Highly disagree,29/150,Somewhat agree,3,1698237411356,1698237412203,\Somewhat agree\,\Somewhat agree\,\3\,1698237411667,1698237411667,311,311,847,buq,qns-item-noham,29,25457,0.0-1.0-0.28
<b>People?s bad politics are usually motivated by hatefulness.,Highly disagree,30/150,Somewhat agree,3,1698237412204,1698237413208,\Somewhat agree\,\Somewhat agree\,\3\,1698237412837,1698237412837,633,633,1004,buq,qns-item-noham,30,26462,0.0-1.0-0.29
"<b>Most new experiences are just like old ones, but a little bit different.",Highly disagree,31/150,Somewhat agree,3,1698237413209,1698237413942,\Somewhat agree\,\Somewhat agree\,\3\,1698237413535,1698237413535,326,326,733,buq,qns-item-noham,31,27196,0.0-1.0-0.30
<b>I think a lot about how to reconcile my beliefs with one another.,Highly disagree,32/150,Somewhat agree,3,1698237413943,1698237414571,\Somewhat agree\,\Somewhat agree\,\3\,1698237414268,1698237414268,325,325,628,buq,qns-item-noham,32,27825,0.0-1.0-0.31
<b>Personal experience rarely leads people astray.,Highly disagree,33/150,Somewhat agree,3,1698237414572,1698237415244,\Somewhat agree\,\Somewhat agree\,\3\,1698237414932,1698237414932,360,360,672,buq,qns-item-noham,33,28498,0.0-1.0-0.32
<b>I might have false beliefs about important topics.,Highly disagree,34/150,Somewhat agree,3,1698237415245,1698237415921,\Somewhat agree\,\Somewhat agree\,\3\,1698237415572,1698237415572,327,327,676,buq,qns-item-noham,34,29175,0.0-1.0-0.33
"<b>If a good friend of mine does something unexpected that upsets me, I feel like I don?t know them anymore.",Highly disagree,35/150,Somewhat agree,3,1698237415923,1698237416870,\Somewhat agree\,\Somewhat agree\,\3\,1698237416562,1698237416562,639,639,947,buq,qns-item-noham,35,30125,0.0-1.0-0.34
<b>Other people?s beliefs are often incoherent.,Highly disagree,36/150,Somewhat agree,3,1698237416872,1698237417641,\Somewhat agree\,\Somewhat agree\,\3\,1698237417328,1698237417328,456,456,769,buq,qns-item-noham,36,30895,0.0-1.0-0.35
<b>It?s important to have friends who think about things differently than I do.,Highly disagree,37/150,Somewhat agree,3,1698237417642,1698237418440,\Somewhat agree\,\Somewhat agree\,\3\,1698237417979,1698237417979,337,337,798,buq,qns-item-noham,37,31694,0.0-1.0-0.36
"<b>Every now and then, a new experience will unsettle beliefs I?ve had for a while.",Highly disagree,38/150,Somewhat agree,3,1698237418441,1698237419239,\Somewhat agree\,\Somewhat agree\,\3\,1698237418767,1698237418767,326,326,798,buq,qns-item-noham,38,32493,0.0-1.0-0.37
<b>Some policies I agree with in principle are so bad I don?t support them. ,Highly disagree,39/150,Somewhat agree,3,1698237419241,1698237419813,\Somewhat agree\,\Somewhat agree\,\3\,1698237419442,1698237419442,201,201,572,buq,qns-item-noham,39,33067,0.0-1.0-0.38
<b>I?m pretty sure I?ve accidentally spread false information.,Highly disagree,40/150,Somewhat agree,3,1698237419814,1698237420445,\Somewhat agree\,\Somewhat agree\,\3\,1698237420132,1698237420132,318,318,631,buq,qns-item-noham,40,33699,0.0-1.0-0.39
"<b>If I go to my favorite restaurant and the food is unexpectedly bad, then they have changed owners.",Highly disagree,41/150,Somewhat agree,3,1698237420447,1698237421354,\Somewhat agree\,\Somewhat agree\,\3\,1698237421063,1698237421063,616,616,907,buq,qns-item-noham,41,34608,0.0-1.0-0.40
"<b>In politics, it?s important to trust your friends and family.",Highly disagree,42/150,Somewhat agree,3,1698237421355,1698237422087,\Somewhat agree\,\Somewhat agree\,\3\,1698237421714,1698237421714,359,359,732,buq,qns-item-noham,42,35341,0.0-1.0-0.41
<b>It?s OK to have some conflicting beliefs.,Highly disagree,43/150,Somewhat agree,3,1698237422089,1698237422808,\Somewhat agree\,\Somewhat agree\,\3\,1698237422494,1698237422494,405,405,719,buq,qns-item-noham,43,36062,0.0-1.0-0.42
<b>Sometimes the details of a matter seem to conflict with the big picture.,Highly disagree,44/150,Somewhat agree,3,1698237422810,1698237423593,\Somewhat agree\,\Somewhat agree\,\3\,1698237423098,1698237423098,288,288,783,buq,qns-item-noham,44,36847,0.0-1.0-0.43
<b>Listening to people I disagree with makes my opinions better.,Highly disagree,45/150,Somewhat agree,3,1698237423594,1698237424493,\Somewhat agree\,\Somewhat agree\,\3\,1698237423888,1698237423888,294,294,899,buq,qns-item-noham,45,37747,0.0-1.0-0.44
<b>Policies that sound bad are sometimes fine when you find out about their details.,Highly disagree,46/150,Somewhat agree,3,1698237424495,1698237425281,\Somewhat agree\,\Somewhat agree\,\3\,1698237424797,1698237424797,302,302,786,buq,qns-item-noham,46,38535,0.0-1.0-0.45
"<b>The world is always changing, so my beliefs are sometimes out-dated.",Highly disagree,47/150,Somewhat agree,3,1698237425282,1698237426021,\Somewhat agree\,\Somewhat agree\,\3\,1698237425605,1698237425605,323,323,739,buq,qns-item-noham,47,39275,0.0-1.0-0.46
"<b>If I receive a bad meal at my favorite restaurant and the food is surprisingly bad, I do not think much of it, and assume the chef is just having an ?off? day.",Highly disagree,48/150,Somewhat agree,3,1698237426023,1698237426708,\Somewhat agree\,\Somewhat agree\,\3\,1698237426338,1698237426338,315,315,685,buq,qns-item-noham,48,39962,0.0-1.0-0.47
"<b>False information is unavoidable, to some extent.",Highly disagree,49/150,Somewhat agree,3,1698237426709,1698237428272,\Somewhat agree\,\Somewhat agree\,\3\,1698237427951,1698237427951,1242,1242,1563,buq,qns-item-noham,49,41526,0.0-1.0-0.48
<b>My moral compass sometimes makes it harder to determine what?s true.,Highly disagree,50/150,Somewhat agree,3,1698237428274,1698237428915,\Somewhat agree\,\Somewhat agree\,\3\,1698237428600,1698237428600,326,326,641,buq,qns-item-noham,50,42169,0.0-1.0-0.49
"<b>When you disagree with someone, it?s important to listen to them carefully.",Highly disagree,51/150,Somewhat agree,3,1698237428916,1698237429623,\Somewhat agree\,\Somewhat agree\,\3\,1698237429208,1698237429208,292,292,707,buq,qns-item-noham,51,42877,0.0-1.0-0.50
<b>Evidence pointing in the wrong direction isn?t really evidence at all.,Highly disagree,52/150,Somewhat agree,3,1698237429624,1698237430337,\Somewhat agree\,\Somewhat agree\,\3\,1698237429905,1698237429905,281,281,713,buq,qns-item-noham,52,43591,0.0-1.0-0.51
"<b>If the political party I support messes up, it makes me think politics is rotten.",Highly disagree,53/150,Somewhat agree,3,1698237430339,1698237431414,\Somewhat agree\,\Somewhat agree\,\3\,1698237431008,1698237431008,669,669,1075,buq,qns-item-noham,53,44668,0.0-1.0-0.52
<b>Lots of important topics can only really be understood by some groups of people.,Highly disagree,54/150,Somewhat agree,3,1698237431415,1698237432648,\Somewhat agree\,\Somewhat agree\,\3\,1698237431986,1698237431986,571,571,1233,buq,qns-item-noham,54,45902,0.0-1.0-0.53
<b>Details almost always matter for being right about something.,Highly disagree,55/150,Somewhat agree,3,1698237432648,1698237433414,\Somewhat agree\,\Somewhat agree\,\3\,1698237432921,1698237432921,273,273,766,buq,qns-item-noham,55,46668,0.0-1.0-0.54
"<b>The most important thing in politics is winning, not convincing people.",Highly disagree,56/150,Somewhat agree,3,1698237433415,1698237434539,\Somewhat agree\,\Somewhat agree\,\3\,1698237433728,1698237433728,313,313,1124,buq,qns-item-noham,56,47793,0.0-1.0-0.55
<b>Having conflicting beliefs means you haven?t thought about them enough.,Highly disagree,57/150,Somewhat agree,3,1698237434541,1698237435137,\Somewhat agree\,\Somewhat agree\,\3\,1698237434833,1698237434833,292,292,596,buq,qns-item-noham,57,48391,0.0-1.0-0.56
<b>Other people have sometimes convinced me to change my mind on important topics.,Highly disagree,58/150,Somewhat agree,3,1698237435139,1698237435845,\Somewhat agree\,\Somewhat agree\,\3\,1698237435466,1698237435466,327,327,706,buq,qns-item-noham,58,49099,0.0-1.0-0.57
<b>I do not often change my political opinions.,Highly disagree,59/150,Somewhat agree,3,1698237435846,1698237436721,\Somewhat agree\,\Somewhat agree\,\3\,1698237436171,1698237436171,325,325,875,buq,qns-item-noham,59,49975,0.0-1.0-0.58
<b>Thinking about how different things relate to one another is critical in life.,Highly disagree,60/150,Somewhat agree,3,1698237436723,1698237437536,\Somewhat agree\,\Somewhat agree\,\3\,1698237437037,1698237437037,314,314,813,buq,qns-item-noham,60,50790,0.0-1.0-0.59
<b>True beliefs can have unfortunate implications.,Highly disagree,61/150,Somewhat agree,3,1698237437538,1698237438442,\Somewhat agree\,\Somewhat agree\,\3\,1698237438028,1698237438028,490,490,904,buq,qns-item-noham,61,51696,0.0-1.0-0.60
<b>It?s difficult to not have at least some conflicting beliefs.,Highly disagree,62/150,Somewhat agree,3,1698237438443,1698237439239,\Somewhat agree\,\Somewhat agree\,\3\,1698237438815,1698237438815,372,372,796,buq,qns-item-noham,62,52493,0.0-1.0-0.61
"<b>When I learn new things, I think deeply about how my opinions should change.",Highly disagree,63/150,Somewhat agree,3,1698237439240,1698237439854,\Somewhat agree\,\Somewhat agree\,\3\,1698237439524,1698237439524,284,284,614,buq,qns-item-noham,63,53108,0.0-1.0-0.62
<b>I think a lot about how to interpret different sorts of evidence.,Highly disagree,64/150,Somewhat agree,3,1698237439855,1698237440652,\Somewhat agree\,\Somewhat agree\,\3\,1698237440299,1698237440299,444,444,797,buq,qns-item-noham,64,53906,0.0-1.0-0.63
<b>Politics is about thinking together and finding compromises.,Highly disagree,65/150,Somewhat agree,3,1698237440653,1698237441290,\Somewhat agree\,\Somewhat agree\,\3\,1698237440977,1698237440977,324,324,637,buq,qns-item-noham,65,54544,0.0-1.0-0.64
<b>Wishful thinking causes a lot of problems.,Highly disagree,66/150,Somewhat agree,3,1698237441291,1698237442138,\Somewhat agree\,\Somewhat agree\,\3\,1698237441607,1698237441607,316,316,847,buq,qns-item-noham,66,55392,0.0-1.0-0.65
<b>I judge a food item only once I try it many times.,Highly disagree,67/150,Somewhat agree,3,1698237442139,1698237443020,\Somewhat agree\,\Somewhat agree\,\3\,1698237442403,1698237442403,264,264,881,buq,qns-item-noham,67,56274,0.0-1.0-0.66
"<b>When a person holds conflicting beliefs, they should really try to figure out what?s wrong.",Highly disagree,68/150,Somewhat agree,3,1698237443022,1698237444091,\Somewhat agree\,\Somewhat agree\,\3\,1698237443315,1698237443315,293,293,1069,buq,qns-item-noham,68,57345,0.0-1.0-0.67
<b>Knowing what?s important in life is easy.,Highly disagree,69/150,Somewhat agree,3,1698237444092,1698237444906,\Somewhat agree\,\Somewhat agree\,\3\,1698237444552,1698237444552,460,460,814,buq,qns-item-noham,69,58160,0.0-1.0-0.68
<b>Lots of smart people disagree about basic political questions.,Highly disagree,70/150,Somewhat agree,3,1698237444907,1698237445803,\Somewhat agree\,\Somewhat agree\,\3\,1698237445239,1698237445239,332,332,896,buq,qns-item-noham,70,59057,0.0-1.0-0.69
<b>I swim across the Atlantic Ocean to get to work every day.,Highly disagree,71/150,Somewhat agree,3,1698237445804,1698237446791,\Somewhat agree\,\Somewhat agree\,\3\,1698237446094,1698237446094,290,290,987,buq,qns-item-noham,71,60045,0.0-1.0-0.70
"<b>Sometimes, you just have to ignore evidence that you know is wrong.",Highly disagree,72/150,Somewhat agree,3,1698237446793,1698237447579,\Somewhat agree\,\Somewhat agree\,\3\,1698237447073,1698237447073,280,280,786,buq,qns-item-noham,72,60833,0.0-1.0-0.71
<b>I have had some false beliefs.,Highly disagree,73/150,Somewhat agree,3,1698237447580,1698237448513,\Somewhat agree\,\Somewhat agree\,\3\,1698237448186,1698237448186,606,606,933,buq,qns-item-noham,73,61767,0.0-1.0-0.72
"<b>If one friend does something that upsets me, I sometimes start to distrust people in general.",Highly disagree,74/150,Somewhat agree,3,1698237448514,1698237449245,\Somewhat agree\,\Somewhat agree\,\3\,1698237448851,1698237448851,337,337,731,buq,qns-item-noham,74,62499,0.0-1.0-0.73
<b>I easily apply what I learn in one situation to another.,Highly disagree,75/150,Somewhat agree,3,1698237449246,1698237449931,\Somewhat agree\,\Somewhat agree\,\3\,1698237449570,1698237449570,324,324,685,buq,qns-item-noham,75,63185,0.0-1.0-0.74
<b>The facts about most important matters are easy to find.,Highly disagree,76/150,Somewhat agree,3,1698237449932,1698237450620,\Somewhat agree\,\Somewhat agree\,\3\,1698237450249,1698237450249,317,317,688,buq,qns-item-noham,76,63874,0.0-1.0-0.75
<b>It?s better to know what?s true than to know what?s moral.,Highly disagree,77/150,Somewhat agree,3,1698237450621,1698237451437,\Somewhat agree\,\Somewhat agree\,\3\,1698237451078,1698237451078,457,457,816,buq,qns-item-noham,77,64691,0.0-1.0-0.76
<b>It?s good to be skeptical of people you agree with.,Highly disagree,78/150,Somewhat agree,3,1698237451440,1698237452224,\Somewhat agree\,\Somewhat agree\,\3\,1698237451775,1698237451775,335,335,784,buq,qns-item-noham,78,65478,0.0-1.0-0.77
<b>Sometimes reasonable beliefs are wrong.,Highly disagree,79/150,Somewhat agree,3,1698237452225,1698237453053,\Somewhat agree\,\Somewhat agree\,\3\,1698237452567,1698237452567,342,342,828,buq,qns-item-noham,79,66307,0.0-1.0-0.78
<b>I used to think the world was less complicated than I do now.,Highly disagree,80/150,Somewhat agree,3,1698237453055,1698237454136,\Somewhat agree\,\Somewhat agree\,\3\,1698237453631,1698237453631,576,576,1081,buq,qns-item-noham,80,67390,0.0-1.0-0.79
<b>People are usually completely right or completely wrong.,Highly disagree,81/150,Somewhat agree,3,1698237454138,1698237466751,\Somewhat agree\,\Somewhat agree\,\3\,1698237465939,1698237465939,11801,11801,12613,buq,qns-item-noham,81,80005,0.0-1.0-0.80
<b>I spend a lot of time considering alternatives to my beliefs.,Highly disagree,82/150,Somewhat agree,3,1698237466752,1698237467626,\Somewhat agree\,\Somewhat agree\,\3\,1698237467345,1698237467345,593,593,874,buq,qns-item-noham,82,80881,0.0-1.0-0.81
"<b>Political enemies need to be defeated, not convinced.",Highly disagree,83/150,Somewhat agree,3,1698237467628,1698237468357,\Somewhat agree\,\Somewhat agree\,\3\,1698237467998,1698237467998,370,370,729,buq,qns-item-noham,83,81611,0.0-1.0-0.82
"<b>When forming an opinion about a restaurant, I am more swayed by my  latest meal there than  previous meals I?ve had there.",Highly disagree,84/150,Somewhat agree,3,1698237468359,1698237468975,\Somewhat agree\,\Somewhat agree\,\3\,1698237468650,1698237468650,291,291,616,buq,qns-item-noham,84,82229,0.0-1.0-0.83
<b>I try to remain skeptical about most topics.,Highly disagree,85/150,Somewhat agree,3,1698237468976,1698237469687,\Somewhat agree\,\Somewhat agree\,\3\,1698237469246,1698237469246,270,270,711,buq,qns-item-noham,85,82941,0.0-1.0-0.84
<b>Being wrong is usually obvious in retrospect.,Highly disagree,86/150,Somewhat agree,3,1698237469689,1698237470258,\Somewhat agree\,\Somewhat agree\,\3\,1698237469968,1698237469968,279,279,569,buq,qns-item-noham,86,83512,0.0-1.0-0.85
<b>It can be hard to realize that my beliefs are in conflict.,Highly disagree,87/150,Somewhat agree,3,1698237470259,1698237470888,\Somewhat agree\,\Somewhat agree\,\3\,1698237470584,1698237470584,325,325,629,buq,qns-item-noham,87,84142,0.0-1.0-0.86
<b>I form my political views only after meticulously gathering historical and present information about their policies.,Highly disagree,88/150,Somewhat agree,3,1698237470890,1698237471496,\Somewhat agree\,\Somewhat agree\,\3\,1698237471193,1698237471193,303,303,606,buq,qns-item-noham,88,84750,0.0-1.0-0.87
<b>Skeptical people are usually just bad-tempered.,Highly disagree,89/150,Somewhat agree,3,1698237471498,1698237472103,\Somewhat agree\,\Somewhat agree\,\3\,1698237471791,1698237471791,293,293,605,buq,qns-item-noham,89,85358,0.0-1.0-0.88
<b>It is difficult for me to remember the last time I was surprised by politics.,Highly disagree,90/150,Somewhat agree,3,1698237472105,1698237472902,\Somewhat agree\,\Somewhat agree\,\3\,1698237472407,1698237472407,302,302,797,buq,qns-item-noham,90,86156,0.0-1.0-0.89
"<b>When I find out I?m wrong, I think a lot about my related beliefs.",Highly disagree,91/150,Somewhat agree,3,1698237472903,1698237473994,\Somewhat agree\,\Somewhat agree\,\3\,1698237473657,1698237473657,754,754,1091,buq,qns-item-noham,91,87248,0.0-1.0-0.90
"<b>If the political party I support messes up, it makes me think you can?t trust anyone these days",Highly disagree,92/150,Somewhat agree,3,1698237473995,1698237474876,\Somewhat agree\,\Somewhat agree\,\3\,1698237474511,1698237474511,516,516,881,buq,qns-item-noham,92,88130,0.0-1.0-0.91
<b>People?s brains turn off when they talk about politics.,Highly disagree,93/150,Somewhat agree,3,1698237474878,1698237475759,\Somewhat agree\,\Somewhat agree\,\3\,1698237475377,1698237475377,499,499,881,buq,qns-item-noham,93,89013,0.0-1.0-0.92
<b>People who are wrong are usually just ignoring the obvious.,Highly disagree,94/150,Somewhat agree,3,1698237475761,1698237476447,\Somewhat agree\,\Somewhat agree\,\3\,1698237476077,1698237476077,316,316,686,buq,qns-item-noham,94,89701,0.0-1.0-0.93
"<b>The world isn?t that complicated, but it?s still hard to figure out how it works.",Highly disagree,95/150,Somewhat agree,3,1698237476448,1698237477219,\Somewhat agree\,\Somewhat agree\,\3\,1698237476751,1698237476751,303,303,771,buq,qns-item-noham,95,90473,0.0-1.0-0.94
"<b>When forming my views on people, I rely more on what they are like now rather than rely on my past experience with them.",Highly disagree,96/150,Somewhat agree,3,1698237477220,1698237478320,\Somewhat agree\,\Somewhat agree\,\3\,1698237477988,1698237477988,768,768,1100,buq,qns-item-noham,96,91574,0.0-1.0-0.95
"<b>When people contradict my beliefs, I usually know about their evidence already.",Highly disagree,97/150,Somewhat agree,3,1698237478321,1698237478955,\Somewhat agree\,\Somewhat agree\,\3\,1698237478608,1698237478608,287,287,634,buq,qns-item-noham,97,92209,0.0-1.0-0.96
<b>Being wrong is a matter of degree.,Highly disagree,98/150,Somewhat agree,3,1698237478956,1698237479636,\Somewhat agree\,\Somewhat agree\,\3\,1698237479225,1698237479225,269,269,680,buq,qns-item-noham,98,92890,0.0-1.0-0.97
<b>Figuring out what?s true and what?s false mainly requires a strong moral compass.,Highly disagree,99/150,Somewhat agree,3,1698237479638,1698237481119,\Somewhat agree\,\Somewhat agree\,\3\,1698237479934,1698237479934,296,296,1481,buq,qns-item-noham,99,94373,0.0-1.0-0.98
<b>Most of the beliefs people have are at least somewhat understandable.,Highly disagree,100/150,Somewhat agree,3,1698237481121,1698237481722,\Somewhat agree\,\Somewhat agree\,\3\,1698237481421,1698237481421,300,300,601,buq,qns-item-noham,100,94976,0.0-1.0-0.99
"<b>Usually I?m wrong about simple things, not complicated ones.",Highly disagree,101/150,Somewhat agree,3,1698237481724,1698237482758,\Somewhat agree\,\Somewhat agree\,\3\,1698237482074,1698237482074,350,350,1034,buq,qns-item-noham,101,96012,0.0-1.0-0.100
<b>Getting all the information I want about important things is hard.,Highly disagree,102/150,Somewhat agree,3,1698237482760,1698237483354,\Somewhat agree\,\Somewhat agree\,\3\,1698237483028,1698237483028,268,268,594,buq,qns-item-noham,102,96608,0.0-1.0-0.101
<b>Most false beliefs spread because people try to deceive one another.,Highly disagree,103/150,Somewhat agree,3,1698237483355,1698237484141,\Somewhat agree\,\Somewhat agree\,\3\,1698237483704,1698237483704,349,349,786,buq,qns-item-noham,103,97395,0.0-1.0-0.102
<b>I can usually find something to agree with in most people?s beliefs.,Highly disagree,104/150,Somewhat agree,3,1698237484143,1698237487269,\Somewhat agree\,\Somewhat agree\,\3\,1698237486562,1698237486562,2419,2419,3126,buq,qns-item-noham,104,100523,0.0-1.0-0.103
<b>I only form my views of people once I get to know them very well.,Highly disagree,105/150,Highly agree,4,1698237487271,1698237488160,\Highly agree\,\Highly agree\,\4\,1698237487741,1698237487741,470,470,889,buq,qns-item-noham,105,101414,0.0-1.0-0.104
"<b>When people tell me important things about the world, I usually believe them.",Highly disagree,106/150,Highly disagree,1,1698237488161,1698237488955,\Highly disagree\,\Highly disagree\,\1\,1698237488642,1698237488642,481,481,794,buq,qns-item-noham,106,102209,0.0-1.0-0.105
"<b>If a friend does something that upsets me, it reminds me what an unpredictable place the world is.",Highly disagree,107/150,Highly disagree,1,1698237488957,1698237490087,\Highly disagree\,\Highly disagree\,\1\,1698237489488,1698237489488,531,531,1130,buq,qns-item-noham,107,103341,0.0-1.0-0.106
<b>Having some conflicting beliefs is inevitable.,Highly disagree,108/150,Highly disagree,1,1698237490089,1698237490903,\Highly disagree\,\Highly disagree\,\1\,1698237490566,1698237490566,477,477,814,buq,qns-item-noham,108,104157,0.0-1.0-0.107
<b>People are wrong because they haven?t thought much about things.,Highly disagree,109/150,Highly agree,4,1698237490904,1698237491929,\Highly agree\,\Highly agree\,\4\,1698237491489,1698237491489,585,585,1025,buq,qns-item-noham,109,105183,0.0-1.0-0.108
<b>People tend to believe whatever is good for their friends.,Highly disagree,110/150,Somewhat agree,3,1698237491930,1698237492626,\Somewhat agree\,\Somewhat agree\,\3\,1698237492231,1698237492231,301,301,696,buq,qns-item-noham,110,105880,0.0-1.0-0.109
"<b>When I talk about important topics, I try to make sure people know I?m not always right.",Highly disagree,111/150,Somewhat agree,3,1698237492628,1698237493413,\Somewhat agree\,\Somewhat agree\,\3\,1698237492962,1698237492962,334,334,785,buq,qns-item-noham,111,106667,0.0-1.0-0.110
<b>I used to be more certain my beliefs were true.,Highly disagree,112/150,Somewhat agree,3,1698237493414,1698237494247,\Somewhat agree\,\Somewhat agree\,\3\,1698237493738,1698237493738,324,324,833,buq,qns-item-noham,112,107501,0.0-1.0-0.111
<b>It?s often pretty easy to figure out whether something is true based on who said it.,Highly disagree,113/150,Somewhat agree,3,1698237494249,1698237494953,\Somewhat agree\,\Somewhat agree\,\3\,1698237494560,1698237494560,311,311,704,buq,qns-item-noham,113,108207,0.0-1.0-0.112
<b>Having bad food in my favorite restaurant will make me think the restaurant is no longer good.,Highly disagree,114/150,Somewhat agree,3,1698237494954,1698237495752,\Somewhat agree\,\Somewhat agree\,\3\,1698237495291,1698237495291,337,337,798,buq,qns-item-noham,114,109006,0.0-1.0-0.113
<b>I transform into a hummingbird every day.,Highly disagree,115/150,Somewhat agree,3,1698237495754,1698237496430,\Somewhat agree\,\Somewhat agree\,\3\,1698237496068,1698237496068,314,314,676,buq,qns-item-noham,115,109684,0.0-1.0-0.114
"<b>Unfortunately, when people are wrong, it?s usually because they?re bad.",Highly disagree,116/150,Somewhat agree,3,1698237496432,1698237498614,\Somewhat agree\,\Somewhat agree\,\3\,1698237498059,1698237498059,1627,1627,2182,buq,qns-item-noham,116,111868,0.0-1.0-0.115
<b>I think a lot about arguments against my views.,Highly disagree,117/150,Somewhat agree,3,1698237498615,1698237499769,\Somewhat agree\,\Somewhat agree\,\3\,1698237499397,1698237499397,782,782,1154,buq,qns-item-noham,117,113023,0.0-1.0-0.116
<b>Details tend to matter a lot for knowing whether a policy is good.,Highly disagree,118/150,Somewhat agree,3,1698237499770,1698237500502,\Somewhat agree\,\Somewhat agree\,\3\,1698237500121,1698237500121,351,351,732,buq,qns-item-noham,118,113756,0.0-1.0-0.117
<b>Personal experience is usually more important than facts and figures.,Highly disagree,119/150,Somewhat agree,3,1698237500504,1698237501188,\Somewhat agree\,\Somewhat agree\,\3\,1698237500837,1698237500837,333,333,684,buq,qns-item-noham,119,114442,0.0-1.0-0.118
<b>I?ve been tricked before about important matters.,Highly disagree,120/150,Somewhat agree,3,1698237501189,1698237501861,\Somewhat agree\,\Somewhat agree\,\3\,1698237501537,1698237501537,348,348,672,buq,qns-item-noham,120,115115,0.0-1.0-0.119
<b>I would need to be totally wowed if I were to change my opinion of a restaurant I don?t like.,Highly disagree,121/150,Somewhat agree,3,1698237501863,1698237503053,\Somewhat agree\,\Somewhat agree\,\3\,1698237502223,1698237502223,360,360,1190,buq,qns-item-noham,121,116307,0.0-1.0-0.120
<b>I care a lot about politics.,Highly disagree,122/150,Somewhat agree,3,1698237503054,1698237503795,\Somewhat agree\,\Somewhat agree\,\3\,1698237503435,1698237503435,381,381,741,buq,qns-item-noham,122,117049,0.0-1.0-0.121
<b>People with conflicting beliefs usually have some facts they disagree on.,Highly disagree,123/150,Somewhat agree,3,1698237503797,1698237504605,\Somewhat agree\,\Somewhat agree\,\3\,1698237504215,1698237504215,418,418,808,buq,qns-item-noham,123,117860,0.0-1.0-0.122
<b>There are some topics I?ve been really wrong about.,Highly disagree,124/150,Somewhat agree,3,1698237504606,1698237505281,\Somewhat agree\,\Somewhat agree\,\3\,1698237504912,1698237504912,306,306,675,buq,qns-item-noham,124,118535,0.0-1.0-0.123
<b>Most beliefs can be supported with at least some evidence.,Highly disagree,125/150,Somewhat agree,3,1698237505282,1698237505969,\Somewhat agree\,\Somewhat agree\,\3\,1698237505609,1698237505609,327,327,687,buq,qns-item-noham,125,119223,0.0-1.0-0.124
<b>Other people make life out to be more complicated than it really is.,Highly disagree,126/150,Somewhat agree,3,1698237505970,1698237506653,\Somewhat agree\,\Somewhat agree\,\3\,1698237506271,1698237506271,301,301,683,buq,qns-item-noham,126,119907,0.0-1.0-0.125
"<b>My political views are being shaped continuously as I gather more information, rather than relying on what I?ve known to be true of my party in the past. ",Highly disagree,127/150,Somewhat agree,3,1698237506654,1698237507320,\Somewhat agree\,\Somewhat agree\,\3\,1698237506958,1698237506958,304,304,666,buq,qns-item-noham,127,120574,0.0-1.0-0.126
<b>It?s pretty unusual for true things to seem false.,Highly disagree,128/150,Somewhat agree,3,1698237507321,1698237508419,\Somewhat agree\,\Somewhat agree\,\3\,1698237508004,1698237508004,683,683,1098,buq,qns-item-noham,128,121673,0.0-1.0-0.127
"<b>Policy details don?t matter much, just the big picture.",Highly disagree,129/150,Somewhat agree,3,1698237508421,1698237509239,\Somewhat agree\,\Somewhat agree\,\3\,1698237508746,1698237508746,325,325,818,buq,qns-item-noham,129,122493,0.0-1.0-0.128
<b>I know my friends so well they can hardly ever surprise me.,Highly disagree,130/150,Somewhat agree,3,1698237509241,1698237509953,\Somewhat agree\,\Somewhat agree\,\3\,1698237509503,1698237509503,262,262,712,buq,qns-item-noham,130,123207,0.0-1.0-0.129
"<b>When I talk to people, I often think about why they have the beliefs they do.",Highly disagree,131/150,Somewhat agree,3,1698237509954,1698237510875,\Somewhat agree\,\Somewhat agree\,\3\,1698237510501,1698237510501,547,547,921,buq,qns-item-noham,131,124129,0.0-1.0-0.130
<b>I do not often change my views on people.,Highly disagree,132/150,Somewhat agree,3,1698237510877,1698237511527,\Somewhat agree\,\Somewhat agree\,\3\,1698237511203,1698237511203,326,326,650,buq,qns-item-noham,132,124781,0.0-1.0-0.131
<b>I often wish I had more time to spend figuring out what?s true and what?s false in life.,Highly disagree,133/150,Somewhat agree,3,1698237511528,1698237512359,\Somewhat agree\,\Somewhat agree\,\3\,1698237511863,1698237511863,335,335,831,buq,qns-item-noham,133,125614,0.0-1.0-0.132
<b>I?m more certain about my beliefs than I used to be.,Highly disagree,134/150,Somewhat agree,3,1698237512361,1698237513102,\Somewhat agree\,\Somewhat agree\,\3\,1698237512741,1698237512741,380,380,741,buq,qns-item-noham,134,126356,0.0-1.0-0.133
"<b>Whenever I find out new information, I update my views on politics accordingly.",Highly disagree,135/150,Somewhat agree,3,1698237513104,1698237514003,\Somewhat agree\,\Somewhat agree\,\3\,1698237513498,1698237513498,394,394,899,buq,qns-item-noham,135,127257,0.0-1.0-0.134
<b>People often tell falsehoods unintentionally.,Highly disagree,136/150,Somewhat agree,3,1698237514004,1698237514698,\Somewhat agree\,\Somewhat agree\,\3\,1698237514350,1698237514350,346,346,694,buq,qns-item-noham,136,127952,0.0-1.0-0.135
<b>Most people don?t know much about most things.,Highly disagree,137/150,Somewhat agree,3,1698237514700,1698237515452,\Somewhat agree\,\Somewhat agree\,\3\,1698237515069,1698237515069,369,369,752,buq,qns-item-noham,137,128706,0.0-1.0-0.136
"<b>If I find out something new about someone, I easily change my views about them.",Highly disagree,138/150,Somewhat agree,3,1698237515453,1698237516119,\Somewhat agree\,\Somewhat agree\,\3\,1698237515778,1698237515778,325,325,666,buq,qns-item-noham,138,129373,0.0-1.0-0.137
<b>Having true beliefs is difficult.,Highly disagree,139/150,Somewhat agree,3,1698237516120,1698237516803,\Somewhat agree\,\Somewhat agree\,\3\,1698237516453,1698237516453,333,333,683,buq,qns-item-noham,139,130057,0.0-1.0-0.138
<b>I don?t try new foods since I know I won?t like them.,Highly disagree,140/150,Somewhat agree,3,1698237516804,1698237517487,\Somewhat agree\,\Somewhat agree\,\3\,1698237517164,1698237517164,360,360,683,buq,qns-item-noham,140,130741,0.0-1.0-0.139
<b>It?s easy to figure out what?s true or false based on who?s saying it.,Highly disagree,141/150,Somewhat agree,3,1698237517488,1698237518469,\Somewhat agree\,\Somewhat agree\,\3\,1698237517826,1698237517826,338,338,981,buq,qns-item-noham,141,131723,0.0-1.0-0.140
<b>False things have seemed true to me many times.,Highly disagree,142/150,Somewhat agree,3,1698237518470,1698237519138,\Somewhat agree\,\Somewhat agree\,\3\,1698237518747,1698237518747,277,277,668,buq,qns-item-noham,142,132392,0.0-1.0-0.141
<b>It?s pretty easy to sort out what?s true and what?s false in life.,Highly disagree,143/150,Somewhat agree,3,1698237519139,1698237519965,\Somewhat agree\,\Somewhat agree\,\3\,1698237519558,1698237519558,419,419,826,buq,qns-item-noham,143,133219,0.0-1.0-0.142
<b>Knowing lots of statistics about something is usually important for understanding it.,Highly disagree,144/150,Somewhat agree,3,1698237519967,1698237520687,\Somewhat agree\,\Somewhat agree\,\3\,1698237520392,1698237520392,425,425,720,buq,qns-item-noham,144,133941,0.0-1.0-0.143
<b>Other people trick each other a lot.,Highly disagree,145/150,Somewhat agree,3,1698237520688,1698237521486,\Somewhat agree\,\Somewhat agree\,\3\,1698237521122,1698237521122,434,434,798,buq,qns-item-noham,145,134740,0.0-1.0-0.144
<b>I would need to learn a lot about a person for my opinion of them to be swayed.,Highly disagree,146/150,Somewhat agree,3,1698237521487,1698237522214,\Somewhat agree\,\Somewhat agree\,\3\,1698237521797,1698237521797,310,310,727,buq,qns-item-noham,146,135468,0.0-1.0-0.145
<b>People can?t usually trick me when it comes to topics I care about.,Highly disagree,147/150,Somewhat agree,3,1698237522215,1698237523021,\Somewhat agree\,\Somewhat agree\,\3\,1698237522584,1698237522584,369,369,806,buq,qns-item-noham,147,136275,0.0-1.0-0.146
<b>I do not often change my views on food.,Highly disagree,148/150,Somewhat agree,3,1698237523023,1698237523787,\Somewhat agree\,\Somewhat agree\,\3\,1698237523406,1698237523406,383,383,764,buq,qns-item-noham,148,137041,0.0-1.0-0.147
<b>Specific policies are often very important to me.,Highly disagree,149/150,Somewhat disagree,2,1698237523789,1698237524644,\Somewhat disagree\,\Somewhat disagree\,\2\,1698237524193,1698237524193,404,404,855,buq,qns-item-noham,149,137898,0.0-1.0-0.148
<b>Most people are woefully under-informed.,Highly disagree,150/150,Somewhat disagree,2,1698237524645,1698237525442,\Somewhat disagree\,\Somewhat disagree\,\2\,1698237525025,1698237525025,380,380,797,buq,qns-item-noham,150,138696,0.0-1.0-0.149
