Question,qns_options,quest_num,answer,answer_num,question_load_timestamp,next_btn_timestamp,text_selected,final_text_selected,option_num_selected,preview_timestamps,final_text_selected_time_stamp,rt_first_option_click,rt_final_option_click,rt_submit_click,questionnaire,trial_type,trial_index,time_elapsed,internal_node_id
<b>Considering other people?s perspectives can help us figure out what?s true or false.,Highly disagree,1/150,Somewhat agree,3,1698180871580,1698180875469,\Somewhat agree\,\Somewhat agree\,\3\,1698180874520,1698180874520,2940,2940,3889,buq,qns-item-noham,1,37790,0.0-1.0-0.0
<b>Knowing what?s true and knowing what to do about it are usually basically the same.,Highly disagree,2/150,Somewhat disagree,2,1698180875473,1698180880868,\Somewhat agree\,\Somewhat disagree\,\3\,1698180878817,1698180879970,3344,4497,5395,buq,qns-item-noham,2,43189,0.0-1.0-0.1
<b>Most people just believe whatever is convenient for them.,Highly disagree,3/150,Somewhat agree,3,1698180880869,1698180883754,\Somewhat agree\,\Somewhat agree\,\3\,1698180883350,1698180883350,2481,2481,2885,buq,qns-item-noham,3,46075,0.0-1.0-0.2
<b>Even people who are wrong about most things can be right sometimes.,Highly disagree,4/150,Highly agree,4,1698180883761,1698180886288,\Highly agree\,\Highly agree\,\4\,1698180885234,1698180885234,1473,1473,2527,buq,qns-item-noham,4,48609,0.0-1.0-0.3
"<b>If the political party I support does something that upsets me, then the party may have changed, and I need to re-evaluate my support.",Highly disagree,5/150,Highly agree,4,1698180886289,1698180889652,\Highly agree\,\Highly agree\,\4\,1698180888719,1698180888719,2430,2430,3363,buq,qns-item-noham,5,51973,0.0-1.0-0.4
"<b>When people disagree, one side is usually completely right.",Highly disagree,6/150,Somewhat disagree,2,1698180889654,1698180892135,\Somewhat disagree\,\Somewhat disagree\,\2\,1698180891717,1698180891717,2063,2063,2481,buq,qns-item-noham,6,54456,0.0-1.0-0.5
<b>People have lots of false beliefs.,Highly disagree,7/150,Somewhat agree,3,1698180892137,1698180893820,\Somewhat agree\,\Somewhat agree\,\3\,1698180893434,1698180893434,1297,1297,1683,buq,qns-item-noham,7,56141,0.0-1.0-0.6
<b>Having some big beliefs helps me sort out minor ones.,Highly disagree,8/150,Somewhat agree,3,1698180893822,1698180899135,\Somewhat agree\,\Somewhat agree\,\3\,1698180898600,1698180898600,4778,4778,5313,buq,qns-item-noham,8,61456,0.0-1.0-0.7
<b>Political questions are usually pretty complicated.,Highly disagree,9/150,Highly agree,4,1698180899137,1698180902535,\Highly agree\,\Highly agree\,\4\,1698180902133,1698180902133,2996,2996,3398,buq,qns-item-noham,9,64856,0.0-1.0-0.8
<b>Figuring out what?s important in life requires learning a lot of facts.,Highly disagree,10/150,Somewhat agree,3,1698180902536,1698180964933,\Somewhat agree\,\Somewhat agree\,\3\,1698180964350,1698180964350,61814,61814,62397,buq,qns-item-noham,10,127254,0.0-1.0-0.9
<b>It is difficult for me to remember the last time I was surprised by politics.,Highly disagree,11/150,Somewhat agree,3,1698180964936,1698180966538,\Somewhat agree\,\Somewhat agree\,\3\,1698180966117,1698180966117,1181,1181,1602,buq,qns-item-noham,11,128859,0.0-1.0-0.10
<b>People?s false beliefs are understandable.,Highly disagree,12/150,Somewhat agree,3,1698180966540,1698180968346,\Somewhat agree\,\Somewhat agree\,\3\,1698180967949,1698180967949,1409,1409,1806,buq,qns-item-noham,12,130667,0.0-1.0-0.11
<b>I spend a lot of time trying to be informed about politics.,Highly disagree,13/150,Highly agree,4,1698180968353,1698180970069,\Somewhat agree\,\Highly agree\,\3\,1698180969149,1698180969685,796,1332,1716,buq,qns-item-noham,13,132390,0.0-1.0-0.12
<b>I think a lot about whether my beliefs are right.,Highly disagree,14/150,Somewhat agree,3,1698180970073,1698180971419,\Somewhat agree\,\Somewhat agree\,\3\,1698180971033,1698180971033,960,960,1346,buq,qns-item-noham,14,133740,0.0-1.0-0.13
<b>Statistics can be pretty misleading sometimes.,Highly disagree,15/150,Somewhat disagree,2,1698180971421,1698180973438,\Somewhat disagree\,\Somewhat disagree\,\2\,1698180973056,1698180973056,1635,1635,2017,buq,qns-item-noham,15,135759,0.0-1.0-0.14
<b>Figuring out what?s true and what?s false takes a lot of time and effort.,Highly disagree,16/150,Somewhat agree,3,1698180973441,1698180974677,\Somewhat agree\,\Somewhat agree\,\3\,1698180973983,1698180973983,542,542,1236,buq,qns-item-noham,16,136998,0.0-1.0-0.15
"<b>If a friend does something bad to me, it was likely an error on their part.",Highly disagree,17/150,Highly agree,4,1698180974678,1698180977201,\Somewhat agree\,\Highly agree\,\3\,1698180975233,1698180976401,555,1723,2523,buq,qns-item-noham,17,139522,0.0-1.0-0.16
<b>I have lots of beliefs that I?m only sort of sure about.,Highly disagree,18/150,Somewhat agree,3,1698180977203,1698180979501,\Somewhat agree\,\Somewhat agree\,\3\,1698180978667,1698180978667,1464,1464,2298,buq,qns-item-noham,18,141822,0.0-1.0-0.17
"<b>If I go to my favorite restaurant and the food is surprisingly bad, it reminds me there are many disappointments in life.",Highly disagree,19/150,Somewhat disagree,2,1698180979504,1698180982101,\Somewhat agree\,\Somewhat disagree\,\3\,1698180980353,1698180981700,849,2196,2597,buq,qns-item-noham,19,144422,0.0-1.0-0.18
<b>Sometimes my beliefs are inconvenient for me.,Highly disagree,20/150,Somewhat disagree,2,1698180982102,1698181002822,\Somewhat disagree\,\Somewhat disagree\,\2\,1698181002436,1698181002436,20334,20334,20720,buq,qns-item-noham,20,165143,0.0-1.0-0.19
<b>Paying attention to multiple news sources is important.,Highly disagree,21/150,Somewhat agree,3,1698181002824,1698181004388,\Somewhat agree\,\Somewhat agree\,\3\,1698181003985,1698181003985,1161,1161,1564,buq,qns-item-noham,21,166709,0.0-1.0-0.20
"<b>If you are paying attention, please select ?Somewhat agree?",Highly disagree,22/150,Somewhat agree,3,1698181004389,1698181005836,\Somewhat agree\,\Somewhat agree\,\3\,1698181005436,1698181005436,1047,1047,1447,buq,qns-item-noham,22,168157,0.0-1.0-0.21
"<b>When I talk to others, I often worry I?ll convince them of something I didn?t mean to.",Highly disagree,23/150,Somewhat agree,3,1698181005839,1698181007803,\Somewhat agree\,\Somewhat agree\,\3\,1698181007151,1698181007151,1312,1312,1964,buq,qns-item-noham,23,170124,0.0-1.0-0.22
<b>I would need to learn something utterly shocking about my party in order to change my political views.,Highly disagree,24/150,Somewhat agree,3,1698181007805,1698181010016,\Somewhat agree\,\Somewhat agree\,\3\,1698181009638,1698181009638,1833,1833,2211,buq,qns-item-noham,24,172337,0.0-1.0-0.23
"<b>When I have new experiences, I tend to think of them as unique.",Highly disagree,25/150,Highly agree,4,1698181010019,1698181012238,\Somewhat agree\,\Highly agree\,\3\,1698181011202,1698181011773,1183,1754,2219,buq,qns-item-noham,25,174559,0.0-1.0-0.24
<b>Reading lots of things is important for understanding the world.,Highly disagree,26/150,Highly agree,4,1698181012240,1698181014738,\Somewhat agree\,\Highly agree\,\3\,1698181012739,1698181013969,499,1729,2498,buq,qns-item-noham,26,177059,0.0-1.0-0.25
<b>The world is complicated.,Highly disagree,27/150,Highly agree,4,1698181014740,1698181015923,\Highly agree\,\Highly agree\,\4\,1698181015536,1698181015536,796,796,1183,buq,qns-item-noham,27,178244,0.0-1.0-0.26
<b>I change my mind about specific policies pretty frequently.,Highly disagree,28/150,Somewhat agree,3,1698181015925,1698181036678,\Somewhat agree\,\Somewhat agree\,\3\,1698181036207,1698181036207,20282,20282,20753,buq,qns-item-noham,28,198999,0.0-1.0-0.27
"<b>If a politician in my political party supports something I disagree with, I give them the benefit of the doubt, as such issues often involve hidden complexities that aren?t obvious.   ",Highly disagree,29/150,Somewhat agree,3,1698181036681,1698181039638,\Somewhat agree\,\Somewhat agree\,\3\,1698181039204,1698181039204,2523,2523,2957,buq,qns-item-noham,29,201959,0.0-1.0-0.28
<b>People?s bad politics are usually motivated by hatefulness.,Highly disagree,30/150,Somewhat agree,3,1698181039641,1698181042059,\Somewhat agree\,\Somewhat agree\,\3\,1698181041654,1698181041654,2013,2013,2418,buq,qns-item-noham,30,204380,0.0-1.0-0.29
"<b>Most new experiences are just like old ones, but a little bit different.",Highly disagree,31/150,Somewhat disagree,2,1698181042060,1698181045457,\Somewhat agree\,\Somewhat disagree\,\3\,1698181043406,1698181045020,1346,2960,3397,buq,qns-item-noham,31,207778,0.0-1.0-0.30
<b>I think a lot about how to reconcile my beliefs with one another.,Highly disagree,32/150,Somewhat agree,3,1698181045460,1698181047122,\Somewhat agree\,\Somewhat agree\,\3\,1698181046721,1698181046721,1261,1261,1662,buq,qns-item-noham,32,209443,0.0-1.0-0.31
<b>Personal experience rarely leads people astray.,Highly disagree,33/150,Somewhat agree,3,1698181047123,1698181048425,\Somewhat agree\,\Somewhat agree\,\3\,1698181048038,1698181048038,915,915,1302,buq,qns-item-noham,33,210746,0.0-1.0-0.32
<b>I might have false beliefs about important topics.,Highly disagree,34/150,Highly agree,4,1698181048426,1698181050506,\Highly agree\,\Highly agree\,\4\,1698181050121,1698181050121,1695,1695,2080,buq,qns-item-noham,34,212827,0.0-1.0-0.33
"<b>If a good friend of mine does something unexpected that upsets me, I feel like I don?t know them anymore.",Highly disagree,35/150,Somewhat agree,3,1698181050508,1698181052921,\Somewhat agree\,\Somewhat agree\,\3\,1698181051105,1698181052540,597,2032,2413,buq,qns-item-noham,35,215242,0.0-1.0-0.34
<b>Other people?s beliefs are often incoherent.,Highly disagree,36/150,Somewhat agree,3,1698181052923,1698181055538,\Somewhat agree\,\Somewhat agree\,\3\,1698181054656,1698181054656,1733,1733,2615,buq,qns-item-noham,36,217859,0.0-1.0-0.35
<b>It?s important to have friends who think about things differently than I do.,Highly disagree,37/150,Somewhat agree,3,1698181055539,1698181058121,\Somewhat agree\,\Somewhat agree\,\3\,1698181056204,1698181057737,665,2198,2582,buq,qns-item-noham,37,220442,0.0-1.0-0.36
"<b>Every now and then, a new experience will unsettle beliefs I?ve had for a while.",Highly disagree,38/150,Somewhat agree,3,1698181058123,1698181059757,\Somewhat agree\,\Somewhat agree\,\3\,1698181059371,1698181059371,1248,1248,1634,buq,qns-item-noham,38,222079,0.0-1.0-0.37
<b>Some policies I agree with in principle are so bad I don?t support them. ,Highly disagree,39/150,Somewhat agree,3,1698181059760,1698181061045,\Somewhat agree\,\Somewhat agree\,\3\,1698181060572,1698181060572,812,812,1285,buq,qns-item-noham,39,223366,0.0-1.0-0.38
<b>I?m pretty sure I?ve accidentally spread false information.,Highly disagree,40/150,Somewhat disagree,2,1698181061049,1698181065372,\Somewhat disagree\,\Somewhat disagree\,\2\,1698181064971,1698181064971,3922,3922,4323,buq,qns-item-noham,40,227693,0.0-1.0-0.39
"<b>If I go to my favorite restaurant and the food is unexpectedly bad, then they have changed owners.",Highly disagree,41/150,Somewhat agree,3,1698181065374,1698181067355,\Somewhat agree\,\Somewhat agree\,\3\,1698181066938,1698181066938,1564,1564,1981,buq,qns-item-noham,41,229676,0.0-1.0-0.40
"<b>In politics, it?s important to trust your friends and family.",Highly disagree,42/150,Somewhat agree,3,1698181067357,1698181069637,\Somewhat agree\,\Somewhat agree\,\3\,1698181069206,1698181069206,1849,1849,2280,buq,qns-item-noham,42,231958,0.0-1.0-0.41
<b>It?s OK to have some conflicting beliefs.,Highly disagree,43/150,Highly agree,4,1698181069639,1698181071458,\Highly agree\,\Highly agree\,\4\,1698181071008,1698181071008,1369,1369,1819,buq,qns-item-noham,43,233779,0.0-1.0-0.42
<b>Sometimes the details of a matter seem to conflict with the big picture.,Highly disagree,44/150,Somewhat agree,3,1698181071459,1698181073422,\Somewhat agree\,\Somewhat agree\,\3\,1698181072524,1698181072524,1065,1065,1963,buq,qns-item-noham,44,235743,0.0-1.0-0.43
<b>Listening to people I disagree with makes my opinions better.,Highly disagree,45/150,Somewhat agree,3,1698181073424,1698181075523,\Somewhat agree\,\Somewhat agree\,\3\,1698181075121,1698181075121,1697,1697,2099,buq,qns-item-noham,45,237844,0.0-1.0-0.44
<b>Policies that sound bad are sometimes fine when you find out about their details.,Highly disagree,46/150,Somewhat agree,3,1698181075524,1698181077923,\Somewhat agree\,\Somewhat agree\,\3\,1698181077240,1698181077240,1716,1716,2399,buq,qns-item-noham,46,240244,0.0-1.0-0.45
"<b>The world is always changing, so my beliefs are sometimes out-dated.",Highly disagree,47/150,Somewhat agree,3,1698181077924,1698181080362,\Somewhat agree\,\Somewhat agree\,\3\,1698181078707,1698181079414,783,1490,2438,buq,qns-item-noham,47,242683,0.0-1.0-0.46
"<b>If I receive a bad meal at my favorite restaurant and the food is surprisingly bad, I do not think much of it, and assume the chef is just having an ?off? day.",Highly disagree,48/150,Highly agree,4,1698181080364,1698181083056,\Highly agree\,\Highly agree\,\4\,1698181082204,1698181082204,1840,1840,2692,buq,qns-item-noham,48,245377,0.0-1.0-0.47
"<b>False information is unavoidable, to some extent.",Highly disagree,49/150,Somewhat agree,3,1698181083058,1698181085389,\Somewhat agree\,\Somewhat agree\,\3\,1698181084988,1698181084988,1930,1930,2331,buq,qns-item-noham,49,247710,0.0-1.0-0.48
<b>My moral compass sometimes makes it harder to determine what?s true.,Highly disagree,50/150,Somewhat agree,3,1698181085390,1698181086922,\Somewhat agree\,\Somewhat agree\,\3\,1698181086390,1698181086390,1000,1000,1532,buq,qns-item-noham,50,249243,0.0-1.0-0.49
"<b>When you disagree with someone, it?s important to listen to them carefully.",Highly disagree,51/150,Somewhat agree,3,1698181086923,1698181088089,\Somewhat agree\,\Somewhat agree\,\3\,1698181087454,1698181087454,531,531,1166,buq,qns-item-noham,51,250410,0.0-1.0-0.50
<b>Evidence pointing in the wrong direction isn?t really evidence at all.,Highly disagree,52/150,Highly disagree,1,1698181088091,1698181091607,\Somewhat agree\,\Highly disagree\,\3\,1698181088721,1698181091188,630,3097,3516,buq,qns-item-noham,52,253928,0.0-1.0-0.51
"<b>If the political party I support messes up, it makes me think politics is rotten.",Highly disagree,53/150,Somewhat disagree,2,1698181091608,1698181094471,\Somewhat agree\,\Somewhat disagree\,\3\,1698181092504,1698181094087,896,2479,2863,buq,qns-item-noham,53,256793,0.0-1.0-0.52
<b>Lots of important topics can only really be understood by some groups of people.,Highly disagree,54/150,Somewhat agree,3,1698181094473,1698181096177,\Somewhat agree\,\Somewhat agree\,\3\,1698181095571,1698181095571,1098,1098,1704,buq,qns-item-noham,54,258498,0.0-1.0-0.53
<b>Details almost always matter for being right about something.,Highly disagree,55/150,Somewhat agree,3,1698181096179,1698181098272,\Somewhat agree\,\Somewhat agree\,\3\,1698181097890,1698181097890,1711,1711,2093,buq,qns-item-noham,55,260593,0.0-1.0-0.54
"<b>The most important thing in politics is winning, not convincing people.",Highly disagree,56/150,Highly disagree,1,1698181098274,1698181101010,\Highly disagree\,\Highly disagree\,\1\,1698181100557,1698181100557,2283,2283,2736,buq,qns-item-noham,56,263331,0.0-1.0-0.55
<b>Having conflicting beliefs means you haven?t thought about them enough.,Highly disagree,57/150,Somewhat disagree,2,1698181101012,1698181103230,\Somewhat agree\,\Somewhat disagree\,\3\,1698181102204,1698181102869,1192,1857,2218,buq,qns-item-noham,57,265551,0.0-1.0-0.56
<b>Other people have sometimes convinced me to change my mind on important topics.,Highly disagree,58/150,Somewhat agree,3,1698181103233,1698181105394,\Somewhat agree\,\Somewhat agree\,\3\,1698181104839,1698181104839,1606,1606,2161,buq,qns-item-noham,58,267715,0.0-1.0-0.57
<b>I do not often change my political opinions.,Highly disagree,59/150,Somewhat disagree,2,1698181105395,1698181107145,\Somewhat disagree\,\Somewhat disagree\,\2\,1698181106722,1698181106722,1327,1327,1750,buq,qns-item-noham,59,269466,0.0-1.0-0.58
<b>Thinking about how different things relate to one another is critical in life.,Highly disagree,60/150,Somewhat agree,3,1698181107147,1698181108541,\Somewhat agree\,\Somewhat agree\,\3\,1698181108137,1698181108137,990,990,1394,buq,qns-item-noham,60,270862,0.0-1.0-0.59
<b>True beliefs can have unfortunate implications.,Highly disagree,61/150,Somewhat agree,3,1698181108542,1698181110160,\Somewhat agree\,\Somewhat agree\,\3\,1698181109139,1698181109139,597,597,1618,buq,qns-item-noham,61,272482,0.0-1.0-0.60
<b>It?s difficult to not have at least some conflicting beliefs.,Highly disagree,62/150,Highly agree,4,1698181110163,1698181112924,\Somewhat agree\,\Highly agree\,\3\,1698181111321,1698181112521,1158,2358,2761,buq,qns-item-noham,62,275245,0.0-1.0-0.61
"<b>When I learn new things, I think deeply about how my opinions should change.",Highly disagree,63/150,Somewhat agree,3,1698181112925,1698181114843,\Somewhat agree\,\Somewhat agree\,\3\,1698181113938,1698181113938,1013,1013,1918,buq,qns-item-noham,63,277164,0.0-1.0-0.62
<b>I think a lot about how to interpret different sorts of evidence.,Highly disagree,64/150,Highly agree,4,1698181114844,1698181117088,\Somewhat agree\,\Highly agree\,\3\,1698181116041,1698181116723,1197,1879,2244,buq,qns-item-noham,64,279409,0.0-1.0-0.63
<b>Politics is about thinking together and finding compromises.,Highly disagree,65/150,Somewhat agree,3,1698181117090,1698181118288,\Somewhat agree\,\Somewhat agree\,\3\,1698181117754,1698181117754,664,664,1198,buq,qns-item-noham,65,280609,0.0-1.0-0.64
<b>Wishful thinking causes a lot of problems.,Highly disagree,66/150,Somewhat disagree,2,1698181118290,1698181120389,\Somewhat disagree\,\Somewhat disagree\,\2\,1698181119940,1698181119940,1650,1650,2099,buq,qns-item-noham,66,282710,0.0-1.0-0.65
<b>I judge a food item only once I try it many times.,Highly disagree,67/150,Somewhat disagree,2,1698181120390,1698181122571,\Somewhat disagree\,\Somewhat disagree\,\2\,1698181122190,1698181122190,1800,1800,2181,buq,qns-item-noham,67,284893,0.0-1.0-0.66
"<b>When a person holds conflicting beliefs, they should really try to figure out what?s wrong.",Highly disagree,68/150,Somewhat agree,3,1698181122574,1698181124529,\Somewhat agree\,\Somewhat agree\,\3\,1698181123672,1698181123672,1098,1098,1955,buq,qns-item-noham,68,286851,0.0-1.0-0.67
<b>Knowing what?s important in life is easy.,Highly disagree,69/150,Somewhat disagree,2,1698181124533,1698181127256,\Highly agree\,\Somewhat disagree\,\4\,1698181125759,1698181126845,1226,2312,2723,buq,qns-item-noham,69,289577,0.0-1.0-0.68
<b>Lots of smart people disagree about basic political questions.,Highly disagree,70/150,Highly agree,4,1698181127257,1698181129210,\Highly agree\,\Highly agree\,\4\,1698181128790,1698181128790,1533,1533,1953,buq,qns-item-noham,70,291531,0.0-1.0-0.69
<b>I swim across the Atlantic Ocean to get to work every day.,Highly disagree,71/150,Highly disagree,1,1698181129211,1698181131356,\Highly disagree\,\Highly disagree\,\1\,1698181130456,1698181130456,1245,1245,2145,buq,qns-item-noham,71,293677,0.0-1.0-0.70
"<b>Sometimes, you just have to ignore evidence that you know is wrong.",Highly disagree,72/150,Highly disagree,1,1698181131358,1698181134637,\Somewhat agree\,\Highly disagree\,\3\,1698181132488,1698181133897,1130,2539,3279,buq,qns-item-noham,72,296958,0.0-1.0-0.71
<b>I have had some false beliefs.,Highly disagree,73/150,Somewhat disagree,2,1698181134638,1698181136690,\Somewhat disagree\,\Somewhat disagree\,\2\,1698181136289,1698181136289,1651,1651,2052,buq,qns-item-noham,73,299012,0.0-1.0-0.72
"<b>If one friend does something that upsets me, I sometimes start to distrust people in general.",Highly disagree,74/150,Somewhat disagree,2,1698181136692,1698181142742,\Somewhat agree\,\Somewhat disagree\,\3\,1698181141654,1698181142356,4962,5664,6050,buq,qns-item-noham,74,305063,0.0-1.0-0.73
<b>I easily apply what I learn in one situation to another.,Highly disagree,75/150,Somewhat agree,3,1698181142743,1698181143959,\Somewhat agree\,\Somewhat agree\,\3\,1698181143507,1698181143507,764,764,1216,buq,qns-item-noham,75,306280,0.0-1.0-0.74
<b>The facts about most important matters are easy to find.,Highly disagree,76/150,Somewhat agree,3,1698181143961,1698181148138,\Somewhat disagree\,\Somewhat agree\,\2\,1698181146992,1698181147740,3031,3779,4177,buq,qns-item-noham,76,310459,0.0-1.0-0.75
<b>It?s better to know what?s true than to know what?s moral.,Highly disagree,77/150,Somewhat agree,3,1698181148140,1698181150301,\Somewhat agree\,\Somewhat agree\,\3\,1698181149421,1698181149421,1281,1281,2161,buq,qns-item-noham,77,312622,0.0-1.0-0.76
<b>It?s good to be skeptical of people you agree with.,Highly disagree,78/150,Somewhat disagree,2,1698181150304,1698181152641,\Somewhat disagree\,\Somewhat disagree\,\2\,1698181151604,1698181151773,1300,1469,2337,buq,qns-item-noham,78,314962,0.0-1.0-0.77
<b>Sometimes reasonable beliefs are wrong.,Highly disagree,79/150,Somewhat agree,3,1698181152642,1698181154894,\Somewhat agree\,\Somewhat agree\,\3\,1698181154471,1698181154471,1829,1829,2252,buq,qns-item-noham,79,317216,0.0-1.0-0.78
<b>I used to think the world was less complicated than I do now.,Highly disagree,80/150,Highly agree,4,1698181154898,1698181157057,\Somewhat agree\,\Highly agree\,\3\,1698181155684,1698181156589,786,1691,2159,buq,qns-item-noham,80,319378,0.0-1.0-0.79
<b>People are usually completely right or completely wrong.,Highly disagree,81/150,Highly disagree,1,1698181157059,1698181159272,\Highly disagree\,\Highly disagree\,\1\,1698181158854,1698181158854,1795,1795,2213,buq,qns-item-noham,81,321593,0.0-1.0-0.80
<b>I spend a lot of time considering alternatives to my beliefs.,Highly disagree,82/150,Somewhat agree,3,1698181159273,1698181161110,\Somewhat agree\,\Somewhat agree\,\3\,1698181160656,1698181160656,1383,1383,1837,buq,qns-item-noham,82,323431,0.0-1.0-0.81
"<b>Political enemies need to be defeated, not convinced.",Highly disagree,83/150,Highly disagree,1,1698181161111,1698181163177,\Highly disagree\,\Highly disagree\,\1\,1698181162687,1698181162687,1576,1576,2066,buq,qns-item-noham,83,325498,0.0-1.0-0.82
"<b>When forming an opinion about a restaurant, I am more swayed by my  latest meal there than  previous meals I?ve had there.",Highly disagree,84/150,Somewhat agree,3,1698181163179,1698181166122,\Somewhat agree\,\Somewhat agree\,\3\,1698181165259,1698181165259,2080,2080,2943,buq,qns-item-noham,84,328443,0.0-1.0-0.83
<b>I try to remain skeptical about most topics.,Highly disagree,85/150,Highly agree,4,1698181166124,1698181167751,\Highly agree\,\Highly agree\,\4\,1698181167354,1698181167354,1230,1230,1627,buq,qns-item-noham,85,330072,0.0-1.0-0.84
<b>Being wrong is usually obvious in retrospect.,Highly disagree,86/150,Highly disagree,1,1698181167754,1698181169764,\Highly disagree\,\Highly disagree\,\1\,1698181169271,1698181169271,1517,1517,2010,buq,qns-item-noham,86,332085,0.0-1.0-0.85
<b>It can be hard to realize that my beliefs are in conflict.,Highly disagree,87/150,Somewhat agree,3,1698181169768,1698181171222,\Somewhat agree\,\Somewhat agree\,\3\,1698181170776,1698181170776,1008,1008,1454,buq,qns-item-noham,87,333543,0.0-1.0-0.86
<b>I form my political views only after meticulously gathering historical and present information about their policies.,Highly disagree,88/150,Somewhat agree,3,1698181171224,1698181172625,\Somewhat agree\,\Somewhat agree\,\3\,1698181172188,1698181172188,964,964,1401,buq,qns-item-noham,88,334946,0.0-1.0-0.87
<b>Skeptical people are usually just bad-tempered.,Highly disagree,89/150,Highly disagree,1,1698181172627,1698181174721,\Highly disagree\,\Highly disagree\,\1\,1698181174273,1698181174273,1646,1646,2094,buq,qns-item-noham,89,337042,0.0-1.0-0.88
<b>It is difficult for me to remember the last time I was surprised by politics.,Highly disagree,90/150,Somewhat agree,3,1698181174723,1698181176589,\Somewhat agree\,\Somewhat agree\,\3\,1698181175854,1698181175854,1131,1131,1866,buq,qns-item-noham,90,338910,0.0-1.0-0.89
"<b>When I find out I?m wrong, I think a lot about my related beliefs.",Highly disagree,91/150,Somewhat agree,3,1698181176590,1698181178381,\Somewhat agree\,\Somewhat agree\,\3\,1698181177972,1698181177972,1382,1382,1791,buq,qns-item-noham,91,340702,0.0-1.0-0.90
"<b>If the political party I support messes up, it makes me think you can?t trust anyone these days",Highly disagree,92/150,Somewhat agree,3,1698181178383,1698181179871,\Somewhat agree\,\Somewhat agree\,\3\,1698181179388,1698181179388,1005,1005,1488,buq,qns-item-noham,92,342192,0.0-1.0-0.91
<b>People?s brains turn off when they talk about politics.,Highly disagree,93/150,Highly disagree,1,1698181179874,1698181182022,\Highly disagree\,\Highly disagree\,\1\,1698181181587,1698181181587,1713,1713,2148,buq,qns-item-noham,93,344343,0.0-1.0-0.92
<b>People who are wrong are usually just ignoring the obvious.,Highly disagree,94/150,Somewhat agree,3,1698181182023,1698181183505,\Somewhat agree\,\Somewhat agree\,\3\,1698181183054,1698181183054,1031,1031,1482,buq,qns-item-noham,94,345826,0.0-1.0-0.93
"<b>The world isn?t that complicated, but it?s still hard to figure out how it works.",Highly disagree,95/150,Somewhat disagree,2,1698181183507,1698181186057,\Somewhat agree\,\Somewhat disagree\,\3\,1698181184308,1698181185637,801,2130,2550,buq,qns-item-noham,95,348378,0.0-1.0-0.94
"<b>When forming my views on people, I rely more on what they are like now rather than rely on my past experience with them.",Highly disagree,96/150,Somewhat agree,3,1698181186058,1698181188722,\Somewhat agree\,\Somewhat agree\,\3\,1698181187324,1698181187324,1266,1266,2664,buq,qns-item-noham,96,351043,0.0-1.0-0.95
"<b>When people contradict my beliefs, I usually know about their evidence already.",Highly disagree,97/150,Somewhat disagree,2,1698181188724,1698181192822,\Somewhat disagree\,\Somewhat disagree\,\2\,1698181191923,1698181191923,3199,3199,4098,buq,qns-item-noham,97,355143,0.0-1.0-0.96
<b>Being wrong is a matter of degree.,Highly disagree,98/150,Somewhat agree,3,1698181192824,1698181194577,\Somewhat agree\,\Somewhat agree\,\3\,1698181194195,1698181194195,1371,1371,1753,buq,qns-item-noham,98,356898,0.0-1.0-0.97
<b>Figuring out what?s true and what?s false mainly requires a strong moral compass.,Highly disagree,99/150,Somewhat agree,3,1698181194580,1698181196492,\Somewhat agree\,\Somewhat agree\,\3\,1698181195271,1698181195271,691,691,1912,buq,qns-item-noham,99,358813,0.0-1.0-0.98
<b>Most of the beliefs people have are at least somewhat understandable.,Highly disagree,100/150,Highly agree,4,1698181196493,1698181274589,\Highly agree\,\Highly agree\,\4\,1698181273887,1698181273887,77394,77394,78096,buq,qns-item-noham,100,436910,0.0-1.0-0.99
"<b>Usually I?m wrong about simple things, not complicated ones.",Highly disagree,101/150,Somewhat agree,3,1698181274591,1698181275639,\Somewhat agree\,\Somewhat agree\,\3\,1698181275122,1698181275122,531,531,1048,buq,qns-item-noham,101,437960,0.0-1.0-0.100
<b>Getting all the information I want about important things is hard.,Highly disagree,102/150,Highly agree,4,1698181275641,1698181277187,\Highly agree\,\Highly agree\,\4\,1698181276787,1698181276787,1146,1146,1546,buq,qns-item-noham,102,439508,0.0-1.0-0.101
<b>Most false beliefs spread because people try to deceive one another.,Highly disagree,103/150,Somewhat disagree,2,1698181277191,1698181279787,\Somewhat disagree\,\Somewhat disagree\,\2\,1698181278437,1698181278437,1246,1246,2596,buq,qns-item-noham,103,442108,0.0-1.0-0.102
<b>I can usually find something to agree with in most people?s beliefs.,Highly disagree,104/150,Somewhat agree,3,1698181279788,1698181281274,\Somewhat agree\,\Somewhat agree\,\3\,1698181280439,1698181280439,651,651,1486,buq,qns-item-noham,104,443595,0.0-1.0-0.103
<b>I only form my views of people once I get to know them very well.,Highly disagree,105/150,Somewhat agree,3,1698181281281,1698181291707,\Somewhat agree\,\Somewhat agree\,\3\,1698181290391,1698181290391,9110,9110,10426,buq,qns-item-noham,105,454028,0.0-1.0-0.104
"<b>When people tell me important things about the world, I usually believe them.",Highly disagree,106/150,Somewhat agree,3,1698181291709,1698181295638,\Somewhat agree\,\Somewhat agree\,\3\,1698181294887,1698181294887,3178,3178,3929,buq,qns-item-noham,106,457959,0.0-1.0-0.105
"<b>If a friend does something that upsets me, it reminds me what an unpredictable place the world is.",Highly disagree,107/150,Somewhat agree,3,1698181295639,1698181297041,\Somewhat agree\,\Somewhat agree\,\3\,1698181296670,1698181296670,1031,1031,1402,buq,qns-item-noham,107,459362,0.0-1.0-0.106
<b>Having some conflicting beliefs is inevitable.,Highly disagree,108/150,Somewhat agree,3,1698181297044,1698181298207,\Somewhat agree\,\Somewhat agree\,\3\,1698181297803,1698181297803,759,759,1163,buq,qns-item-noham,108,460528,0.0-1.0-0.107
<b>People are wrong because they haven?t thought much about things.,Highly disagree,109/150,Somewhat disagree,2,1698181298209,1698181300125,\Somewhat agree\,\Somewhat disagree\,\3\,1698181299320,1698181299772,1111,1563,1916,buq,qns-item-noham,109,462446,0.0-1.0-0.108
<b>People tend to believe whatever is good for their friends.,Highly disagree,110/150,Somewhat agree,3,1698181300126,1698181301674,\Somewhat agree\,\Somewhat agree\,\3\,1698181301103,1698181301304,977,1178,1548,buq,qns-item-noham,110,463995,0.0-1.0-0.109
"<b>When I talk about important topics, I try to make sure people know I?m not always right.",Highly disagree,111/150,Somewhat agree,3,1698181301675,1698181305906,\Highly agree\,\Somewhat agree\,\4\,1698181302956,1698181305537,1281,3862,4231,buq,qns-item-noham,111,468227,0.0-1.0-0.110
<b>I used to be more certain my beliefs were true.,Highly disagree,112/150,Somewhat agree,3,1698181305907,1698181309103,\Somewhat agree\,\Somewhat agree\,\3\,1698181308720,1698181308720,2813,2813,3196,buq,qns-item-noham,112,471424,0.0-1.0-0.111
<b>It?s often pretty easy to figure out whether something is true based on who said it.,Highly disagree,113/150,Somewhat agree,3,1698181309105,1698181311222,\Somewhat agree\,\Somewhat agree\,\3\,1698181310371,1698181310371,1266,1266,2117,buq,qns-item-noham,113,473543,0.0-1.0-0.112
<b>Having bad food in my favorite restaurant will make me think the restaurant is no longer good.,Highly disagree,114/150,Somewhat disagree,2,1698181311223,1698181313459,\Somewhat disagree\,\Somewhat disagree\,\2\,1698181312637,1698181312637,1414,1414,2236,buq,qns-item-noham,114,475780,0.0-1.0-0.113
<b>I transform into a hummingbird every day.,Highly disagree,115/150,Somewhat agree,3,1698181313462,1698181315275,\Somewhat agree\,\Somewhat agree\,\3\,1698181314803,1698181314803,1341,1341,1813,buq,qns-item-noham,115,477596,0.0-1.0-0.114
"<b>Unfortunately, when people are wrong, it?s usually because they?re bad.",Highly disagree,116/150,Somewhat agree,3,1698181315276,1698181319438,\Somewhat agree\,\Somewhat agree\,\3\,1698181319053,1698181319053,3777,3777,4162,buq,qns-item-noham,116,481759,0.0-1.0-0.115
<b>I think a lot about arguments against my views.,Highly disagree,117/150,Highly agree,4,1698181319440,1698181321872,\Highly agree\,\Highly agree\,\4\,1698181321053,1698181321053,1613,1613,2432,buq,qns-item-noham,117,484193,0.0-1.0-0.116
<b>Details tend to matter a lot for knowing whether a policy is good.,Highly disagree,118/150,Somewhat agree,3,1698181321874,1698181325859,\Somewhat agree\,\Somewhat agree\,\3\,1698181325487,1698181325487,3613,3613,3985,buq,qns-item-noham,118,488180,0.0-1.0-0.117
<b>Personal experience is usually more important than facts and figures.,Highly disagree,119/150,Somewhat agree,3,1698181325860,1698181350337,\Somewhat agree\,\Somewhat agree\,\3\,1698181348676,1698181348676,22816,22816,24477,buq,qns-item-noham,119,512658,0.0-1.0-0.118
<b>I?ve been tricked before about important matters.,Highly disagree,120/150,Highly agree,4,1698181350338,1698181355986,\Highly agree\,\Highly agree\,\4\,1698181355089,1698181355089,4751,4751,5648,buq,qns-item-noham,120,518307,0.0-1.0-0.119
<b>I would need to be totally wowed if I were to change my opinion of a restaurant I don?t like.,Highly disagree,121/150,Somewhat agree,3,1698181355991,1698181357374,\Somewhat agree\,\Somewhat agree\,\3\,1698181356920,1698181356920,929,929,1383,buq,qns-item-noham,121,519695,0.0-1.0-0.120
<b>I care a lot about politics.,Highly disagree,122/150,Somewhat disagree,2,1698181357375,1698181359154,\Somewhat disagree\,\Somewhat disagree\,\2\,1698181358690,1698181358690,1315,1315,1779,buq,qns-item-noham,122,521475,0.0-1.0-0.121
<b>People with conflicting beliefs usually have some facts they disagree on.,Highly disagree,123/150,Somewhat agree,3,1698181359157,1698181360160,\Somewhat agree\,\Somewhat agree\,\3\,1698181359707,1698181359707,550,550,1003,buq,qns-item-noham,123,522481,0.0-1.0-0.122
<b>There are some topics I?ve been really wrong about.,Highly disagree,124/150,Somewhat agree,3,1698181360161,1698181361205,\Somewhat agree\,\Somewhat agree\,\3\,1698181360720,1698181360720,559,559,1044,buq,qns-item-noham,124,523526,0.0-1.0-0.123
<b>Most beliefs can be supported with at least some evidence.,Highly disagree,125/150,Somewhat agree,3,1698181361208,1698181362639,\Somewhat agree\,\Somewhat agree\,\3\,1698181361753,1698181361753,545,545,1431,buq,qns-item-noham,125,524960,0.0-1.0-0.124
<b>Other people make life out to be more complicated than it really is.,Highly disagree,126/150,Somewhat disagree,2,1698181362641,1698181365739,\Somewhat disagree\,\Somewhat disagree\,\2\,1698181365353,1698181365353,2712,2712,3098,buq,qns-item-noham,126,528060,0.0-1.0-0.125
"<b>My political views are being shaped continuously as I gather more information, rather than relying on what I?ve known to be true of my party in the past. ",Highly disagree,127/150,Somewhat agree,3,1698181365741,1698181422820,\Somewhat agree\,\Somewhat agree\,\3\,1698181422437,1698181422437,56696,56696,57079,buq,qns-item-noham,127,585141,0.0-1.0-0.126
<b>It?s pretty unusual for true things to seem false.,Highly disagree,128/150,Somewhat agree,3,1698181422822,1698181425121,\Somewhat agree\,\Somewhat agree\,\3\,1698181424403,1698181424403,1581,1581,2299,buq,qns-item-noham,128,587442,0.0-1.0-0.127
"<b>Policy details don?t matter much, just the big picture.",Highly disagree,129/150,Highly agree,4,1698181425123,1698181428770,\Somewhat agree\,\Highly agree\,\3\,1698181427574,1698181428023,2451,2900,3647,buq,qns-item-noham,129,591091,0.0-1.0-0.128
<b>I know my friends so well they can hardly ever surprise me.,Highly disagree,130/150,Somewhat agree,3,1698181428771,1698181431007,\Somewhat agree\,\Somewhat agree\,\3\,1698181430289,1698181430289,1518,1518,2236,buq,qns-item-noham,130,593328,0.0-1.0-0.129
"<b>When I talk to people, I often think about why they have the beliefs they do.",Highly disagree,131/150,Somewhat agree,3,1698181431009,1698181432572,\Somewhat agree\,\Somewhat agree\,\3\,1698181431553,1698181431553,544,544,1563,buq,qns-item-noham,131,594893,0.0-1.0-0.130
<b>I do not often change my views on people.,Highly disagree,132/150,Highly agree,4,1698181432574,1698181435112,\Highly agree\,\Highly agree\,\4\,1698181434587,1698181434587,2013,2013,2538,buq,qns-item-noham,132,597433,0.0-1.0-0.131
<b>I often wish I had more time to spend figuring out what?s true and what?s false in life.,Highly disagree,133/150,Somewhat agree,3,1698181435114,1698181437272,\Somewhat agree\,\Somewhat agree\,\3\,1698181435603,1698181435603,489,489,2158,buq,qns-item-noham,133,599593,0.0-1.0-0.132
<b>I?m more certain about my beliefs than I used to be.,Highly disagree,134/150,Somewhat disagree,2,1698181437274,1698181440303,\Somewhat agree\,\Somewhat disagree\,\3\,1698181438822,1698181439920,1548,2646,3029,buq,qns-item-noham,134,602624,0.0-1.0-0.133
"<b>Whenever I find out new information, I update my views on politics accordingly.",Highly disagree,135/150,Somewhat agree,3,1698181440305,1698181441923,\Somewhat agree\,\Somewhat agree\,\3\,1698181440853,1698181440853,548,548,1618,buq,qns-item-noham,135,604244,0.0-1.0-0.134
<b>People often tell falsehoods unintentionally.,Highly disagree,136/150,Somewhat disagree,2,1698181441925,1698181443920,\Somewhat disagree\,\Somewhat disagree\,\2\,1698181443373,1698181443373,1448,1448,1995,buq,qns-item-noham,136,606241,0.0-1.0-0.135
<b>Most people don?t know much about most things.,Highly disagree,137/150,Somewhat agree,3,1698181443923,1698181446254,\Somewhat agree\,\Somewhat agree\,\3\,1698181444440,1698181445490,517,1567,2331,buq,qns-item-noham,137,608575,0.0-1.0-0.136
"<b>If I find out something new about someone, I easily change my views about them.",Highly disagree,138/150,Somewhat agree,3,1698181446256,1698181447642,\Somewhat agree\,\Somewhat agree\,\3\,1698181447205,1698181447205,949,949,1386,buq,qns-item-noham,138,609963,0.0-1.0-0.137
<b>Having true beliefs is difficult.,Highly disagree,139/150,Highly agree,4,1698181447644,1698181451044,\Somewhat agree\,\Highly agree\,\3\,1698181450170,1698181450637,2526,2993,3400,buq,qns-item-noham,139,613365,0.0-1.0-0.138
<b>I don?t try new foods since I know I won?t like them.,Highly disagree,140/150,Highly disagree,1,1698181451047,1698181453439,\Somewhat agree\,\Highly disagree\,\3\,1698181451590,1698181453003,543,1956,2392,buq,qns-item-noham,140,615760,0.0-1.0-0.139
<b>It?s easy to figure out what?s true or false based on who?s saying it.,Highly disagree,141/150,Somewhat agree,3,1698181453441,1698181457288,\Somewhat agree\,\Somewhat agree\,\3\,1698181456889,1698181456889,3448,3448,3847,buq,qns-item-noham,141,619609,0.0-1.0-0.140
<b>False things have seemed true to me many times.,Highly disagree,142/150,Somewhat agree,3,1698181457290,1698181459509,\Somewhat agree\,\Somewhat agree\,\3\,1698181458987,1698181458987,1697,1697,2219,buq,qns-item-noham,142,621830,0.0-1.0-0.141
<b>It?s pretty easy to sort out what?s true and what?s false in life.,Highly disagree,143/150,Somewhat agree,3,1698181459512,1698181471922,\Somewhat agree\,\Somewhat agree\,\3\,1698181471408,1698181471408,11896,11896,12410,buq,qns-item-noham,143,634243,0.0-1.0-0.142
<b>Knowing lots of statistics about something is usually important for understanding it.,Highly disagree,144/150,Highly agree,4,1698181471923,1698181473638,\Highly agree\,\Highly agree\,\4\,1698181472805,1698181472805,882,882,1715,buq,qns-item-noham,144,635959,0.0-1.0-0.143
<b>Other people trick each other a lot.,Highly disagree,145/150,Somewhat disagree,2,1698181473640,1698181475404,\Somewhat disagree\,\Somewhat disagree\,\2\,1698181474990,1698181474990,1350,1350,1764,buq,qns-item-noham,145,637725,0.0-1.0-0.144
<b>I would need to learn a lot about a person for my opinion of them to be swayed.,Highly disagree,146/150,Somewhat agree,3,1698181475407,1698181476437,\Somewhat agree\,\Somewhat agree\,\3\,1698181475903,1698181475903,496,496,1030,buq,qns-item-noham,146,638758,0.0-1.0-0.145
<b>People can?t usually trick me when it comes to topics I care about.,Highly disagree,147/150,Somewhat agree,3,1698181476439,1698181477371,\Somewhat agree\,\Somewhat agree\,\3\,1698181476936,1698181476936,497,497,932,buq,qns-item-noham,147,639692,0.0-1.0-0.146
<b>I do not often change my views on food.,Highly disagree,148/150,Somewhat disagree,2,1698181477372,1698181481353,\Somewhat agree\,\Somewhat disagree\,\3\,1698181478122,1698181480603,750,3231,3981,buq,qns-item-noham,148,643674,0.0-1.0-0.147
<b>Specific policies are often very important to me.,Highly disagree,149/150,Somewhat agree,3,1698181481355,1698181482720,\Somewhat agree\,\Somewhat agree\,\3\,1698181482303,1698181482303,948,948,1365,buq,qns-item-noham,149,645041,0.0-1.0-0.148
<b>Most people are woefully under-informed.,Highly disagree,150/150,Somewhat agree,3,1698181482721,1698181484579,\Somewhat agree\,\Somewhat agree\,\3\,1698181484154,1698181484154,1433,1433,1858,buq,qns-item-noham,150,646900,0.0-1.0-0.149
