Question,qns_options,quest_num,answer,answer_num,question_load_timestamp,next_btn_timestamp,text_selected,final_text_selected,option_num_selected,preview_timestamps,final_text_selected_time_stamp,rt_first_option_click,rt_final_option_click,rt_submit_click,questionnaire,trial_type,trial_index,time_elapsed,internal_node_id
<b>Considering other people?s perspectives can help us figure out what?s true or false.,Highly disagree,1/150,Highly agree,4,1698242020620,1698242033135,\Highly agree\,\Highly agree\,\4\,1698242027085,1698242027085,6465,6465,12515,buq,qns-item-noham,1,18744,0.0-1.0-0.0
<b>Knowing what?s true and knowing what to do about it are usually basically the same.,Highly disagree,2/150,Somewhat disagree,2,1698242033152,1698242038220,\Somewhat disagree\,\Somewhat disagree\,\2\,1698242037472,1698242037472,4320,4320,5068,buq,qns-item-noham,2,23828,0.0-1.0-0.1
<b>Most people just believe whatever is convenient for them.,Highly disagree,3/150,Somewhat disagree,2,1698242038223,1698242043477,\Somewhat disagree\,\Somewhat disagree\,\2\,1698242042826,1698242042826,4603,4603,5254,buq,qns-item-noham,3,29085,0.0-1.0-0.2
<b>Even people who are wrong about most things can be right sometimes.,Highly disagree,4/150,Highly agree,4,1698242043480,1698242049678,\Highly agree\,\Highly agree\,\4\,1698242049060,1698242049060,5580,5580,6198,buq,qns-item-noham,4,35286,0.0-1.0-0.3
"<b>If the political party I support does something that upsets me, then the party may have changed, and I need to re-evaluate my support.",Highly disagree,5/150,Somewhat disagree,2,1698242049681,1698242054875,\Somewhat disagree\,\Somewhat disagree\,\2\,1698242054228,1698242054228,4547,4547,5194,buq,qns-item-noham,5,40483,0.0-1.0-0.4
"<b>When people disagree, one side is usually completely right.",Highly disagree,6/150,Highly disagree,1,1698242054877,1698242058307,\Highly disagree\,\Highly disagree\,\1\,1698242057692,1698242057692,2815,2815,3430,buq,qns-item-noham,6,43915,0.0-1.0-0.5
<b>People have lots of false beliefs.,Highly disagree,7/150,Somewhat agree,3,1698242058310,1698242062571,\Highly agree\,\Somewhat agree\,\4\,1698242060486,1698242062064,2176,3754,4261,buq,qns-item-noham,7,48179,0.0-1.0-0.6
<b>Having some big beliefs helps me sort out minor ones.,Highly disagree,8/150,Highly agree,4,1698242062574,1698242066462,\Highly agree\,\Highly agree\,\4\,1698242065906,1698242065906,3332,3332,3888,buq,qns-item-noham,8,52070,0.0-1.0-0.7
<b>Political questions are usually pretty complicated.,Highly disagree,9/150,Somewhat disagree,2,1698242066465,1698242071852,\Somewhat disagree\,\Somewhat disagree\,\2\,1698242069910,1698242069910,3445,3445,5387,buq,qns-item-noham,9,57460,0.0-1.0-0.8
<b>Figuring out what?s important in life requires learning a lot of facts.,Highly disagree,10/150,Somewhat agree,3,1698242071857,1698242077148,\Somewhat agree\,\Somewhat agree\,\3\,1698242076008,1698242076008,4151,4151,5291,buq,qns-item-noham,10,62757,0.0-1.0-0.9
<b>It is difficult for me to remember the last time I was surprised by politics.,Highly disagree,11/150,Highly disagree,1,1698242077153,1698242081165,\Highly disagree\,\Highly disagree\,\1\,1698242080578,1698242080578,3425,3425,4012,buq,qns-item-noham,11,66773,0.0-1.0-0.10
<b>People?s false beliefs are understandable.,Highly disagree,12/150,Somewhat disagree,2,1698242081167,1698242085566,\Somewhat disagree\,\Somewhat disagree\,\2\,1698242084474,1698242084474,3307,3307,4399,buq,qns-item-noham,12,71175,0.0-1.0-0.11
<b>I spend a lot of time trying to be informed about politics.,Highly disagree,13/150,Highly disagree,1,1698242085571,1698242088886,\Highly disagree\,\Highly disagree\,\1\,1698242088168,1698242088168,2597,2597,3315,buq,qns-item-noham,13,74494,0.0-1.0-0.12
<b>I think a lot about whether my beliefs are right.,Highly disagree,14/150,Somewhat disagree,2,1698242088888,1698242092971,\Somewhat disagree\,\Somewhat disagree\,\2\,1698242092241,1698242092241,3353,3353,4083,buq,qns-item-noham,14,78579,0.0-1.0-0.13
<b>Statistics can be pretty misleading sometimes.,Highly disagree,15/150,Highly agree,4,1698242092974,1698242097900,\Highly agree\,\Highly agree\,\4\,1698242095062,1698242097370,2088,4396,4926,buq,qns-item-noham,15,83508,0.0-1.0-0.14
<b>Figuring out what?s true and what?s false takes a lot of time and effort.,Highly disagree,16/150,Somewhat agree,3,1698242097904,1698242102353,\Somewhat agree\,\Somewhat agree\,\3\,1698242101756,1698242101756,3852,3852,4449,buq,qns-item-noham,16,87961,0.0-1.0-0.15
"<b>If a friend does something bad to me, it was likely an error on their part.",Highly disagree,17/150,Highly agree,4,1698242102355,1698242107465,\Highly agree\,\Highly agree\,\4\,1698242106334,1698242106334,3979,3979,5110,buq,qns-item-noham,17,93073,0.0-1.0-0.16
<b>I have lots of beliefs that I?m only sort of sure about.,Highly disagree,18/150,Somewhat disagree,2,1698242107468,1698242111495,\Somewhat disagree\,\Somewhat disagree\,\2\,1698242110698,1698242110698,3230,3230,4027,buq,qns-item-noham,18,97103,0.0-1.0-0.17
"<b>If I go to my favorite restaurant and the food is surprisingly bad, it reminds me there are many disappointments in life.",Highly disagree,19/150,Highly agree,4,1698242111498,1698242116764,\Highly agree\,\Highly agree\,\4\,1698242115986,1698242115986,4488,4488,5266,buq,qns-item-noham,19,102372,0.0-1.0-0.18
<b>Sometimes my beliefs are inconvenient for me.,Highly disagree,20/150,Highly disagree,1,1698242116766,1698242120650,\Somewhat disagree\,\Highly disagree\,\2\,1698242119294,1698242120070,2528,3304,3884,buq,qns-item-noham,20,106258,0.0-1.0-0.19
<b>Paying attention to multiple news sources is important.,Highly disagree,21/150,Somewhat disagree,2,1698242120653,1698242128534,\Highly agree\,\Somewhat disagree\,\4\,1698242124442,1698242128007,3789,7354,7881,buq,qns-item-noham,21,114142,0.0-1.0-0.20
"<b>If you are paying attention, please select ?Somewhat agree?",Highly disagree,22/150,Somewhat agree,3,1698242128536,1698242131678,\Somewhat agree\,\Somewhat agree\,\3\,1698242131061,1698242131061,2525,2525,3142,buq,qns-item-noham,22,117287,0.0-1.0-0.21
"<b>When I talk to others, I often worry I?ll convince them of something I didn?t mean to.",Highly disagree,23/150,Somewhat disagree,2,1698242131685,1698242137346,\Somewhat disagree\,\Somewhat disagree\,\2\,1698242136745,1698242136745,5060,5060,5661,buq,qns-item-noham,23,122954,0.0-1.0-0.22
<b>I would need to learn something utterly shocking about my party in order to change my political views.,Highly disagree,24/150,Highly agree,4,1698242137349,1698242144314,\Highly agree\,\Highly agree\,\4\,1698242142739,1698242142739,5390,5390,6965,buq,qns-item-noham,24,129922,0.0-1.0-0.23
"<b>When I have new experiences, I tend to think of them as unique.",Highly disagree,25/150,Highly agree,4,1698242144319,1698242147294,\Highly agree\,\Highly agree\,\4\,1698242146743,1698242146743,2424,2424,2975,buq,qns-item-noham,25,132902,0.0-1.0-0.24
<b>Reading lots of things is important for understanding the world.,Highly disagree,26/150,Somewhat agree,3,1698242147296,1698242150728,\Somewhat agree\,\Somewhat agree\,\3\,1698242150139,1698242150139,2843,2843,3432,buq,qns-item-noham,26,136336,0.0-1.0-0.25
<b>The world is complicated.,Highly disagree,27/150,Highly agree,4,1698242150731,1698242152616,\Highly agree\,\Highly agree\,\4\,1698242151981,1698242151981,1250,1250,1885,buq,qns-item-noham,27,138224,0.0-1.0-0.26
<b>I change my mind about specific policies pretty frequently.,Highly disagree,28/150,Somewhat disagree,2,1698242152618,1698242156477,\Somewhat disagree\,\Somewhat disagree\,\2\,1698242155747,1698242155747,3129,3129,3859,buq,qns-item-noham,28,142085,0.0-1.0-0.27
"<b>If a politician in my political party supports something I disagree with, I give them the benefit of the doubt, as such issues often involve hidden complexities that aren?t obvious.   ",Highly disagree,29/150,Somewhat agree,3,1698242156479,1698242160552,\Somewhat agree\,\Somewhat agree\,\3\,1698242160027,1698242160027,3548,3548,4073,buq,qns-item-noham,29,146160,0.0-1.0-0.28
<b>People?s bad politics are usually motivated by hatefulness.,Highly disagree,30/150,Somewhat disagree,2,1698242160556,1698242165361,\Somewhat disagree\,\Somewhat disagree\,\2\,1698242164737,1698242164737,4181,4181,4805,buq,qns-item-noham,30,150969,0.0-1.0-0.29
"<b>Most new experiences are just like old ones, but a little bit different.",Highly disagree,31/150,Somewhat agree,3,1698242165363,1698242169297,\Somewhat agree\,\Somewhat agree\,\3\,1698242168595,1698242168595,3232,3232,3934,buq,qns-item-noham,31,154905,0.0-1.0-0.30
<b>I think a lot about how to reconcile my beliefs with one another.,Highly disagree,32/150,Somewhat agree,3,1698242169299,1698242173976,\Somewhat agree\,\Somewhat agree\,\3\,1698242173445,1698242173445,4146,4146,4677,buq,qns-item-noham,32,159584,0.0-1.0-0.31
<b>Personal experience rarely leads people astray.,Highly disagree,33/150,Highly disagree,1,1698242173979,1698242178635,\Highly disagree\,\Highly disagree\,\1\,1698242177831,1698242177831,3852,3852,4656,buq,qns-item-noham,33,164243,0.0-1.0-0.32
<b>I might have false beliefs about important topics.,Highly disagree,34/150,Somewhat agree,3,1698242178637,1698242182726,\Somewhat agree\,\Somewhat agree\,\3\,1698242182129,1698242182129,3492,3492,4089,buq,qns-item-noham,34,168334,0.0-1.0-0.33
"<b>If a good friend of mine does something unexpected that upsets me, I feel like I don?t know them anymore.",Highly disagree,35/150,Highly agree,4,1698242182728,1698242189470,\Highly agree\,\Highly agree\,\4\,1698242187074,1698242188796,4346,6068,6742,buq,qns-item-noham,35,175078,0.0-1.0-0.34
<b>Other people?s beliefs are often incoherent.,Highly disagree,36/150,Highly disagree,1,1698242189475,1698242196340,\Somewhat disagree\,\Highly disagree\,\2\,1698242193454,1698242195212,3979,5737,6865,buq,qns-item-noham,36,181948,0.0-1.0-0.35
<b>It?s important to have friends who think about things differently than I do.,Highly disagree,37/150,Somewhat disagree,2,1698242196345,1698242200750,\Somewhat disagree\,\Somewhat disagree\,\2\,1698242199075,1698242200081,2730,3736,4405,buq,qns-item-noham,37,186358,0.0-1.0-0.36
"<b>Every now and then, a new experience will unsettle beliefs I?ve had for a while.",Highly disagree,38/150,Somewhat agree,3,1698242200754,1698242205379,\Somewhat agree\,\Somewhat agree\,\3\,1698242204508,1698242204508,3754,3754,4625,buq,qns-item-noham,38,190987,0.0-1.0-0.37
<b>Some policies I agree with in principle are so bad I don?t support them. ,Highly disagree,39/150,Somewhat disagree,2,1698242205381,1698242211838,\Highly disagree\,\Somewhat disagree\,\1\,1698242210590,1698242211300,5209,5919,6457,buq,qns-item-noham,39,197446,0.0-1.0-0.38
<b>I?m pretty sure I?ve accidentally spread false information.,Highly disagree,40/150,Somewhat agree,3,1698242211843,1698242214837,\Somewhat agree\,\Somewhat agree\,\3\,1698242214277,1698242214277,2434,2434,2994,buq,qns-item-noham,40,200445,0.0-1.0-0.39
"<b>If I go to my favorite restaurant and the food is unexpectedly bad, then they have changed owners.",Highly disagree,41/150,Highly disagree,1,1698242214840,1698242219209,\Highly disagree\,\Highly disagree\,\1\,1698242218514,1698242218514,3674,3674,4369,buq,qns-item-noham,41,204817,0.0-1.0-0.40
"<b>In politics, it?s important to trust your friends and family.",Highly disagree,42/150,Highly agree,4,1698242219212,1698242223595,\Highly agree\,\Highly agree\,\4\,1698242222831,1698242222831,3619,3619,4383,buq,qns-item-noham,42,209203,0.0-1.0-0.41
<b>It?s OK to have some conflicting beliefs.,Highly disagree,43/150,Highly agree,4,1698242223597,1698242226045,\Highly agree\,\Highly agree\,\4\,1698242225412,1698242225412,1815,1815,2448,buq,qns-item-noham,43,211653,0.0-1.0-0.42
<b>Sometimes the details of a matter seem to conflict with the big picture.,Highly disagree,44/150,Somewhat agree,3,1698242226047,1698242230991,\Somewhat agree\,\Somewhat agree\,\3\,1698242230326,1698242230326,4279,4279,4944,buq,qns-item-noham,44,216599,0.0-1.0-0.43
<b>Listening to people I disagree with makes my opinions better.,Highly disagree,45/150,Somewhat agree,3,1698242230994,1698242236508,\Somewhat disagree\,\Somewhat agree\,\2\,1698242234843,1698242235949,3849,4955,5514,buq,qns-item-noham,45,222116,0.0-1.0-0.44
<b>Policies that sound bad are sometimes fine when you find out about their details.,Highly disagree,46/150,Somewhat disagree,2,1698242236512,1698242242992,\Somewhat disagree\,\Somewhat disagree\,\2\,1698242241214,1698242241214,4702,4702,6480,buq,qns-item-noham,46,228600,0.0-1.0-0.45
"<b>The world is always changing, so my beliefs are sometimes out-dated.",Highly disagree,47/150,Highly agree,4,1698242242997,1698242246740,\Highly agree\,\Highly agree\,\4\,1698242245910,1698242245910,2913,2913,3743,buq,qns-item-noham,47,232348,0.0-1.0-0.46
"<b>If I receive a bad meal at my favorite restaurant and the food is surprisingly bad, I do not think much of it, and assume the chef is just having an ?off? day.",Highly disagree,48/150,Somewhat agree,3,1698242246742,1698242252230,\Somewhat agree\,\Somewhat agree\,\3\,1698242251552,1698242251552,4810,4810,5488,buq,qns-item-noham,48,237838,0.0-1.0-0.47
"<b>False information is unavoidable, to some extent.",Highly disagree,49/150,Highly agree,4,1698242252232,1698242255254,\Highly agree\,\Highly agree\,\4\,1698242254592,1698242254592,2360,2360,3022,buq,qns-item-noham,49,240862,0.0-1.0-0.48
<b>My moral compass sometimes makes it harder to determine what?s true.,Highly disagree,50/150,Somewhat agree,3,1698242255258,1698242262263,\Somewhat agree\,\Somewhat agree\,\3\,1698242260374,1698242260374,5116,5116,7005,buq,qns-item-noham,50,247871,0.0-1.0-0.49
"<b>When you disagree with someone, it?s important to listen to them carefully.",Highly disagree,51/150,Highly agree,4,1698242262267,1698242265308,\Highly agree\,\Highly agree\,\4\,1698242264650,1698242264650,2383,2383,3041,buq,qns-item-noham,51,250916,0.0-1.0-0.50
<b>Evidence pointing in the wrong direction isn?t really evidence at all.,Highly disagree,52/150,Somewhat disagree,2,1698242265311,1698242271038,\Somewhat disagree\,\Somewhat disagree\,\2\,1698242270286,1698242270286,4975,4975,5727,buq,qns-item-noham,52,256646,0.0-1.0-0.51
"<b>If the political party I support messes up, it makes me think politics is rotten.",Highly disagree,53/150,Highly disagree,1,1698242271040,1698242277026,\Highly disagree\,\Highly disagree\,\1\,1698242276146,1698242276146,5106,5106,5986,buq,qns-item-noham,53,262634,0.0-1.0-0.52
<b>Lots of important topics can only really be understood by some groups of people.,Highly disagree,54/150,Somewhat agree,3,1698242277028,1698242280969,\Somewhat agree\,\Somewhat agree\,\3\,1698242280388,1698242280388,3360,3360,3941,buq,qns-item-noham,54,266577,0.0-1.0-0.53
<b>Details almost always matter for being right about something.,Highly disagree,55/150,Somewhat agree,3,1698242280972,1698242285259,\Somewhat agree\,\Somewhat agree\,\3\,1698242284706,1698242284706,3734,3734,4287,buq,qns-item-noham,55,270867,0.0-1.0-0.54
"<b>The most important thing in politics is winning, not convincing people.",Highly disagree,56/150,Highly disagree,1,1698242285262,1698242290660,\Highly disagree\,\Highly disagree\,\1\,1698242289956,1698242289956,4694,4694,5398,buq,qns-item-noham,56,276268,0.0-1.0-0.55
<b>Having conflicting beliefs means you haven?t thought about them enough.,Highly disagree,57/150,Somewhat disagree,2,1698242290663,1698242295209,\Somewhat agree\,\Somewhat disagree\,\3\,1698242293574,1698242294569,2911,3906,4546,buq,qns-item-noham,57,280817,0.0-1.0-0.56
<b>Other people have sometimes convinced me to change my mind on important topics.,Highly disagree,58/150,Somewhat agree,3,1698242295213,1698242300611,\Somewhat agree\,\Somewhat agree\,\3\,1698242298524,1698242298524,3311,3311,5398,buq,qns-item-noham,58,286219,0.0-1.0-0.57
<b>I do not often change my political opinions.,Highly disagree,59/150,Somewhat disagree,2,1698242300615,1698242304511,\Somewhat disagree\,\Somewhat disagree\,\2\,1698242303885,1698242303885,3270,3270,3896,buq,qns-item-noham,59,290119,0.0-1.0-0.58
<b>Thinking about how different things relate to one another is critical in life.,Highly disagree,60/150,Somewhat agree,3,1698242304513,1698242308158,\Somewhat agree\,\Somewhat agree\,\3\,1698242307561,1698242307561,3048,3048,3645,buq,qns-item-noham,60,293766,0.0-1.0-0.59
<b>True beliefs can have unfortunate implications.,Highly disagree,61/150,Somewhat agree,3,1698242308160,1698242312343,\Somewhat agree\,\Somewhat agree\,\3\,1698242311615,1698242311615,3455,3455,4183,buq,qns-item-noham,61,297951,0.0-1.0-0.60
<b>It?s difficult to not have at least some conflicting beliefs.,Highly disagree,62/150,Highly agree,4,1698242312345,1698242315593,\Highly agree\,\Highly agree\,\4\,1698242315001,1698242315001,2656,2656,3248,buq,qns-item-noham,62,301201,0.0-1.0-0.61
"<b>When I learn new things, I think deeply about how my opinions should change.",Highly disagree,63/150,Somewhat disagree,2,1698242315596,1698242320619,\Highly disagree\,\Somewhat disagree\,\1\,1698242319225,1698242319698,3629,4102,5023,buq,qns-item-noham,63,306227,0.0-1.0-0.62
<b>I think a lot about how to interpret different sorts of evidence.,Highly disagree,64/150,Somewhat agree,3,1698242320623,1698242325307,\Somewhat agree\,\Somewhat agree\,\3\,1698242324674,1698242324674,4051,4051,4684,buq,qns-item-noham,64,310915,0.0-1.0-0.63
<b>Politics is about thinking together and finding compromises.,Highly disagree,65/150,Somewhat agree,3,1698242325309,1698242330847,\Somewhat agree\,\Somewhat agree\,\3\,1698242330333,1698242330333,5024,5024,5538,buq,qns-item-noham,65,316455,0.0-1.0-0.64
<b>Wishful thinking causes a lot of problems.,Highly disagree,66/150,Somewhat disagree,2,1698242330850,1698242334603,\Somewhat disagree\,\Somewhat disagree\,\2\,1698242333977,1698242333977,3127,3127,3753,buq,qns-item-noham,66,320211,0.0-1.0-0.65
<b>I judge a food item only once I try it many times.,Highly disagree,67/150,Highly disagree,1,1698242334605,1698242341383,\Highly disagree\,\Highly disagree\,\1\,1698242340553,1698242340553,5948,5948,6778,buq,qns-item-noham,67,326991,0.0-1.0-0.66
"<b>When a person holds conflicting beliefs, they should really try to figure out what?s wrong.",Highly disagree,68/150,Somewhat disagree,2,1698242341385,1698242346204,\Somewhat disagree\,\Somewhat disagree\,\2\,1698242345593,1698242345593,4208,4208,4819,buq,qns-item-noham,68,331812,0.0-1.0-0.67
<b>Knowing what?s important in life is easy.,Highly disagree,69/150,Highly disagree,1,1698242346206,1698242349470,\Highly disagree\,\Highly disagree\,\1\,1698242348763,1698242348763,2557,2557,3264,buq,qns-item-noham,69,335078,0.0-1.0-0.68
<b>Lots of smart people disagree about basic political questions.,Highly disagree,70/150,Highly agree,4,1698242349472,1698242352464,\Highly agree\,\Highly agree\,\4\,1698242351869,1698242351869,2397,2397,2992,buq,qns-item-noham,70,338073,0.0-1.0-0.69
<b>I swim across the Atlantic Ocean to get to work every day.,Highly disagree,71/150,Highly disagree,1,1698242352467,1698242356155,\Highly disagree\,\Highly disagree\,\1\,1698242355473,1698242355473,3006,3006,3688,buq,qns-item-noham,71,341763,0.0-1.0-0.70
"<b>Sometimes, you just have to ignore evidence that you know is wrong.",Highly disagree,72/150,Somewhat agree,3,1698242356158,1698242360591,\Somewhat agree\,\Somewhat agree\,\3\,1698242360015,1698242360015,3857,3857,4433,buq,qns-item-noham,72,346199,0.0-1.0-0.71
<b>I have had some false beliefs.,Highly disagree,73/150,Highly agree,4,1698242360593,1698242363203,\Highly agree\,\Highly agree\,\4\,1698242362529,1698242362529,1936,1936,2610,buq,qns-item-noham,73,348811,0.0-1.0-0.72
"<b>If one friend does something that upsets me, I sometimes start to distrust people in general.",Highly disagree,74/150,Somewhat disagree,2,1698242363206,1698242368674,\Somewhat disagree\,\Somewhat disagree\,\2\,1698242367407,1698242367407,4201,4201,5468,buq,qns-item-noham,74,354282,0.0-1.0-0.73
<b>I easily apply what I learn in one situation to another.,Highly disagree,75/150,Somewhat disagree,2,1698242368678,1698242374601,\Somewhat agree\,\Somewhat disagree\,\3\,1698242371951,1698242373480,3273,4802,5923,buq,qns-item-noham,75,360209,0.0-1.0-0.74
<b>The facts about most important matters are easy to find.,Highly disagree,76/150,Somewhat disagree,2,1698242374605,1698242378307,\Highly disagree\,\Somewhat disagree\,\1\,1698242377365,1698242377677,2760,3072,3702,buq,qns-item-noham,76,363915,0.0-1.0-0.75
<b>It?s better to know what?s true than to know what?s moral.,Highly disagree,77/150,Highly agree,4,1698242378311,1698242382372,\Somewhat agree\,\Highly agree\,\3\,1698242380954,1698242381413,2643,3102,4061,buq,qns-item-noham,77,367980,0.0-1.0-0.76
<b>It?s good to be skeptical of people you agree with.,Highly disagree,78/150,Highly agree,4,1698242382377,1698242386728,\Highly agree\,\Highly agree\,\4\,1698242385596,1698242385596,3219,3219,4351,buq,qns-item-noham,78,372336,0.0-1.0-0.77
<b>Sometimes reasonable beliefs are wrong.,Highly disagree,79/150,Somewhat disagree,2,1698242386733,1698242389817,\Somewhat disagree\,\Somewhat disagree\,\2\,1698242389255,1698242389255,2522,2522,3084,buq,qns-item-noham,79,375425,0.0-1.0-0.78
<b>I used to think the world was less complicated than I do now.,Highly disagree,80/150,Highly agree,4,1698242389821,1698242396920,\Highly agree\,\Highly agree\,\4\,1698242396076,1698242396076,6255,6255,7099,buq,qns-item-noham,80,382528,0.0-1.0-0.79
<b>People are usually completely right or completely wrong.,Highly disagree,81/150,Somewhat disagree,2,1698242396923,1698242400403,\Somewhat disagree\,\Somewhat disagree\,\2\,1698242399594,1698242399594,2671,2671,3480,buq,qns-item-noham,81,386011,0.0-1.0-0.80
<b>I spend a lot of time considering alternatives to my beliefs.,Highly disagree,82/150,Highly disagree,1,1698242400407,1698242405184,\Highly disagree\,\Highly disagree\,\1\,1698242404496,1698242404496,4089,4089,4777,buq,qns-item-noham,82,390792,0.0-1.0-0.81
"<b>Political enemies need to be defeated, not convinced.",Highly disagree,83/150,Somewhat disagree,2,1698242405187,1698242409177,\Somewhat disagree\,\Somewhat disagree\,\2\,1698242408611,1698242408611,3424,3424,3990,buq,qns-item-noham,83,394785,0.0-1.0-0.82
"<b>When forming an opinion about a restaurant, I am more swayed by my  latest meal there than  previous meals I?ve had there.",Highly disagree,84/150,Highly disagree,1,1698242409179,1698242416740,\Highly disagree\,\Highly disagree\,\1\,1698242415163,1698242416163,5984,6984,7561,buq,qns-item-noham,84,402348,0.0-1.0-0.83
<b>I try to remain skeptical about most topics.,Highly disagree,85/150,Somewhat disagree,2,1698242416744,1698242421783,\Somewhat disagree\,\Somewhat disagree\,\2\,1698242419279,1698242421146,2535,4402,5039,buq,qns-item-noham,85,407391,0.0-1.0-0.84
<b>Being wrong is usually obvious in retrospect.,Highly disagree,86/150,Highly disagree,1,1698242421787,1698242427751,\Somewhat disagree\,\Highly disagree\,\2\,1698242426918,1698242427174,5131,5387,5964,buq,qns-item-noham,86,413359,0.0-1.0-0.85
<b>It can be hard to realize that my beliefs are in conflict.,Highly disagree,87/150,Somewhat agree,3,1698242427753,1698242432394,\Somewhat disagree\,\Somewhat agree\,\2\,1698242430417,1698242431754,2664,4001,4641,buq,qns-item-noham,87,418002,0.0-1.0-0.86
<b>I form my political views only after meticulously gathering historical and present information about their policies.,Highly disagree,88/150,Somewhat disagree,2,1698242432399,1698242436209,\Somewhat disagree\,\Somewhat disagree\,\2\,1698242435183,1698242435183,2784,2784,3810,buq,qns-item-noham,88,421817,0.0-1.0-0.87
<b>Skeptical people are usually just bad-tempered.,Highly disagree,89/150,Highly disagree,1,1698242436213,1698242439119,\Highly disagree\,\Highly disagree\,\1\,1698242438575,1698242438575,2362,2362,2906,buq,qns-item-noham,89,424727,0.0-1.0-0.88
<b>It is difficult for me to remember the last time I was surprised by politics.,Highly disagree,90/150,Highly disagree,1,1698242439122,1698242442875,\Highly disagree\,\Highly disagree\,\1\,1698242442254,1698242442254,3132,3132,3753,buq,qns-item-noham,90,428483,0.0-1.0-0.89
"<b>When I find out I?m wrong, I think a lot about my related beliefs.",Highly disagree,91/150,Somewhat agree,3,1698242442878,1698242446226,\Somewhat disagree\,\Somewhat agree\,\2\,1698242445344,1698242445665,2466,2787,3348,buq,qns-item-noham,91,431834,0.0-1.0-0.90
"<b>If the political party I support messes up, it makes me think you can?t trust anyone these days",Highly disagree,92/150,Somewhat agree,3,1698242446228,1698242451155,\Somewhat agree\,\Somewhat agree\,\3\,1698242450639,1698242450639,4411,4411,4927,buq,qns-item-noham,92,436763,0.0-1.0-0.91
<b>People?s brains turn off when they talk about politics.,Highly disagree,93/150,Highly disagree,1,1698242451159,1698242454979,\Highly disagree\,\Highly disagree\,\1\,1698242454280,1698242454280,3121,3121,3820,buq,qns-item-noham,93,440587,0.0-1.0-0.92
<b>People who are wrong are usually just ignoring the obvious.,Highly disagree,94/150,Highly disagree,1,1698242454982,1698242458088,\Highly disagree\,\Highly disagree\,\1\,1698242457497,1698242457497,2515,2515,3106,buq,qns-item-noham,94,443696,0.0-1.0-0.93
"<b>The world isn?t that complicated, but it?s still hard to figure out how it works.",Highly disagree,95/150,Somewhat agree,3,1698242458090,1698242464992,\Somewhat disagree\,\Somewhat agree\,\2\,1698242463305,1698242464466,5215,6376,6902,buq,qns-item-noham,95,450600,0.0-1.0-0.94
"<b>When forming my views on people, I rely more on what they are like now rather than rely on my past experience with them.",Highly disagree,96/150,Somewhat disagree,2,1698242464996,1698242468656,\Somewhat disagree\,\Somewhat disagree\,\2\,1698242467709,1698242468041,2713,3045,3660,buq,qns-item-noham,96,454264,0.0-1.0-0.95
"<b>When people contradict my beliefs, I usually know about their evidence already.",Highly disagree,97/150,Highly disagree,1,1698242468661,1698242473007,\Highly disagree\,\Highly disagree\,\1\,1698242472421,1698242472421,3760,3760,4346,buq,qns-item-noham,97,458615,0.0-1.0-0.96
<b>Being wrong is a matter of degree.,Highly disagree,98/150,Somewhat agree,3,1698242473009,1698242476308,\Somewhat agree\,\Somewhat agree\,\3\,1698242475703,1698242475703,2694,2694,3299,buq,qns-item-noham,98,461916,0.0-1.0-0.97
<b>Figuring out what?s true and what?s false mainly requires a strong moral compass.,Highly disagree,99/150,Somewhat disagree,2,1698242476310,1698242480567,\Somewhat disagree\,\Somewhat disagree\,\2\,1698242479971,1698242479971,3661,3661,4257,buq,qns-item-noham,99,466176,0.0-1.0-0.98
<b>Most of the beliefs people have are at least somewhat understandable.,Highly disagree,100/150,Somewhat agree,3,1698242480570,1698242485350,\Highly agree\,\Somewhat agree\,\4\,1698242483601,1698242484773,3031,4203,4780,buq,qns-item-noham,100,470958,0.0-1.0-0.99
"<b>Usually I?m wrong about simple things, not complicated ones.",Highly disagree,101/150,Somewhat agree,3,1698242485354,1698242490270,\Somewhat disagree\,\Somewhat agree\,\2\,1698242489208,1698242489713,3854,4359,4916,buq,qns-item-noham,101,475878,0.0-1.0-0.100
<b>Getting all the information I want about important things is hard.,Highly disagree,102/150,Somewhat agree,3,1698242490275,1698242494161,\Somewhat agree\,\Somewhat agree\,\3\,1698242493524,1698242493524,3249,3249,3886,buq,qns-item-noham,102,479770,0.0-1.0-0.101
<b>Most false beliefs spread because people try to deceive one another.,Highly disagree,103/150,Highly agree,4,1698242494164,1698242499215,\Highly agree\,\Highly agree\,\4\,1698242498538,1698242498538,4374,4374,5051,buq,qns-item-noham,103,484823,0.0-1.0-0.102
<b>I can usually find something to agree with in most people?s beliefs.,Highly disagree,104/150,Somewhat disagree,2,1698242499217,1698242503779,\Somewhat agree\,\Somewhat disagree\,\3\,1698242501838,1698242503288,2621,4071,4562,buq,qns-item-noham,104,489387,0.0-1.0-0.103
<b>I only form my views of people once I get to know them very well.,Highly disagree,105/150,Somewhat disagree,2,1698242503783,1698242506757,\Somewhat disagree\,\Somewhat disagree\,\2\,1698242506252,1698242506252,2469,2469,2974,buq,qns-item-noham,105,492365,0.0-1.0-0.104
"<b>When people tell me important things about the world, I usually believe them.",Highly disagree,106/150,Highly agree,4,1698242506760,1698242510486,\Highly agree\,\Highly agree\,\4\,1698242509804,1698242509804,3044,3044,3726,buq,qns-item-noham,106,496095,0.0-1.0-0.105
"<b>If a friend does something that upsets me, it reminds me what an unpredictable place the world is.",Highly disagree,107/150,Somewhat agree,3,1698242510489,1698242516516,\Somewhat agree\,\Somewhat agree\,\3\,1698242515198,1698242515198,4709,4709,6027,buq,qns-item-noham,107,502125,0.0-1.0-0.106
<b>Having some conflicting beliefs is inevitable.,Highly disagree,108/150,Highly agree,4,1698242516521,1698242519805,\Highly agree\,\Highly agree\,\4\,1698242519171,1698242519171,2650,2650,3284,buq,qns-item-noham,108,505413,0.0-1.0-0.107
<b>People are wrong because they haven?t thought much about things.,Highly disagree,109/150,Somewhat agree,3,1698242519808,1698242523885,\Somewhat agree\,\Somewhat agree\,\3\,1698242523386,1698242523386,3578,3578,4077,buq,qns-item-noham,109,509493,0.0-1.0-0.108
<b>People tend to believe whatever is good for their friends.,Highly disagree,110/150,Highly disagree,1,1698242523887,1698242528905,\Somewhat disagree\,\Highly disagree\,\2\,1698242527493,1698242528239,3606,4352,5018,buq,qns-item-noham,110,514513,0.0-1.0-0.109
"<b>When I talk about important topics, I try to make sure people know I?m not always right.",Highly disagree,111/150,Somewhat disagree,2,1698242528911,1698242532588,\Somewhat disagree\,\Somewhat disagree\,\2\,1698242531970,1698242531970,3059,3059,3677,buq,qns-item-noham,111,518196,0.0-1.0-0.110
<b>I used to be more certain my beliefs were true.,Highly disagree,112/150,Somewhat agree,3,1698242532590,1698242537323,\Somewhat disagree\,\Somewhat agree\,\2\,1698242536208,1698242536562,3618,3972,4733,buq,qns-item-noham,112,522931,0.0-1.0-0.111
<b>It?s often pretty easy to figure out whether something is true based on who said it.,Highly disagree,113/150,Somewhat agree,3,1698242537328,1698242541298,\Somewhat agree\,\Somewhat agree\,\3\,1698242540718,1698242540718,3390,3390,3970,buq,qns-item-noham,113,526906,0.0-1.0-0.112
<b>Having bad food in my favorite restaurant will make me think the restaurant is no longer good.,Highly disagree,114/150,Highly agree,4,1698242541300,1698242547488,\Highly agree\,\Highly agree\,\4\,1698242545921,1698242546944,4621,5644,6188,buq,qns-item-noham,114,533096,0.0-1.0-0.113
<b>I transform into a hummingbird every day.,Highly disagree,115/150,Highly disagree,1,1698242547493,1698242550644,\Highly disagree\,\Highly disagree\,\1\,1698242550001,1698242550001,2508,2508,3151,buq,qns-item-noham,115,536252,0.0-1.0-0.114
"<b>Unfortunately, when people are wrong, it?s usually because they?re bad.",Highly disagree,116/150,Somewhat disagree,2,1698242550647,1698242554522,\Somewhat disagree\,\Somewhat disagree\,\2\,1698242553921,1698242553921,3274,3274,3875,buq,qns-item-noham,116,540130,0.0-1.0-0.115
<b>I think a lot about arguments against my views.,Highly disagree,117/150,Somewhat agree,3,1698242554525,1698242557833,\Somewhat agree\,\Somewhat agree\,\3\,1698242557279,1698242557279,2754,2754,3308,buq,qns-item-noham,117,543441,0.0-1.0-0.116
<b>Details tend to matter a lot for knowing whether a policy is good.,Highly disagree,118/150,Somewhat agree,3,1698242557837,1698242561397,\Somewhat agree\,\Somewhat agree\,\3\,1698242560759,1698242560759,2922,2922,3560,buq,qns-item-noham,118,547005,0.0-1.0-0.117
<b>Personal experience is usually more important than facts and figures.,Highly disagree,119/150,Somewhat agree,3,1698242561399,1698242567840,\Highly agree\,\Somewhat agree\,\4\,1698242566581,1698242566958,5182,5559,6441,buq,qns-item-noham,119,553448,0.0-1.0-0.118
<b>I?ve been tricked before about important matters.,Highly disagree,120/150,Highly agree,4,1698242567844,1698242570489,\Highly agree\,\Highly agree\,\4\,1698242569893,1698242569893,2049,2049,2645,buq,qns-item-noham,120,556097,0.0-1.0-0.119
<b>I would need to be totally wowed if I were to change my opinion of a restaurant I don?t like.,Highly disagree,121/150,Highly agree,4,1698242570491,1698242576245,\Somewhat agree\,\Highly agree\,\3\,1698242574871,1698242575579,4380,5088,5754,buq,qns-item-noham,121,561854,0.0-1.0-0.120
<b>I care a lot about politics.,Highly disagree,122/150,Highly disagree,1,1698242576250,1698242578727,\Highly disagree\,\Highly disagree\,\1\,1698242578041,1698242578041,1791,1791,2477,buq,qns-item-noham,122,564335,0.0-1.0-0.121
<b>People with conflicting beliefs usually have some facts they disagree on.,Highly disagree,123/150,Somewhat agree,3,1698242578731,1698242581214,\Somewhat agree\,\Somewhat agree\,\3\,1698242580675,1698242580675,1944,1944,2483,buq,qns-item-noham,123,566822,0.0-1.0-0.122
<b>There are some topics I?ve been really wrong about.,Highly disagree,124/150,Somewhat agree,3,1698242581217,1698242584317,\Somewhat agree\,\Somewhat agree\,\3\,1698242583752,1698242583752,2535,2535,3100,buq,qns-item-noham,124,569925,0.0-1.0-0.123
<b>Most beliefs can be supported with at least some evidence.,Highly disagree,125/150,Highly agree,4,1698242584319,1698242587168,\Highly agree\,\Highly agree\,\4\,1698242586569,1698242586569,2250,2250,2849,buq,qns-item-noham,125,572776,0.0-1.0-0.124
<b>Other people make life out to be more complicated than it really is.,Highly disagree,126/150,Somewhat agree,3,1698242587170,1698242591386,\Somewhat agree\,\Somewhat agree\,\3\,1698242590727,1698242590727,3557,3557,4216,buq,qns-item-noham,126,576994,0.0-1.0-0.125
"<b>My political views are being shaped continuously as I gather more information, rather than relying on what I?ve known to be true of my party in the past. ",Highly disagree,127/150,Somewhat agree,3,1698242591389,1698242594735,\Somewhat agree\,\Somewhat agree\,\3\,1698242594201,1698242594201,2812,2812,3346,buq,qns-item-noham,127,580343,0.0-1.0-0.126
<b>It?s pretty unusual for true things to seem false.,Highly disagree,128/150,Somewhat disagree,2,1698242594737,1698242599630,\Somewhat agree\,\Somewhat disagree\,\3\,1698242598645,1698242599068,3908,4331,4893,buq,qns-item-noham,128,585238,0.0-1.0-0.127
"<b>Policy details don?t matter much, just the big picture.",Highly disagree,129/150,Highly agree,4,1698242599632,1698242603582,\Somewhat agree\,\Highly agree\,\3\,1698242601881,1698242602947,2249,3315,3950,buq,qns-item-noham,129,589190,0.0-1.0-0.128
<b>I know my friends so well they can hardly ever surprise me.,Highly disagree,130/150,Somewhat agree,3,1698242603586,1698242606519,\Somewhat agree\,\Somewhat agree\,\3\,1698242606003,1698242606003,2417,2417,2933,buq,qns-item-noham,130,592127,0.0-1.0-0.129
"<b>When I talk to people, I often think about why they have the beliefs they do.",Highly disagree,131/150,Somewhat agree,3,1698242606521,1698242610585,\Somewhat agree\,\Somewhat agree\,\3\,1698242610000,1698242610000,3479,3479,4064,buq,qns-item-noham,131,596193,0.0-1.0-0.130
<b>I do not often change my views on people.,Highly disagree,132/150,Somewhat disagree,2,1698242610587,1698242614416,\Highly disagree\,\Somewhat disagree\,\1\,1698242613071,1698242613899,2484,3312,3829,buq,qns-item-noham,132,600024,0.0-1.0-0.131
<b>I often wish I had more time to spend figuring out what?s true and what?s false in life.,Highly disagree,133/150,Somewhat agree,3,1698242614420,1698242617177,\Somewhat agree\,\Somewhat agree\,\3\,1698242616702,1698242616702,2282,2282,2757,buq,qns-item-noham,133,602785,0.0-1.0-0.132
<b>I?m more certain about my beliefs than I used to be.,Highly disagree,134/150,Somewhat agree,3,1698242617180,1698242620781,\Somewhat agree\,\Somewhat agree\,\3\,1698242620314,1698242620314,3134,3134,3601,buq,qns-item-noham,134,606389,0.0-1.0-0.133
"<b>Whenever I find out new information, I update my views on politics accordingly.",Highly disagree,135/150,Somewhat disagree,2,1698242620783,1698242624005,\Somewhat disagree\,\Somewhat disagree\,\2\,1698242623390,1698242623390,2607,2607,3222,buq,qns-item-noham,135,609613,0.0-1.0-0.134
<b>People often tell falsehoods unintentionally.,Highly disagree,136/150,Somewhat agree,3,1698242624008,1698242627653,\Somewhat agree\,\Somewhat agree\,\3\,1698242627152,1698242627152,3144,3144,3645,buq,qns-item-noham,136,613261,0.0-1.0-0.135
<b>Most people don?t know much about most things.,Highly disagree,137/150,Somewhat disagree,2,1698242627655,1698242631149,\Somewhat disagree\,\Somewhat disagree\,\2\,1698242630583,1698242630583,2928,2928,3494,buq,qns-item-noham,137,616757,0.0-1.0-0.136
"<b>If I find out something new about someone, I easily change my views about them.",Highly disagree,138/150,Somewhat agree,3,1698242631151,1698242634061,\Somewhat agree\,\Somewhat agree\,\3\,1698242633497,1698242633497,2346,2346,2910,buq,qns-item-noham,138,619669,0.0-1.0-0.137
<b>Having true beliefs is difficult.,Highly disagree,139/150,Somewhat disagree,2,1698242634063,1698242637059,\Somewhat disagree\,\Somewhat disagree\,\2\,1698242636578,1698242636578,2515,2515,2996,buq,qns-item-noham,139,622667,0.0-1.0-0.138
<b>I don?t try new foods since I know I won?t like them.,Highly disagree,140/150,Highly disagree,1,1698242637062,1698242642020,\Highly disagree\,\Highly disagree\,\1\,1698242641444,1698242641444,4382,4382,4958,buq,qns-item-noham,140,627628,0.0-1.0-0.139
<b>It?s easy to figure out what?s true or false based on who?s saying it.,Highly disagree,141/150,Somewhat disagree,2,1698242642023,1698242645062,\Somewhat disagree\,\Somewhat disagree\,\2\,1698242644327,1698242644327,2304,2304,3039,buq,qns-item-noham,141,630670,0.0-1.0-0.140
<b>False things have seemed true to me many times.,Highly disagree,142/150,Highly agree,4,1698242645066,1698242651388,\Somewhat agree\,\Highly agree\,\3\,1698242648774,1698242650848,3708,5782,6322,buq,qns-item-noham,142,636996,0.0-1.0-0.141
<b>It?s pretty easy to sort out what?s true and what?s false in life.,Highly disagree,143/150,Highly disagree,1,1698242651392,1698242654699,\Highly disagree\,\Highly disagree\,\1\,1698242654160,1698242654160,2768,2768,3307,buq,qns-item-noham,143,640307,0.0-1.0-0.142
<b>Knowing lots of statistics about something is usually important for understanding it.,Highly disagree,144/150,Somewhat agree,3,1698242654701,1698242656719,\Somewhat agree\,\Somewhat agree\,\3\,1698242656194,1698242656194,1493,1493,2018,buq,qns-item-noham,144,642327,0.0-1.0-0.143
<b>Other people trick each other a lot.,Highly disagree,145/150,Somewhat agree,3,1698242656721,1698242659491,\Somewhat agree\,\Somewhat agree\,\3\,1698242658958,1698242658958,2237,2237,2770,buq,qns-item-noham,145,645099,0.0-1.0-0.144
<b>I would need to learn a lot about a person for my opinion of them to be swayed.,Highly disagree,146/150,Somewhat agree,3,1698242659495,1698242662579,\Somewhat agree\,\Somewhat agree\,\3\,1698242662086,1698242662086,2591,2591,3084,buq,qns-item-noham,146,648187,0.0-1.0-0.145
<b>People can?t usually trick me when it comes to topics I care about.,Highly disagree,147/150,Somewhat agree,3,1698242662584,1698242664626,\Somewhat agree\,\Somewhat agree\,\3\,1698242663977,1698242663977,1393,1393,2042,buq,qns-item-noham,147,650234,0.0-1.0-0.146
<b>I do not often change my views on food.,Highly disagree,148/150,Highly disagree,1,1698242664629,1698242668482,\Highly disagree\,\Highly disagree\,\1\,1698242667953,1698242667953,3324,3324,3853,buq,qns-item-noham,148,654091,0.0-1.0-0.147
<b>Specific policies are often very important to me.,Highly disagree,149/150,Highly disagree,1,1698242668485,1698242672520,\Somewhat disagree\,\Highly disagree\,\2\,1698242671339,1698242671900,2854,3415,4035,buq,qns-item-noham,149,658128,0.0-1.0-0.148
<b>Most people are woefully under-informed.,Highly disagree,150/150,Somewhat agree,3,1698242672523,1698242677444,\Somewhat agree\,\Somewhat agree\,\3\,1698242675559,1698242675559,3036,3036,4921,buq,qns-item-noham,150,663052,0.0-1.0-0.149
