Question,qns_options,quest_num,answer,answer_num,question_load_timestamp,next_btn_timestamp,text_selected,final_text_selected,option_num_selected,preview_timestamps,final_text_selected_time_stamp,rt_first_option_click,rt_final_option_click,rt_submit_click,questionnaire,trial_type,trial_index,time_elapsed,internal_node_id
<b>Considering other people?s perspectives can help us figure out what?s true or false.,Highly disagree,1/150,Highly agree,4,1698241734125,1698241740076,\Highly agree\,\Highly agree\,\4\,1698241739109,1698241739109,4984,4984,5951,buq,qns-item-noham,1,11847,0.0-1.0-0.0
<b>Knowing what?s true and knowing what to do about it are usually basically the same.,Highly disagree,2/150,Somewhat disagree,2,1698241740083,1698241745460,\Somewhat disagree\,\Somewhat disagree\,\2\,1698241744769,1698241744769,4686,4686,5377,buq,qns-item-noham,2,17232,0.0-1.0-0.1
<b>Most people just believe whatever is convenient for them.,Highly disagree,3/150,Somewhat agree,3,1698241745464,1698241749953,\Somewhat agree\,\Somewhat agree\,\3\,1698241749036,1698241749036,3572,3572,4489,buq,qns-item-noham,3,21724,0.0-1.0-0.2
<b>Even people who are wrong about most things can be right sometimes.,Highly disagree,4/150,Highly agree,4,1698241749956,1698241757044,\Somewhat agree\,\Highly agree\,\3\,1698241755568,1698241755950,5612,5994,7088,buq,qns-item-noham,4,28815,0.0-1.0-0.3
"<b>If the political party I support does something that upsets me, then the party may have changed, and I need to re-evaluate my support.",Highly disagree,5/150,Highly agree,4,1698241757047,1698241762908,\Somewhat agree\,\Highly agree\,\3\,1698241760910,1698241761761,3863,4714,5861,buq,qns-item-noham,5,34680,0.0-1.0-0.4
"<b>When people disagree, one side is usually completely right.",Highly disagree,6/150,Highly disagree,1,1698241762911,1698241766410,\Somewhat disagree\,\Highly disagree\,\2\,1698241764969,1698241765641,2058,2730,3499,buq,qns-item-noham,6,38181,0.0-1.0-0.5
<b>People have lots of false beliefs.,Highly disagree,7/150,Highly agree,4,1698241766415,1698241768768,\Highly agree\,\Highly agree\,\4\,1698241768183,1698241768183,1768,1768,2353,buq,qns-item-noham,7,40540,0.0-1.0-0.6
<b>Having some big beliefs helps me sort out minor ones.,Highly disagree,8/150,Somewhat agree,3,1698241768771,1698241772819,\Somewhat disagree\,\Somewhat agree\,\2\,1698241770576,1698241772091,1805,3320,4048,buq,qns-item-noham,8,44591,0.0-1.0-0.7
<b>Political questions are usually pretty complicated.,Highly disagree,9/150,Highly agree,4,1698241772822,1698241775875,\Highly agree\,\Highly agree\,\4\,1698241774865,1698241775125,2043,2303,3053,buq,qns-item-noham,9,47646,0.0-1.0-0.8
<b>Figuring out what?s important in life requires learning a lot of facts.,Highly disagree,10/150,Somewhat agree,3,1698241775878,1698241778694,\Somewhat agree\,\Somewhat agree\,\3\,1698241777837,1698241777837,1959,1959,2816,buq,qns-item-noham,10,50465,0.0-1.0-0.9
<b>It is difficult for me to remember the last time I was surprised by politics.,Highly disagree,11/150,Somewhat disagree,2,1698241778696,1698241781808,\Somewhat disagree\,\Somewhat disagree\,\2\,1698241781204,1698241781204,2508,2508,3112,buq,qns-item-noham,11,53580,0.0-1.0-0.10
<b>People?s false beliefs are understandable.,Highly disagree,12/150,Highly agree,4,1698241781811,1698241784310,\Highly agree\,\Highly agree\,\4\,1698241783553,1698241783553,1742,1742,2499,buq,qns-item-noham,12,56081,0.0-1.0-0.11
<b>I spend a lot of time trying to be informed about politics.,Highly disagree,13/150,Somewhat disagree,2,1698241784314,1698241786962,\Somewhat agree\,\Somewhat disagree\,\3\,1698241785553,1698241786199,1239,1885,2648,buq,qns-item-noham,13,58733,0.0-1.0-0.12
<b>I think a lot about whether my beliefs are right.,Highly disagree,14/150,Somewhat agree,3,1698241786965,1698241788931,\Somewhat agree\,\Somewhat agree\,\3\,1698241788377,1698241788377,1412,1412,1966,buq,qns-item-noham,14,60702,0.0-1.0-0.13
<b>Statistics can be pretty misleading sometimes.,Highly disagree,15/150,Highly agree,4,1698241788933,1698241791280,\Highly agree\,\Highly agree\,\4\,1698241790472,1698241790472,1539,1539,2347,buq,qns-item-noham,15,63051,0.0-1.0-0.14
<b>Figuring out what?s true and what?s false takes a lot of time and effort.,Highly disagree,16/150,Somewhat agree,3,1698241791283,1698241793843,\Somewhat agree\,\Somewhat agree\,\3\,1698241793006,1698241793006,1723,1723,2560,buq,qns-item-noham,16,65614,0.0-1.0-0.15
"<b>If a friend does something bad to me, it was likely an error on their part.",Highly disagree,17/150,Somewhat agree,3,1698241793846,1698241797390,\Somewhat disagree\,\Somewhat agree\,\2\,1698241796462,1698241796802,2616,2956,3544,buq,qns-item-noham,17,69161,0.0-1.0-0.16
<b>I have lots of beliefs that I?m only sort of sure about.,Highly disagree,18/150,Highly agree,4,1698241797393,1698241800061,\Highly agree\,\Highly agree\,\4\,1698241799413,1698241799413,2020,2020,2668,buq,qns-item-noham,18,71832,0.0-1.0-0.17
"<b>If I go to my favorite restaurant and the food is surprisingly bad, it reminds me there are many disappointments in life.",Highly disagree,19/150,Somewhat disagree,2,1698241800064,1698241807502,\Somewhat disagree\,\Somewhat disagree\,\2\,1698241806702,1698241806702,6638,6638,7438,buq,qns-item-noham,19,79273,0.0-1.0-0.18
<b>Sometimes my beliefs are inconvenient for me.,Highly disagree,20/150,Somewhat agree,3,1698241807505,1698241810185,\Somewhat agree\,\Somewhat agree\,\3\,1698241809236,1698241809236,1731,1731,2680,buq,qns-item-noham,20,81956,0.0-1.0-0.19
<b>Paying attention to multiple news sources is important.,Highly disagree,21/150,Highly agree,4,1698241810188,1698241812657,\Highly agree\,\Highly agree\,\4\,1698241812003,1698241812003,1815,1815,2469,buq,qns-item-noham,21,84428,0.0-1.0-0.20
"<b>If you are paying attention, please select ?Somewhat agree?",Highly disagree,22/150,Somewhat agree,3,1698241812659,1698241816664,\Somewhat agree\,\Somewhat agree\,\3\,1698241815894,1698241815894,3235,3235,4005,buq,qns-item-noham,22,88435,0.0-1.0-0.21
"<b>When I talk to others, I often worry I?ll convince them of something I didn?t mean to.",Highly disagree,23/150,Highly disagree,1,1698241816666,1698241821223,\Highly disagree\,\Highly disagree\,\1\,1698241820640,1698241820640,3974,3974,4557,buq,qns-item-noham,23,92995,0.0-1.0-0.22
<b>I would need to learn something utterly shocking about my party in order to change my political views.,Highly disagree,24/150,Somewhat disagree,2,1698241821227,1698241825056,\Somewhat disagree\,\Somewhat disagree\,\2\,1698241823916,1698241823916,2689,2689,3829,buq,qns-item-noham,24,96827,0.0-1.0-0.23
"<b>When I have new experiences, I tend to think of them as unique.",Highly disagree,25/150,Somewhat agree,3,1698241825059,1698241827601,\Somewhat agree\,\Somewhat agree\,\3\,1698241826895,1698241826895,1836,1836,2542,buq,qns-item-noham,25,99372,0.0-1.0-0.24
<b>Reading lots of things is important for understanding the world.,Highly disagree,26/150,Highly agree,4,1698241827603,1698241830233,\Highly agree\,\Highly agree\,\4\,1698241829577,1698241829577,1974,1974,2630,buq,qns-item-noham,26,102004,0.0-1.0-0.25
<b>The world is complicated.,Highly disagree,27/150,Highly agree,4,1698241830236,1698241832291,\Highly agree\,\Highly agree\,\4\,1698241831737,1698241831737,1501,1501,2055,buq,qns-item-noham,27,104062,0.0-1.0-0.26
<b>I change my mind about specific policies pretty frequently.,Highly disagree,28/150,Somewhat disagree,2,1698241832294,1698241836122,\Somewhat disagree\,\Somewhat disagree\,\2\,1698241835632,1698241835632,3338,3338,3828,buq,qns-item-noham,28,107893,0.0-1.0-0.27
"<b>If a politician in my political party supports something I disagree with, I give them the benefit of the doubt, as such issues often involve hidden complexities that aren?t obvious.   ",Highly disagree,29/150,Somewhat disagree,2,1698241836125,1698241840470,\Somewhat disagree\,\Somewhat disagree\,\2\,1698241839582,1698241839582,3457,3457,4345,buq,qns-item-noham,29,112241,0.0-1.0-0.28
<b>People?s bad politics are usually motivated by hatefulness.,Highly disagree,30/150,Somewhat disagree,2,1698241840473,1698241843781,\Somewhat agree\,\Somewhat disagree\,\3\,1698241842207,1698241843260,1734,2787,3308,buq,qns-item-noham,30,115552,0.0-1.0-0.29
"<b>Most new experiences are just like old ones, but a little bit different.",Highly disagree,31/150,Somewhat disagree,2,1698241843785,1698241847498,\Somewhat agree\,\Somewhat disagree\,\3\,1698241846209,1698241847039,2424,3254,3713,buq,qns-item-noham,31,119269,0.0-1.0-0.30
<b>I think a lot about how to reconcile my beliefs with one another.,Highly disagree,32/150,Somewhat agree,3,1698241847501,1698241849826,\Somewhat agree\,\Somewhat agree\,\3\,1698241849244,1698241849244,1743,1743,2325,buq,qns-item-noham,32,121598,0.0-1.0-0.31
<b>Personal experience rarely leads people astray.,Highly disagree,33/150,Highly disagree,1,1698241849829,1698241852804,\Highly disagree\,\Highly disagree\,\1\,1698241852119,1698241852119,2290,2290,2975,buq,qns-item-noham,33,124575,0.0-1.0-0.32
<b>I might have false beliefs about important topics.,Highly disagree,34/150,Somewhat agree,3,1698241852808,1698241855722,\Somewhat agree\,\Somewhat agree\,\3\,1698241854514,1698241854514,1706,1706,2914,buq,qns-item-noham,34,127493,0.0-1.0-0.33
"<b>If a good friend of mine does something unexpected that upsets me, I feel like I don?t know them anymore.",Highly disagree,35/150,Somewhat agree,3,1698241855725,1698241860911,\Somewhat disagree\,\Somewhat agree\,\2\,1698241859865,1698241860248,4140,4523,5186,buq,qns-item-noham,35,132682,0.0-1.0-0.34
<b>Other people?s beliefs are often incoherent.,Highly disagree,36/150,Highly disagree,1,1698241860916,1698241864069,\Somewhat disagree\,\Highly disagree\,\2\,1698241862906,1698241863340,1990,2424,3153,buq,qns-item-noham,36,135840,0.0-1.0-0.35
<b>It?s important to have friends who think about things differently than I do.,Highly disagree,37/150,Somewhat agree,3,1698241864073,1698241867040,\Somewhat agree\,\Somewhat agree\,\3\,1698241865655,1698241865655,1582,1582,2967,buq,qns-item-noham,37,138811,0.0-1.0-0.36
"<b>Every now and then, a new experience will unsettle beliefs I?ve had for a while.",Highly disagree,38/150,Somewhat disagree,2,1698241867044,1698241870199,\Somewhat disagree\,\Somewhat disagree\,\2\,1698241869599,1698241869599,2555,2555,3155,buq,qns-item-noham,38,141970,0.0-1.0-0.37
<b>Some policies I agree with in principle are so bad I don?t support them. ,Highly disagree,39/150,Highly disagree,1,1698241870203,1698241874884,\Highly disagree\,\Highly disagree\,\1\,1698241873006,1698241873006,2803,2803,4681,buq,qns-item-noham,39,146656,0.0-1.0-0.38
<b>I?m pretty sure I?ve accidentally spread false information.,Highly disagree,40/150,Somewhat disagree,2,1698241874889,1698241878819,\Somewhat disagree\,\Somewhat disagree\,\2\,1698241877118,1698241877118,2229,2229,3930,buq,qns-item-noham,40,150590,0.0-1.0-0.39
"<b>If I go to my favorite restaurant and the food is unexpectedly bad, then they have changed owners.",Highly disagree,41/150,Somewhat disagree,2,1698241878824,1698241882555,\Somewhat disagree\,\Somewhat disagree\,\2\,1698241881972,1698241881972,3148,3148,3731,buq,qns-item-noham,41,154326,0.0-1.0-0.40
"<b>In politics, it?s important to trust your friends and family.",Highly disagree,42/150,Somewhat disagree,2,1698241882558,1698241885411,\Somewhat agree\,\Somewhat disagree\,\3\,1698241884173,1698241884688,1615,2130,2853,buq,qns-item-noham,42,157182,0.0-1.0-0.41
<b>It?s OK to have some conflicting beliefs.,Highly disagree,43/150,Somewhat agree,3,1698241885413,1698241887680,\Somewhat agree\,\Somewhat agree\,\3\,1698241887082,1698241887082,1669,1669,2267,buq,qns-item-noham,43,159451,0.0-1.0-0.42
<b>Sometimes the details of a matter seem to conflict with the big picture.,Highly disagree,44/150,Highly agree,4,1698241887682,1698241891075,\Highly agree\,\Highly agree\,\4\,1698241890453,1698241890453,2771,2771,3393,buq,qns-item-noham,44,162846,0.0-1.0-0.43
<b>Listening to people I disagree with makes my opinions better.,Highly disagree,45/150,Somewhat agree,3,1698241891077,1698241893390,\Somewhat agree\,\Somewhat agree\,\3\,1698241892792,1698241892792,1715,1715,2313,buq,qns-item-noham,45,165161,0.0-1.0-0.44
<b>Policies that sound bad are sometimes fine when you find out about their details.,Highly disagree,46/150,Somewhat disagree,2,1698241893392,1698241898408,\Somewhat disagree\,\Somewhat disagree\,\2\,1698241897868,1698241897868,4476,4476,5016,buq,qns-item-noham,46,170179,0.0-1.0-0.45
"<b>The world is always changing, so my beliefs are sometimes out-dated.",Highly disagree,47/150,Highly agree,4,1698241898410,1698241900782,\Highly agree\,\Highly agree\,\4\,1698241900105,1698241900105,1695,1695,2372,buq,qns-item-noham,47,172553,0.0-1.0-0.46
"<b>If I receive a bad meal at my favorite restaurant and the food is surprisingly bad, I do not think much of it, and assume the chef is just having an ?off? day.",Highly disagree,48/150,Highly agree,4,1698241900786,1698241904739,\Highly agree\,\Highly agree\,\4\,1698241903615,1698241903615,2829,2829,3953,buq,qns-item-noham,48,176510,0.0-1.0-0.47
"<b>False information is unavoidable, to some extent.",Highly disagree,49/150,Somewhat agree,3,1698241904742,1698241909113,\Somewhat agree\,\Somewhat agree\,\3\,1698241907714,1698241907714,2972,2972,4371,buq,qns-item-noham,49,180884,0.0-1.0-0.48
<b>My moral compass sometimes makes it harder to determine what?s true.,Highly disagree,50/150,Highly agree,4,1698241909117,1698241911914,\Highly agree\,\Highly agree\,\4\,1698241911304,1698241911304,2187,2187,2797,buq,qns-item-noham,50,183685,0.0-1.0-0.49
"<b>When you disagree with someone, it?s important to listen to them carefully.",Highly disagree,51/150,Somewhat agree,3,1698241911916,1698241914135,\Somewhat agree\,\Somewhat agree\,\3\,1698241913495,1698241913495,1579,1579,2219,buq,qns-item-noham,51,185906,0.0-1.0-0.50
<b>Evidence pointing in the wrong direction isn?t really evidence at all.,Highly disagree,52/150,Somewhat disagree,2,1698241914138,1698241917189,\Somewhat disagree\,\Somewhat disagree\,\2\,1698241916695,1698241916695,2557,2557,3051,buq,qns-item-noham,52,188960,0.0-1.0-0.51
"<b>If the political party I support messes up, it makes me think politics is rotten.",Highly disagree,53/150,Highly agree,4,1698241917191,1698241921181,\Highly agree\,\Highly agree\,\4\,1698241920625,1698241920625,3434,3434,3990,buq,qns-item-noham,53,192952,0.0-1.0-0.52
<b>Lots of important topics can only really be understood by some groups of people.,Highly disagree,54/150,Somewhat disagree,2,1698241921183,1698241925997,\Somewhat agree\,\Somewhat disagree\,\3\,1698241924134,1698241924881,2951,3698,4814,buq,qns-item-noham,54,197768,0.0-1.0-0.53
<b>Details almost always matter for being right about something.,Highly disagree,55/150,Somewhat agree,3,1698241926001,1698241931131,\Somewhat agree\,\Somewhat agree\,\3\,1698241930583,1698241930583,4582,4582,5130,buq,qns-item-noham,55,202902,0.0-1.0-0.54
"<b>The most important thing in politics is winning, not convincing people.",Highly disagree,56/150,Somewhat disagree,2,1698241931133,1698241935492,\Somewhat disagree\,\Somewhat disagree\,\2\,1698241934924,1698241934924,3791,3791,4359,buq,qns-item-noham,56,207263,0.0-1.0-0.55
<b>Having conflicting beliefs means you haven?t thought about them enough.,Highly disagree,57/150,Highly disagree,1,1698241935495,1698241938629,\Highly disagree\,\Highly disagree\,\1\,1698241938060,1698241938060,2565,2565,3134,buq,qns-item-noham,57,210400,0.0-1.0-0.56
<b>Other people have sometimes convinced me to change my mind on important topics.,Highly disagree,58/150,Somewhat disagree,2,1698241938631,1698241942457,\Somewhat disagree\,\Somewhat disagree\,\2\,1698241941606,1698241941606,2975,2975,3826,buq,qns-item-noham,58,214228,0.0-1.0-0.57
<b>I do not often change my political opinions.,Highly disagree,59/150,Somewhat agree,3,1698241942459,1698241944714,\Somewhat agree\,\Somewhat agree\,\3\,1698241944186,1698241944186,1727,1727,2255,buq,qns-item-noham,59,216485,0.0-1.0-0.58
<b>Thinking about how different things relate to one another is critical in life.,Highly disagree,60/150,Highly agree,4,1698241944716,1698241947693,\Highly agree\,\Highly agree\,\4\,1698241946843,1698241946843,2127,2127,2977,buq,qns-item-noham,60,219464,0.0-1.0-0.59
<b>True beliefs can have unfortunate implications.,Highly disagree,61/150,Somewhat agree,3,1698241947695,1698241953469,\Somewhat agree\,\Somewhat agree\,\3\,1698241952127,1698241952127,4432,4432,5774,buq,qns-item-noham,61,225240,0.0-1.0-0.60
<b>It?s difficult to not have at least some conflicting beliefs.,Highly disagree,62/150,Highly agree,4,1698241953471,1698241959539,\Highly agree\,\Highly agree\,\4\,1698241958984,1698241958984,5513,5513,6068,buq,qns-item-noham,62,231310,0.0-1.0-0.61
"<b>When I learn new things, I think deeply about how my opinions should change.",Highly disagree,63/150,Somewhat agree,3,1698241959542,1698241961538,\Somewhat agree\,\Somewhat agree\,\3\,1698241961000,1698241961000,1458,1458,1996,buq,qns-item-noham,63,233309,0.0-1.0-0.62
<b>I think a lot about how to interpret different sorts of evidence.,Highly disagree,64/150,Highly agree,4,1698241961541,1698241964638,\Highly agree\,\Highly agree\,\4\,1698241963821,1698241963821,2280,2280,3097,buq,qns-item-noham,64,236409,0.0-1.0-0.63
<b>Politics is about thinking together and finding compromises.,Highly disagree,65/150,Somewhat agree,3,1698241964641,1698241969330,\Somewhat agree\,\Somewhat agree\,\3\,1698241968826,1698241968826,4185,4185,4689,buq,qns-item-noham,65,241101,0.0-1.0-0.64
<b>Wishful thinking causes a lot of problems.,Highly disagree,66/150,Highly disagree,1,1698241969332,1698241972091,\Highly disagree\,\Highly disagree\,\1\,1698241971479,1698241971479,2147,2147,2759,buq,qns-item-noham,66,243862,0.0-1.0-0.65
<b>I judge a food item only once I try it many times.,Highly disagree,67/150,Somewhat disagree,2,1698241972094,1698241977461,\Somewhat disagree\,\Somewhat disagree\,\2\,1698241976919,1698241976919,4825,4825,5367,buq,qns-item-noham,67,249232,0.0-1.0-0.66
"<b>When a person holds conflicting beliefs, they should really try to figure out what?s wrong.",Highly disagree,68/150,Somewhat disagree,2,1698241977464,1698241982704,\Somewhat disagree\,\Somewhat disagree\,\2\,1698241981148,1698241981148,3684,3684,5240,buq,qns-item-noham,68,254476,0.0-1.0-0.67
<b>Knowing what?s important in life is easy.,Highly disagree,69/150,Highly disagree,1,1698241982709,1698241986035,\Highly agree\,\Highly disagree\,\4\,1698241984397,1698241985501,1688,2792,3326,buq,qns-item-noham,69,257806,0.0-1.0-0.68
<b>Lots of smart people disagree about basic political questions.,Highly disagree,70/150,Somewhat agree,3,1698241986038,1698241988191,\Somewhat agree\,\Somewhat agree\,\3\,1698241987629,1698241987629,1591,1591,2153,buq,qns-item-noham,70,259962,0.0-1.0-0.69
<b>I swim across the Atlantic Ocean to get to work every day.,Highly disagree,71/150,Highly disagree,1,1698241988193,1698241990889,\Highly disagree\,\Highly disagree\,\1\,1698241990099,1698241990099,1906,1906,2696,buq,qns-item-noham,71,262660,0.0-1.0-0.70
"<b>Sometimes, you just have to ignore evidence that you know is wrong.",Highly disagree,72/150,Somewhat agree,3,1698241990891,1698241996547,\Somewhat agree\,\Somewhat agree\,\3\,1698241995300,1698241995300,4409,4409,5656,buq,qns-item-noham,72,268318,0.0-1.0-0.71
<b>I have had some false beliefs.,Highly disagree,73/150,Somewhat agree,3,1698241996551,1698241999179,\Somewhat agree\,\Somewhat agree\,\3\,1698241998599,1698241998599,2048,2048,2628,buq,qns-item-noham,73,270950,0.0-1.0-0.72
"<b>If one friend does something that upsets me, I sometimes start to distrust people in general.",Highly disagree,74/150,Highly disagree,1,1698241999181,1698242002812,\Highly disagree\,\Highly disagree\,\1\,1698242002199,1698242002199,3018,3018,3631,buq,qns-item-noham,74,274583,0.0-1.0-0.73
<b>I easily apply what I learn in one situation to another.,Highly disagree,75/150,Somewhat agree,3,1698242002814,1698242006027,\Somewhat agree\,\Somewhat agree\,\3\,1698242005474,1698242005474,2660,2660,3213,buq,qns-item-noham,75,277798,0.0-1.0-0.74
<b>The facts about most important matters are easy to find.,Highly disagree,76/150,Somewhat disagree,2,1698242006029,1698242009820,\Somewhat disagree\,\Somewhat disagree\,\2\,1698242009289,1698242009289,3260,3260,3791,buq,qns-item-noham,76,281591,0.0-1.0-0.75
<b>It?s better to know what?s true than to know what?s moral.,Highly disagree,77/150,Highly agree,4,1698242009823,1698242012958,\Highly agree\,\Highly agree\,\4\,1698242011646,1698242011646,1823,1823,3135,buq,qns-item-noham,77,284729,0.0-1.0-0.76
<b>It?s good to be skeptical of people you agree with.,Highly disagree,78/150,Somewhat disagree,2,1698242012960,1698242016018,\Somewhat agree\,\Somewhat disagree\,\3\,1698242014706,1698242015423,1746,2463,3058,buq,qns-item-noham,78,287789,0.0-1.0-0.77
<b>Sometimes reasonable beliefs are wrong.,Highly disagree,79/150,Somewhat agree,3,1698242016022,1698242018819,\Highly agree\,\Somewhat agree\,\4\,1698242017684,1698242018191,1662,2169,2797,buq,qns-item-noham,79,290590,0.0-1.0-0.78
<b>I used to think the world was less complicated than I do now.,Highly disagree,80/150,Highly agree,4,1698242018823,1698242024965,\Highly agree\,\Highly agree\,\4\,1698242023859,1698242023859,5036,5036,6142,buq,qns-item-noham,80,296736,0.0-1.0-0.79
<b>People are usually completely right or completely wrong.,Highly disagree,81/150,Highly disagree,1,1698242024968,1698242027774,\Highly disagree\,\Highly disagree\,\1\,1698242027234,1698242027234,2266,2266,2806,buq,qns-item-noham,81,299545,0.0-1.0-0.80
<b>I spend a lot of time considering alternatives to my beliefs.,Highly disagree,82/150,Somewhat agree,3,1698242027777,1698242030758,\Somewhat agree\,\Somewhat agree\,\3\,1698242029187,1698242029187,1410,1410,2981,buq,qns-item-noham,82,302529,0.0-1.0-0.81
"<b>Political enemies need to be defeated, not convinced.",Highly disagree,83/150,Highly disagree,1,1698242030763,1698242034569,\Somewhat disagree\,\Highly disagree\,\2\,1698242033384,1698242034024,2621,3261,3806,buq,qns-item-noham,83,306340,0.0-1.0-0.82
"<b>When forming an opinion about a restaurant, I am more swayed by my  latest meal there than  previous meals I?ve had there.",Highly disagree,84/150,Somewhat agree,3,1698242034573,1698242038620,\Somewhat agree\,\Somewhat agree\,\3\,1698242037543,1698242037543,2970,2970,4047,buq,qns-item-noham,84,310391,0.0-1.0-0.83
<b>I try to remain skeptical about most topics.,Highly disagree,85/150,Somewhat disagree,2,1698242038622,1698242041532,\Somewhat disagree\,\Somewhat disagree\,\2\,1698242040979,1698242040979,2357,2357,2910,buq,qns-item-noham,85,313303,0.0-1.0-0.84
<b>Being wrong is usually obvious in retrospect.,Highly disagree,86/150,Somewhat agree,3,1698242041535,1698242045361,\Somewhat agree\,\Somewhat agree\,\3\,1698242044564,1698242044564,3029,3029,3826,buq,qns-item-noham,86,317132,0.0-1.0-0.85
<b>It can be hard to realize that my beliefs are in conflict.,Highly disagree,87/150,Somewhat agree,3,1698242045364,1698242049235,\Somewhat agree\,\Somewhat agree\,\3\,1698242048230,1698242048230,2866,2866,3871,buq,qns-item-noham,87,321006,0.0-1.0-0.86
<b>I form my political views only after meticulously gathering historical and present information about their policies.,Highly disagree,88/150,Somewhat agree,3,1698242049237,1698242073382,\Somewhat agree\,\Somewhat agree\,\3\,1698242072495,1698242072495,23258,23258,24145,buq,qns-item-noham,88,345153,0.0-1.0-0.87
<b>Skeptical people are usually just bad-tempered.,Highly disagree,89/150,Highly disagree,1,1698242073385,1698242077078,\Highly disagree\,\Highly disagree\,\1\,1698242076446,1698242076446,3061,3061,3693,buq,qns-item-noham,89,348849,0.0-1.0-0.88
<b>It is difficult for me to remember the last time I was surprised by politics.,Highly disagree,90/150,Somewhat agree,3,1698242077081,1698242080107,\Somewhat agree\,\Somewhat agree\,\3\,1698242079510,1698242079660,2429,2579,3026,buq,qns-item-noham,90,351878,0.0-1.0-0.89
"<b>When I find out I?m wrong, I think a lot about my related beliefs.",Highly disagree,91/150,Somewhat agree,3,1698242080109,1698242082646,\Somewhat agree\,\Somewhat agree\,\3\,1698242082037,1698242082037,1928,1928,2537,buq,qns-item-noham,91,354417,0.0-1.0-0.90
"<b>If the political party I support messes up, it makes me think you can?t trust anyone these days",Highly disagree,92/150,Highly agree,4,1698242082648,1698242086231,\Highly agree\,\Highly agree\,\4\,1698242085698,1698242085698,3050,3050,3583,buq,qns-item-noham,92,358002,0.0-1.0-0.91
<b>People?s brains turn off when they talk about politics.,Highly disagree,93/150,Highly agree,4,1698242086235,1698242089869,\Highly agree\,\Highly agree\,\4\,1698242089274,1698242089274,3039,3039,3634,buq,qns-item-noham,93,361640,0.0-1.0-0.92
<b>People who are wrong are usually just ignoring the obvious.,Highly disagree,94/150,Somewhat agree,3,1698242089872,1698242093510,\Somewhat agree\,\Somewhat agree\,\3\,1698242092804,1698242092804,2932,2932,3638,buq,qns-item-noham,94,365281,0.0-1.0-0.93
"<b>The world isn?t that complicated, but it?s still hard to figure out how it works.",Highly disagree,95/150,Highly agree,4,1698242093512,1698242096539,\Highly agree\,\Highly agree\,\4\,1698242095789,1698242095789,2277,2277,3027,buq,qns-item-noham,95,368310,0.0-1.0-0.94
"<b>When forming my views on people, I rely more on what they are like now rather than rely on my past experience with them.",Highly disagree,96/150,Somewhat agree,3,1698242096543,1698242103563,\Somewhat agree\,\Somewhat agree\,\3\,1698242101521,1698242101521,4978,4978,7020,buq,qns-item-noham,96,375334,0.0-1.0-0.95
"<b>When people contradict my beliefs, I usually know about their evidence already.",Highly disagree,97/150,Somewhat disagree,2,1698242103568,1698242107497,\Somewhat disagree\,\Somewhat disagree\,\2\,1698242106361,1698242106361,2793,2793,3929,buq,qns-item-noham,97,379268,0.0-1.0-0.96
<b>Being wrong is a matter of degree.,Highly disagree,98/150,Somewhat agree,3,1698242107499,1698242110436,\Somewhat agree\,\Somewhat agree\,\3\,1698242109886,1698242109886,2387,2387,2937,buq,qns-item-noham,98,382207,0.0-1.0-0.97
<b>Figuring out what?s true and what?s false mainly requires a strong moral compass.,Highly disagree,99/150,Highly agree,4,1698242110439,1698242113872,\Highly agree\,\Highly agree\,\4\,1698242113303,1698242113303,2864,2864,3433,buq,qns-item-noham,99,385643,0.0-1.0-0.98
<b>Most of the beliefs people have are at least somewhat understandable.,Highly disagree,100/150,Somewhat agree,3,1698242113874,1698242117607,\Somewhat agree\,\Somewhat agree\,\3\,1698242116556,1698242116556,2682,2682,3733,buq,qns-item-noham,100,389378,0.0-1.0-0.99
"<b>Usually I?m wrong about simple things, not complicated ones.",Highly disagree,101/150,Somewhat disagree,2,1698242117609,1698242120615,\Somewhat disagree\,\Somewhat disagree\,\2\,1698242119687,1698242119687,2078,2078,3006,buq,qns-item-noham,101,392386,0.0-1.0-0.100
<b>Getting all the information I want about important things is hard.,Highly disagree,102/150,Somewhat agree,3,1698242120618,1698242123350,\Somewhat agree\,\Somewhat agree\,\3\,1698242122165,1698242122165,1547,1547,2732,buq,qns-item-noham,102,395121,0.0-1.0-0.101
<b>Most false beliefs spread because people try to deceive one another.,Highly disagree,103/150,Somewhat agree,3,1698242123352,1698242127116,\Somewhat agree\,\Somewhat agree\,\3\,1698242126015,1698242126015,2663,2663,3764,buq,qns-item-noham,103,398887,0.0-1.0-0.102
<b>I can usually find something to agree with in most people?s beliefs.,Highly disagree,104/150,Highly agree,4,1698242127118,1698242130801,\Highly agree\,\Highly agree\,\4\,1698242129807,1698242129807,2689,2689,3683,buq,qns-item-noham,104,402573,0.0-1.0-0.103
<b>I only form my views of people once I get to know them very well.,Highly disagree,105/150,Somewhat disagree,2,1698242130805,1698242135904,\Somewhat agree\,\Somewhat disagree\,\3\,1698242134406,1698242135186,3601,4381,5099,buq,qns-item-noham,105,407675,0.0-1.0-0.104
"<b>When people tell me important things about the world, I usually believe them.",Highly disagree,106/150,Somewhat disagree,2,1698242135908,1698242140063,\Somewhat agree\,\Somewhat disagree\,\3\,1698242138472,1698242139409,2564,3501,4155,buq,qns-item-noham,106,411834,0.0-1.0-0.105
"<b>If a friend does something that upsets me, it reminds me what an unpredictable place the world is.",Highly disagree,107/150,Somewhat agree,3,1698242140067,1698242142755,\Somewhat agree\,\Somewhat agree\,\3\,1698242142165,1698242142165,2098,2098,2688,buq,qns-item-noham,107,414526,0.0-1.0-0.106
<b>Having some conflicting beliefs is inevitable.,Highly disagree,108/150,Somewhat agree,3,1698242142758,1698242146388,\Somewhat agree\,\Somewhat agree\,\3\,1698242145805,1698242145805,3047,3047,3630,buq,qns-item-noham,108,418159,0.0-1.0-0.107
<b>People are wrong because they haven?t thought much about things.,Highly disagree,109/150,Somewhat disagree,2,1698242146391,1698242149720,\Somewhat disagree\,\Somewhat disagree\,\2\,1698242148652,1698242148652,2261,2261,3329,buq,qns-item-noham,109,421491,0.0-1.0-0.108
<b>People tend to believe whatever is good for their friends.,Highly disagree,110/150,Somewhat agree,3,1698242149722,1698242153598,\Somewhat agree\,\Somewhat agree\,\3\,1698242152398,1698242152398,2676,2676,3876,buq,qns-item-noham,110,425370,0.0-1.0-0.109
"<b>When I talk about important topics, I try to make sure people know I?m not always right.",Highly disagree,111/150,Highly agree,4,1698242153601,1698242158275,\Highly agree\,\Highly agree\,\4\,1698242157555,1698242157555,3954,3954,4674,buq,qns-item-noham,111,430046,0.0-1.0-0.110
<b>I used to be more certain my beliefs were true.,Highly disagree,112/150,Highly agree,4,1698242158277,1698242161210,\Highly agree\,\Highly agree\,\4\,1698242160162,1698242160162,1885,1885,2933,buq,qns-item-noham,112,432981,0.0-1.0-0.111
<b>It?s often pretty easy to figure out whether something is true based on who said it.,Highly disagree,113/150,Somewhat disagree,2,1698242161213,1698242164858,\Somewhat disagree\,\Somewhat disagree\,\2\,1698242163740,1698242163740,2527,2527,3645,buq,qns-item-noham,113,436629,0.0-1.0-0.112
<b>Having bad food in my favorite restaurant will make me think the restaurant is no longer good.,Highly disagree,114/150,Somewhat agree,3,1698242164860,1698242170931,\Somewhat disagree\,\Somewhat agree\,\2\,1698242168298,1698242170237,3438,5377,6071,buq,qns-item-noham,114,442702,0.0-1.0-0.113
<b>I transform into a hummingbird every day.,Highly disagree,115/150,Highly disagree,1,1698242170936,1698242175138,\Highly disagree\,\Highly disagree\,\1\,1698242174418,1698242174418,3482,3482,4202,buq,qns-item-noham,115,446909,0.0-1.0-0.114
"<b>Unfortunately, when people are wrong, it?s usually because they?re bad.",Highly disagree,116/150,Somewhat disagree,2,1698242175141,1698242179935,\Somewhat disagree\,\Somewhat disagree\,\2\,1698242179213,1698242179213,4072,4072,4794,buq,qns-item-noham,116,451706,0.0-1.0-0.115
<b>I think a lot about arguments against my views.,Highly disagree,117/150,Somewhat agree,3,1698242179939,1698242182204,\Somewhat agree\,\Somewhat agree\,\3\,1698242181439,1698242181439,1500,1500,2265,buq,qns-item-noham,117,453975,0.0-1.0-0.116
<b>Details tend to matter a lot for knowing whether a policy is good.,Highly disagree,118/150,Somewhat agree,3,1698242182208,1698242184374,\Somewhat agree\,\Somewhat agree\,\3\,1698242183661,1698242183661,1453,1453,2166,buq,qns-item-noham,118,456145,0.0-1.0-0.117
<b>Personal experience is usually more important than facts and figures.,Highly disagree,119/150,Highly agree,4,1698242184376,1698242188168,\Highly agree\,\Highly agree\,\4\,1698242186100,1698242186100,1724,1724,3792,buq,qns-item-noham,119,459939,0.0-1.0-0.118
<b>I?ve been tricked before about important matters.,Highly disagree,120/150,Somewhat agree,3,1698242188171,1698242190971,\Somewhat agree\,\Somewhat agree\,\3\,1698242189970,1698242189970,1799,1799,2800,buq,qns-item-noham,120,462742,0.0-1.0-0.119
<b>I would need to be totally wowed if I were to change my opinion of a restaurant I don?t like.,Highly disagree,121/150,Highly agree,4,1698242190974,1698242195565,\Highly agree\,\Highly agree\,\4\,1698242194823,1698242194823,3849,3849,4591,buq,qns-item-noham,121,467336,0.0-1.0-0.120
<b>I care a lot about politics.,Highly disagree,122/150,Somewhat disagree,2,1698242195568,1698242198534,\Somewhat disagree\,\Somewhat disagree\,\2\,1698242197480,1698242197480,1912,1912,2966,buq,qns-item-noham,122,470305,0.0-1.0-0.121
<b>People with conflicting beliefs usually have some facts they disagree on.,Highly disagree,123/150,Somewhat agree,3,1698242198538,1698242201743,\Somewhat agree\,\Somewhat agree\,\3\,1698242200070,1698242200070,1532,1532,3205,buq,qns-item-noham,123,473514,0.0-1.0-0.122
<b>There are some topics I?ve been really wrong about.,Highly disagree,124/150,Highly agree,4,1698242201747,1698242204676,\Highly agree\,\Highly agree\,\4\,1698242204032,1698242204032,2285,2285,2929,buq,qns-item-noham,124,476447,0.0-1.0-0.123
<b>Most beliefs can be supported with at least some evidence.,Highly disagree,125/150,Somewhat agree,3,1698242204679,1698242207214,\Somewhat agree\,\Somewhat agree\,\3\,1698242206164,1698242206164,1485,1485,2535,buq,qns-item-noham,125,478985,0.0-1.0-0.124
<b>Other people make life out to be more complicated than it really is.,Highly disagree,126/150,Highly disagree,1,1698242207217,1698242210740,\Somewhat disagree\,\Highly disagree\,\2\,1698242209531,1698242210180,2314,2963,3523,buq,qns-item-noham,126,482511,0.0-1.0-0.125
"<b>My political views are being shaped continuously as I gather more information, rather than relying on what I?ve known to be true of my party in the past. ",Highly disagree,127/150,Highly agree,4,1698242210745,1698242213619,\Highly agree\,\Highly agree\,\4\,1698242212875,1698242212875,2130,2130,2874,buq,qns-item-noham,127,485390,0.0-1.0-0.126
<b>It?s pretty unusual for true things to seem false.,Highly disagree,128/150,Somewhat disagree,2,1698242213622,1698242217860,\Somewhat agree\,\Somewhat disagree\,\3\,1698242216297,1698242216770,2675,3148,4238,buq,qns-item-noham,128,489631,0.0-1.0-0.127
"<b>Policy details don?t matter much, just the big picture.",Highly disagree,129/150,Somewhat disagree,2,1698242217864,1698242220710,\Somewhat disagree\,\Somewhat disagree\,\2\,1698242219650,1698242219650,1786,1786,2846,buq,qns-item-noham,129,492481,0.0-1.0-0.128
<b>I know my friends so well they can hardly ever surprise me.,Highly disagree,130/150,Somewhat agree,3,1698242220712,1698242224278,\Somewhat agree\,\Somewhat agree\,\3\,1698242223651,1698242223651,2939,2939,3566,buq,qns-item-noham,130,496049,0.0-1.0-0.129
"<b>When I talk to people, I often think about why they have the beliefs they do.",Highly disagree,131/150,Highly agree,4,1698242224280,1698242233002,\Highly agree\,\Highly agree\,\4\,1698242232293,1698242232293,8013,8013,8722,buq,qns-item-noham,131,504773,0.0-1.0-0.130
<b>I do not often change my views on people.,Highly disagree,132/150,Somewhat agree,3,1698242233005,1698242235719,\Somewhat agree\,\Somewhat agree\,\3\,1698242235116,1698242235116,2111,2111,2714,buq,qns-item-noham,132,507490,0.0-1.0-0.131
<b>I often wish I had more time to spend figuring out what?s true and what?s false in life.,Highly disagree,133/150,Somewhat agree,3,1698242235722,1698242238856,\Somewhat agree\,\Somewhat agree\,\3\,1698242238187,1698242238187,2465,2465,3134,buq,qns-item-noham,133,510627,0.0-1.0-0.132
<b>I?m more certain about my beliefs than I used to be.,Highly disagree,134/150,Somewhat disagree,2,1698242238858,1698242242095,\Somewhat disagree\,\Somewhat disagree\,\2\,1698242241479,1698242241479,2621,2621,3237,buq,qns-item-noham,134,513866,0.0-1.0-0.133
"<b>Whenever I find out new information, I update my views on politics accordingly.",Highly disagree,135/150,Somewhat agree,3,1698242242098,1698242244357,\Somewhat agree\,\Somewhat agree\,\3\,1698242243603,1698242243603,1505,1505,2259,buq,qns-item-noham,135,516128,0.0-1.0-0.134
<b>People often tell falsehoods unintentionally.,Highly disagree,136/150,Highly agree,4,1698242244359,1698242256210,\Highly agree\,\Highly agree\,\4\,1698242254571,1698242254571,10212,10212,11851,buq,qns-item-noham,136,527981,0.0-1.0-0.135
<b>Most people don?t know much about most things.,Highly disagree,137/150,Somewhat agree,3,1698242256212,1698242262451,\Somewhat agree\,\Somewhat agree\,\3\,1698242261820,1698242261992,5608,5780,6239,buq,qns-item-noham,137,534222,0.0-1.0-0.136
"<b>If I find out something new about someone, I easily change my views about them.",Highly disagree,138/150,Somewhat agree,3,1698242262454,1698242266278,\Somewhat agree\,\Somewhat agree\,\3\,1698242264870,1698242264870,2416,2416,3824,buq,qns-item-noham,138,538049,0.0-1.0-0.137
<b>Having true beliefs is difficult.,Highly disagree,139/150,Highly agree,4,1698242266281,1698242268770,\Highly agree\,\Highly agree\,\4\,1698242268243,1698242268243,1962,1962,2489,buq,qns-item-noham,139,540541,0.0-1.0-0.138
<b>I don?t try new foods since I know I won?t like them.,Highly disagree,140/150,Highly disagree,1,1698242268773,1698242272685,\Highly disagree\,\Highly disagree\,\1\,1698242272181,1698242272181,3408,3408,3912,buq,qns-item-noham,140,544456,0.0-1.0-0.139
<b>It?s easy to figure out what?s true or false based on who?s saying it.,Highly disagree,141/150,Somewhat disagree,2,1698242272688,1698242276661,\Somewhat agree\,\Somewhat disagree\,\3\,1698242275432,1698242276084,2744,3396,3973,buq,qns-item-noham,141,548433,0.0-1.0-0.140
<b>False things have seemed true to me many times.,Highly disagree,142/150,Highly agree,4,1698242276664,1698242280673,\Highly agree\,\Highly agree\,\4\,1698242280074,1698242280074,3410,3410,4009,buq,qns-item-noham,142,552444,0.0-1.0-0.141
<b>It?s pretty easy to sort out what?s true and what?s false in life.,Highly disagree,143/150,Somewhat disagree,2,1698242280676,1698242283484,\Somewhat disagree\,\Somewhat disagree\,\2\,1698242282859,1698242282859,2183,2183,2808,buq,qns-item-noham,143,555255,0.0-1.0-0.142
<b>Knowing lots of statistics about something is usually important for understanding it.,Highly disagree,144/150,Somewhat agree,3,1698242283487,1698242286631,\Somewhat agree\,\Somewhat agree\,\3\,1698242285489,1698242285489,2002,2002,3144,buq,qns-item-noham,144,558402,0.0-1.0-0.143
<b>Other people trick each other a lot.,Highly disagree,145/150,Somewhat agree,3,1698242286635,1698242290515,\Somewhat agree\,\Somewhat agree\,\3\,1698242289664,1698242289664,3029,3029,3880,buq,qns-item-noham,145,562286,0.0-1.0-0.144
<b>I would need to learn a lot about a person for my opinion of them to be swayed.,Highly disagree,146/150,Somewhat agree,3,1698242290517,1698242322791,\Highly agree\,\Somewhat agree\,\4\,1698242296282,1698242322287,5765,31770,32274,buq,qns-item-noham,146,594562,0.0-1.0-0.145
<b>People can?t usually trick me when it comes to topics I care about.,Highly disagree,147/150,Somewhat agree,3,1698242322794,1698242330327,\Somewhat agree\,\Somewhat agree\,\3\,1698242329600,1698242329600,6806,6806,7533,buq,qns-item-noham,147,602099,0.0-1.0-0.146
<b>I do not often change my views on food.,Highly disagree,148/150,Somewhat agree,3,1698242330329,1698242333198,\Somewhat agree\,\Somewhat agree\,\3\,1698242332391,1698242332391,2062,2062,2869,buq,qns-item-noham,148,604969,0.0-1.0-0.147
<b>Specific policies are often very important to me.,Highly disagree,149/150,Highly agree,4,1698242333200,1698242335894,\Highly agree\,\Highly agree\,\4\,1698242335136,1698242335136,1936,1936,2694,buq,qns-item-noham,149,607665,0.0-1.0-0.148
<b>Most people are woefully under-informed.,Highly disagree,150/150,Highly agree,4,1698242335896,1698242339698,\Highly agree\,\Highly agree\,\4\,1698242339096,1698242339096,3200,3200,3802,buq,qns-item-noham,150,611469,0.0-1.0-0.149
