Question,qns_options,quest_num,answer,answer_num,question_load_timestamp,next_btn_timestamp,text_selected,final_text_selected,option_num_selected,preview_timestamps,final_text_selected_time_stamp,rt_first_option_click,rt_final_option_click,rt_submit_click,questionnaire,trial_type,trial_index,time_elapsed,internal_node_id
<b>Considering other people?s perspectives can help us figure out what?s true or false.,Highly disagree,1/150,Somewhat agree,3,1698242121973,1698242129282,\Somewhat agree\,\Somewhat agree\,\3\,1698242127785,1698242127785,5812,5812,7309,buq,qns-item-noham,1,12935,0.0-1.0-0.0
<b>Knowing what?s true and knowing what to do about it are usually basically the same.,Highly disagree,2/150,Somewhat agree,3,1698242129290,1698242136102,\Somewhat agree\,\Somewhat agree\,\3\,1698242135574,1698242135574,6284,6284,6812,buq,qns-item-noham,2,19755,0.0-1.0-0.1
<b>Most people just believe whatever is convenient for them.,Highly disagree,3/150,Somewhat disagree,2,1698242136104,1698242140063,\Somewhat disagree\,\Somewhat disagree\,\2\,1698242139404,1698242139404,3300,3300,3959,buq,qns-item-noham,3,23717,0.0-1.0-0.2
<b>Even people who are wrong about most things can be right sometimes.,Highly disagree,4/150,Somewhat agree,3,1698242140066,1698242149603,\Somewhat agree\,\Somewhat agree\,\3\,1698242144553,1698242148055,4487,7989,9537,buq,qns-item-noham,4,33257,0.0-1.0-0.3
"<b>If the political party I support does something that upsets me, then the party may have changed, and I need to re-evaluate my support.",Highly disagree,5/150,Somewhat agree,3,1698242149606,1698242157593,\Somewhat agree\,\Somewhat agree\,\3\,1698242156869,1698242156869,7263,7263,7987,buq,qns-item-noham,5,41246,0.0-1.0-0.4
"<b>When people disagree, one side is usually completely right.",Highly disagree,6/150,Somewhat disagree,2,1698242157595,1698242160363,\Somewhat disagree\,\Somewhat disagree\,\2\,1698242159672,1698242159672,2077,2077,2768,buq,qns-item-noham,6,44016,0.0-1.0-0.5
<b>People have lots of false beliefs.,Highly disagree,7/150,Somewhat agree,3,1698242160366,1698242162585,\Somewhat agree\,\Somewhat agree\,\3\,1698242161963,1698242161963,1597,1597,2219,buq,qns-item-noham,7,46238,0.0-1.0-0.6
<b>Having some big beliefs helps me sort out minor ones.,Highly disagree,8/150,Somewhat disagree,2,1698242162587,1698242165794,\Somewhat disagree\,\Somewhat disagree\,\2\,1698242165224,1698242165224,2637,2637,3207,buq,qns-item-noham,8,49447,0.0-1.0-0.7
<b>Political questions are usually pretty complicated.,Highly disagree,9/150,Somewhat disagree,2,1698242165796,1698242168712,\Somewhat disagree\,\Somewhat disagree\,\2\,1698242168114,1698242168114,2318,2318,2916,buq,qns-item-noham,9,52365,0.0-1.0-0.8
<b>Figuring out what?s important in life requires learning a lot of facts.,Highly disagree,10/150,Somewhat agree,3,1698242168714,1698242171406,\Somewhat agree\,\Somewhat agree\,\3\,1698242170814,1698242170814,2100,2100,2692,buq,qns-item-noham,10,55059,0.0-1.0-0.9
<b>It is difficult for me to remember the last time I was surprised by politics.,Highly disagree,11/150,Somewhat agree,3,1698242171408,1698242174780,\Somewhat agree\,\Somewhat agree\,\3\,1698242174125,1698242174125,2717,2717,3372,buq,qns-item-noham,11,58433,0.0-1.0-0.10
<b>People?s false beliefs are understandable.,Highly disagree,12/150,Somewhat agree,3,1698242174782,1698242177302,\Somewhat agree\,\Somewhat agree\,\3\,1698242176733,1698242176733,1951,1951,2520,buq,qns-item-noham,12,60955,0.0-1.0-0.11
<b>I spend a lot of time trying to be informed about politics.,Highly disagree,13/150,Somewhat disagree,2,1698242177304,1698242180377,\Somewhat disagree\,\Somewhat disagree\,\2\,1698242179778,1698242179778,2474,2474,3073,buq,qns-item-noham,13,64030,0.0-1.0-0.12
<b>I think a lot about whether my beliefs are right.,Highly disagree,14/150,Somewhat disagree,2,1698242180379,1698242183280,\Somewhat disagree\,\Somewhat disagree\,\2\,1698242182691,1698242182691,2312,2312,2901,buq,qns-item-noham,14,66933,0.0-1.0-0.13
<b>Statistics can be pretty misleading sometimes.,Highly disagree,15/150,Somewhat agree,3,1698242183282,1698242185569,\Somewhat agree\,\Somewhat agree\,\3\,1698242185045,1698242185045,1763,1763,2287,buq,qns-item-noham,15,69222,0.0-1.0-0.14
<b>Figuring out what?s true and what?s false takes a lot of time and effort.,Highly disagree,16/150,Somewhat agree,3,1698242185571,1698242189606,\Somewhat agree\,\Somewhat agree\,\3\,1698242189034,1698242189034,3463,3463,4035,buq,qns-item-noham,16,73259,0.0-1.0-0.15
"<b>If a friend does something bad to me, it was likely an error on their part.",Highly disagree,17/150,Somewhat agree,3,1698242189607,1698242194529,\Somewhat disagree\,\Somewhat agree\,\2\,1698242193001,1698242193699,3394,4092,4922,buq,qns-item-noham,17,78182,0.0-1.0-0.16
<b>I have lots of beliefs that I?m only sort of sure about.,Highly disagree,18/150,Somewhat agree,3,1698242194531,1698242198327,\Somewhat agree\,\Somewhat agree\,\3\,1698242197839,1698242197839,3308,3308,3796,buq,qns-item-noham,18,81981,0.0-1.0-0.17
"<b>If I go to my favorite restaurant and the food is surprisingly bad, it reminds me there are many disappointments in life.",Highly disagree,19/150,Somewhat agree,3,1698242198329,1698242202845,\Somewhat agree\,\Somewhat agree\,\3\,1698242202267,1698242202267,3938,3938,4516,buq,qns-item-noham,19,86498,0.0-1.0-0.18
<b>Sometimes my beliefs are inconvenient for me.,Highly disagree,20/150,Somewhat agree,3,1698242202847,1698242205478,\Somewhat agree\,\Somewhat agree\,\3\,1698242204931,1698242204931,2084,2084,2631,buq,qns-item-noham,20,89131,0.0-1.0-0.19
<b>Paying attention to multiple news sources is important.,Highly disagree,21/150,Somewhat agree,3,1698242205480,1698242207951,\Somewhat agree\,\Somewhat agree\,\3\,1698242207413,1698242207413,1933,1933,2471,buq,qns-item-noham,21,91604,0.0-1.0-0.20
"<b>If you are paying attention, please select ?Somewhat agree?",Highly disagree,22/150,Somewhat agree,3,1698242207953,1698242210785,\Somewhat agree\,\Somewhat agree\,\3\,1698242210147,1698242210147,2194,2194,2832,buq,qns-item-noham,22,94439,0.0-1.0-0.21
"<b>When I talk to others, I often worry I?ll convince them of something I didn?t mean to.",Highly disagree,23/150,Somewhat disagree,2,1698242210788,1698242214723,\Somewhat disagree\,\Somewhat disagree\,\2\,1698242214179,1698242214179,3391,3391,3935,buq,qns-item-noham,23,98376,0.0-1.0-0.22
<b>I would need to learn something utterly shocking about my party in order to change my political views.,Highly disagree,24/150,Somewhat agree,3,1698242214725,1698242218667,\Somewhat agree\,\Somewhat agree\,\3\,1698242218147,1698242218147,3422,3422,3942,buq,qns-item-noham,24,102320,0.0-1.0-0.23
"<b>When I have new experiences, I tend to think of them as unique.",Highly disagree,25/150,Highly agree,4,1698242218669,1698242221445,\Highly agree\,\Highly agree\,\4\,1698242220825,1698242220825,2156,2156,2776,buq,qns-item-noham,25,105098,0.0-1.0-0.24
<b>Reading lots of things is important for understanding the world.,Highly disagree,26/150,Somewhat agree,3,1698242221448,1698242223851,\Somewhat agree\,\Somewhat agree\,\3\,1698242223367,1698242223367,1919,1919,2403,buq,qns-item-noham,26,107504,0.0-1.0-0.25
<b>The world is complicated.,Highly disagree,27/150,Highly agree,4,1698242223854,1698242225893,\Highly agree\,\Highly agree\,\4\,1698242225281,1698242225281,1427,1427,2039,buq,qns-item-noham,27,109546,0.0-1.0-0.26
<b>I change my mind about specific policies pretty frequently.,Highly disagree,28/150,Somewhat disagree,2,1698242225895,1698242228509,\Somewhat disagree\,\Somewhat disagree\,\2\,1698242228013,1698242228013,2118,2118,2614,buq,qns-item-noham,28,112162,0.0-1.0-0.27
"<b>If a politician in my political party supports something I disagree with, I give them the benefit of the doubt, as such issues often involve hidden complexities that aren?t obvious.   ",Highly disagree,29/150,Somewhat agree,3,1698242228511,1698242233607,\Somewhat agree\,\Somewhat agree\,\3\,1698242232863,1698242232863,4352,4352,5096,buq,qns-item-noham,29,117260,0.0-1.0-0.28
<b>People?s bad politics are usually motivated by hatefulness.,Highly disagree,30/150,Somewhat agree,3,1698242233609,1698242237599,\Somewhat agree\,\Somewhat agree\,\3\,1698242236921,1698242236921,3312,3312,3990,buq,qns-item-noham,30,121252,0.0-1.0-0.29
"<b>Most new experiences are just like old ones, but a little bit different.",Highly disagree,31/150,Somewhat disagree,2,1698242237601,1698242241407,\Somewhat disagree\,\Somewhat disagree\,\2\,1698242240889,1698242240889,3288,3288,3806,buq,qns-item-noham,31,125060,0.0-1.0-0.30
<b>I think a lot about how to reconcile my beliefs with one another.,Highly disagree,32/150,Somewhat disagree,2,1698242241409,1698242244347,\Somewhat disagree\,\Somewhat disagree\,\2\,1698242243827,1698242243827,2418,2418,2938,buq,qns-item-noham,32,128000,0.0-1.0-0.31
<b>Personal experience rarely leads people astray.,Highly disagree,33/150,Somewhat disagree,2,1698242244349,1698242248059,\Somewhat disagree\,\Somewhat disagree\,\2\,1698242247449,1698242247449,3100,3100,3710,buq,qns-item-noham,33,131712,0.0-1.0-0.32
<b>I might have false beliefs about important topics.,Highly disagree,34/150,Somewhat agree,3,1698242248061,1698242250517,\Somewhat agree\,\Somewhat agree\,\3\,1698242249935,1698242249935,1874,1874,2456,buq,qns-item-noham,34,134170,0.0-1.0-0.33
"<b>If a good friend of mine does something unexpected that upsets me, I feel like I don?t know them anymore.",Highly disagree,35/150,Highly agree,4,1698242250519,1698242254817,\Highly agree\,\Highly agree\,\4\,1698242254227,1698242254227,3708,3708,4298,buq,qns-item-noham,35,138470,0.0-1.0-0.34
<b>Other people?s beliefs are often incoherent.,Highly disagree,36/150,Somewhat disagree,2,1698242254819,1698242257333,\Somewhat disagree\,\Somewhat disagree\,\2\,1698242256801,1698242256801,1982,1982,2514,buq,qns-item-noham,36,140986,0.0-1.0-0.35
<b>It?s important to have friends who think about things differently than I do.,Highly disagree,37/150,Highly agree,4,1698242257337,1698242260217,\Highly agree\,\Highly agree\,\4\,1698242259628,1698242259628,2291,2291,2880,buq,qns-item-noham,37,143870,0.0-1.0-0.36
"<b>Every now and then, a new experience will unsettle beliefs I?ve had for a while.",Highly disagree,38/150,Somewhat disagree,2,1698242260219,1698242263445,\Somewhat disagree\,\Somewhat disagree\,\2\,1698242262925,1698242262925,2706,2706,3226,buq,qns-item-noham,38,147098,0.0-1.0-0.37
<b>Some policies I agree with in principle are so bad I don?t support them. ,Highly disagree,39/150,Somewhat disagree,2,1698242263448,1698242267143,\Somewhat disagree\,\Somewhat disagree\,\2\,1698242266623,1698242266623,3175,3175,3695,buq,qns-item-noham,39,150796,0.0-1.0-0.38
<b>I?m pretty sure I?ve accidentally spread false information.,Highly disagree,40/150,Somewhat agree,3,1698242267145,1698242270205,\Somewhat agree\,\Somewhat agree\,\3\,1698242269633,1698242269633,2488,2488,3060,buq,qns-item-noham,40,153858,0.0-1.0-0.39
"<b>If I go to my favorite restaurant and the food is unexpectedly bad, then they have changed owners.",Highly disagree,41/150,Somewhat disagree,2,1698242270207,1698242273993,\Somewhat disagree\,\Somewhat disagree\,\2\,1698242273457,1698242273457,3250,3250,3786,buq,qns-item-noham,41,157646,0.0-1.0-0.40
"<b>In politics, it?s important to trust your friends and family.",Highly disagree,42/150,Somewhat agree,3,1698242273995,1698242276670,\Somewhat agree\,\Somewhat agree\,\3\,1698242275879,1698242275879,1884,1884,2675,buq,qns-item-noham,42,160323,0.0-1.0-0.41
<b>It?s OK to have some conflicting beliefs.,Highly disagree,43/150,Somewhat agree,3,1698242276671,1698242278513,\Somewhat agree\,\Somewhat agree\,\3\,1698242278043,1698242278043,1372,1372,1842,buq,qns-item-noham,43,162166,0.0-1.0-0.42
<b>Sometimes the details of a matter seem to conflict with the big picture.,Highly disagree,44/150,Somewhat agree,3,1698242278515,1698242280917,\Somewhat agree\,\Somewhat agree\,\3\,1698242280461,1698242280461,1946,1946,2402,buq,qns-item-noham,44,164570,0.0-1.0-0.43
<b>Listening to people I disagree with makes my opinions better.,Highly disagree,45/150,Somewhat agree,3,1698242280920,1698242284406,\Somewhat agree\,\Somewhat agree\,\3\,1698242283893,1698242283893,2973,2973,3486,buq,qns-item-noham,45,168059,0.0-1.0-0.44
<b>Policies that sound bad are sometimes fine when you find out about their details.,Highly disagree,46/150,Somewhat agree,3,1698242284409,1698242287712,\Somewhat agree\,\Somewhat agree\,\3\,1698242287185,1698242287185,2776,2776,3303,buq,qns-item-noham,46,171365,0.0-1.0-0.45
"<b>The world is always changing, so my beliefs are sometimes out-dated.",Highly disagree,47/150,Highly agree,4,1698242287713,1698242290774,\Highly agree\,\Highly agree\,\4\,1698242290213,1698242290213,2500,2500,3061,buq,qns-item-noham,47,174427,0.0-1.0-0.46
"<b>If I receive a bad meal at my favorite restaurant and the food is surprisingly bad, I do not think much of it, and assume the chef is just having an ?off? day.",Highly disagree,48/150,Somewhat agree,3,1698242290775,1698242295128,\Somewhat agree\,\Somewhat agree\,\3\,1698242294669,1698242294669,3894,3894,4353,buq,qns-item-noham,48,178781,0.0-1.0-0.47
"<b>False information is unavoidable, to some extent.",Highly disagree,49/150,Somewhat agree,3,1698242295130,1698242298028,\Somewhat agree\,\Somewhat agree\,\3\,1698242297474,1698242297474,2344,2344,2898,buq,qns-item-noham,49,181681,0.0-1.0-0.48
<b>My moral compass sometimes makes it harder to determine what?s true.,Highly disagree,50/150,Highly agree,4,1698242298030,1698242300949,\Highly agree\,\Highly agree\,\4\,1698242300389,1698242300389,2359,2359,2919,buq,qns-item-noham,50,184602,0.0-1.0-0.49
"<b>When you disagree with someone, it?s important to listen to them carefully.",Highly disagree,51/150,Somewhat agree,3,1698242300951,1698242303752,\Somewhat agree\,\Somewhat agree\,\3\,1698242303213,1698242303213,2262,2262,2801,buq,qns-item-noham,51,187405,0.0-1.0-0.50
<b>Evidence pointing in the wrong direction isn?t really evidence at all.,Highly disagree,52/150,Somewhat disagree,2,1698242303757,1698242309184,\Somewhat agree\,\Somewhat disagree\,\3\,1698242307980,1698242308601,4223,4844,5427,buq,qns-item-noham,52,192837,0.0-1.0-0.51
"<b>If the political party I support messes up, it makes me think politics is rotten.",Highly disagree,53/150,Somewhat disagree,2,1698242309187,1698242312772,\Somewhat disagree\,\Somewhat disagree\,\2\,1698242312279,1698242312279,3092,3092,3585,buq,qns-item-noham,53,196425,0.0-1.0-0.52
<b>Lots of important topics can only really be understood by some groups of people.,Highly disagree,54/150,Somewhat disagree,2,1698242312773,1698242316364,\Somewhat disagree\,\Somewhat disagree\,\2\,1698242315829,1698242315829,3056,3056,3591,buq,qns-item-noham,54,200017,0.0-1.0-0.53
<b>Details almost always matter for being right about something.,Highly disagree,55/150,Somewhat agree,3,1698242316366,1698242319207,\Somewhat agree\,\Somewhat agree\,\3\,1698242318707,1698242318707,2341,2341,2841,buq,qns-item-noham,55,202861,0.0-1.0-0.54
"<b>The most important thing in politics is winning, not convincing people.",Highly disagree,56/150,Somewhat disagree,2,1698242319209,1698242321870,\Somewhat disagree\,\Somewhat disagree\,\2\,1698242321381,1698242321381,2172,2172,2661,buq,qns-item-noham,56,205523,0.0-1.0-0.55
<b>Having conflicting beliefs means you haven?t thought about them enough.,Highly disagree,57/150,Somewhat disagree,2,1698242321872,1698242325040,\Somewhat disagree\,\Somewhat disagree\,\2\,1698242324535,1698242324535,2663,2663,3168,buq,qns-item-noham,57,208693,0.0-1.0-0.56
<b>Other people have sometimes convinced me to change my mind on important topics.,Highly disagree,58/150,Somewhat agree,3,1698242325041,1698242327929,\Somewhat agree\,\Somewhat agree\,\3\,1698242327455,1698242327455,2414,2414,2888,buq,qns-item-noham,58,211582,0.0-1.0-0.57
<b>I do not often change my political opinions.,Highly disagree,59/150,Somewhat agree,3,1698242327931,1698242330902,\Somewhat disagree\,\Somewhat agree\,\2\,1698242329703,1698242330406,1772,2475,2971,buq,qns-item-noham,59,214555,0.0-1.0-0.58
<b>Thinking about how different things relate to one another is critical in life.,Highly disagree,60/150,Somewhat agree,3,1698242330903,1698242333521,\Somewhat agree\,\Somewhat agree\,\3\,1698242332995,1698242332995,2092,2092,2618,buq,qns-item-noham,60,217174,0.0-1.0-0.59
<b>True beliefs can have unfortunate implications.,Highly disagree,61/150,Somewhat agree,3,1698242333524,1698242336994,\Somewhat agree\,\Somewhat agree\,\3\,1698242336479,1698242336479,2955,2955,3470,buq,qns-item-noham,61,220647,0.0-1.0-0.60
<b>It?s difficult to not have at least some conflicting beliefs.,Highly disagree,62/150,Somewhat agree,3,1698242336996,1698242339509,\Somewhat agree\,\Somewhat agree\,\3\,1698242339019,1698242339019,2023,2023,2513,buq,qns-item-noham,62,223162,0.0-1.0-0.61
"<b>When I learn new things, I think deeply about how my opinions should change.",Highly disagree,63/150,Somewhat disagree,2,1698242339510,1698242342317,\Somewhat disagree\,\Somewhat disagree\,\2\,1698242341811,1698242341811,2301,2301,2807,buq,qns-item-noham,63,225970,0.0-1.0-0.62
<b>I think a lot about how to interpret different sorts of evidence.,Highly disagree,64/150,Somewhat agree,3,1698242342319,1698242344891,\Somewhat agree\,\Somewhat agree\,\3\,1698242344401,1698242344401,2082,2082,2572,buq,qns-item-noham,64,228544,0.0-1.0-0.63
<b>Politics is about thinking together and finding compromises.,Highly disagree,65/150,Somewhat agree,3,1698242344895,1698242347889,\Somewhat agree\,\Somewhat agree\,\3\,1698242347081,1698242347081,2186,2186,2994,buq,qns-item-noham,65,231542,0.0-1.0-0.64
<b>Wishful thinking causes a lot of problems.,Highly disagree,66/150,Somewhat disagree,2,1698242347891,1698242350561,\Somewhat disagree\,\Somewhat disagree\,\2\,1698242350045,1698242350045,2154,2154,2670,buq,qns-item-noham,66,234215,0.0-1.0-0.65
<b>I judge a food item only once I try it many times.,Highly disagree,67/150,Somewhat agree,3,1698242350565,1698242353639,\Somewhat agree\,\Somewhat agree\,\3\,1698242352881,1698242352881,2316,2316,3074,buq,qns-item-noham,67,237292,0.0-1.0-0.66
"<b>When a person holds conflicting beliefs, they should really try to figure out what?s wrong.",Highly disagree,68/150,Somewhat agree,3,1698242353641,1698242357489,\Somewhat agree\,\Somewhat agree\,\3\,1698242356815,1698242356815,3174,3174,3848,buq,qns-item-noham,68,241142,0.0-1.0-0.67
<b>Knowing what?s important in life is easy.,Highly disagree,69/150,Highly disagree,1,1698242357491,1698242359945,\Highly disagree\,\Highly disagree\,\1\,1698242359345,1698242359345,1854,1854,2454,buq,qns-item-noham,69,243598,0.0-1.0-0.68
<b>Lots of smart people disagree about basic political questions.,Highly disagree,70/150,Somewhat agree,3,1698242359947,1698242362851,\Somewhat agree\,\Somewhat agree\,\3\,1698242362293,1698242362293,2346,2346,2904,buq,qns-item-noham,70,246504,0.0-1.0-0.69
<b>I swim across the Atlantic Ocean to get to work every day.,Highly disagree,71/150,Highly disagree,1,1698242362854,1698242365193,\Highly disagree\,\Highly disagree\,\1\,1698242364584,1698242364584,1730,1730,2339,buq,qns-item-noham,71,248846,0.0-1.0-0.70
"<b>Sometimes, you just have to ignore evidence that you know is wrong.",Highly disagree,72/150,Somewhat agree,3,1698242365195,1698242368433,\Somewhat agree\,\Somewhat agree\,\3\,1698242367945,1698242367945,2750,2750,3238,buq,qns-item-noham,72,252086,0.0-1.0-0.71
<b>I have had some false beliefs.,Highly disagree,73/150,Somewhat agree,3,1698242368437,1698242370650,\Somewhat agree\,\Somewhat agree\,\3\,1698242370027,1698242370027,1590,1590,2213,buq,qns-item-noham,73,254303,0.0-1.0-0.72
"<b>If one friend does something that upsets me, I sometimes start to distrust people in general.",Highly disagree,74/150,Somewhat agree,3,1698242370653,1698242374072,\Somewhat agree\,\Somewhat agree\,\3\,1698242373621,1698242373621,2968,2968,3419,buq,qns-item-noham,74,257725,0.0-1.0-0.73
<b>I easily apply what I learn in one situation to another.,Highly disagree,75/150,Somewhat agree,3,1698242374074,1698242376841,\Somewhat agree\,\Somewhat agree\,\3\,1698242376331,1698242376331,2257,2257,2767,buq,qns-item-noham,75,260494,0.0-1.0-0.74
<b>The facts about most important matters are easy to find.,Highly disagree,76/150,Highly disagree,1,1698242376844,1698242380593,\Highly disagree\,\Highly disagree\,\1\,1698242380013,1698242380013,3169,3169,3749,buq,qns-item-noham,76,264246,0.0-1.0-0.75
<b>It?s better to know what?s true than to know what?s moral.,Highly disagree,77/150,Somewhat agree,3,1698242380596,1698242383245,\Somewhat agree\,\Somewhat agree\,\3\,1698242382659,1698242382659,2063,2063,2649,buq,qns-item-noham,77,266898,0.0-1.0-0.76
<b>It?s good to be skeptical of people you agree with.,Highly disagree,78/150,Somewhat agree,3,1698242383247,1698242385537,\Somewhat agree\,\Somewhat agree\,\3\,1698242384915,1698242384915,1668,1668,2290,buq,qns-item-noham,78,269190,0.0-1.0-0.77
<b>Sometimes reasonable beliefs are wrong.,Highly disagree,79/150,Somewhat agree,3,1698242385539,1698242388771,\Somewhat agree\,\Somewhat agree\,\3\,1698242388145,1698242388145,2606,2606,3232,buq,qns-item-noham,79,272424,0.0-1.0-0.78
<b>I used to think the world was less complicated than I do now.,Highly disagree,80/150,Highly disagree,1,1698242388773,1698242393301,\Highly disagree\,\Highly disagree\,\1\,1698242392463,1698242392463,3690,3690,4528,buq,qns-item-noham,80,276954,0.0-1.0-0.79
<b>People are usually completely right or completely wrong.,Highly disagree,81/150,Somewhat disagree,2,1698242393303,1698242395923,\Somewhat disagree\,\Somewhat disagree\,\2\,1698242395395,1698242395395,2092,2092,2620,buq,qns-item-noham,81,279576,0.0-1.0-0.80
<b>I spend a lot of time considering alternatives to my beliefs.,Highly disagree,82/150,Somewhat disagree,2,1698242395925,1698242398910,\Somewhat disagree\,\Somewhat disagree\,\2\,1698242398461,1698242398461,2536,2536,2985,buq,qns-item-noham,82,282563,0.0-1.0-0.81
"<b>Political enemies need to be defeated, not convinced.",Highly disagree,83/150,Somewhat disagree,2,1698242398911,1698242402976,\Somewhat disagree\,\Somewhat disagree\,\2\,1698242402390,1698242402390,3479,3479,4065,buq,qns-item-noham,83,286629,0.0-1.0-0.82
"<b>When forming an opinion about a restaurant, I am more swayed by my  latest meal there than  previous meals I?ve had there.",Highly disagree,84/150,Somewhat agree,3,1698242402978,1698242407520,\Somewhat agree\,\Somewhat agree\,\3\,1698242407045,1698242407045,4067,4067,4542,buq,qns-item-noham,84,291173,0.0-1.0-0.83
<b>I try to remain skeptical about most topics.,Highly disagree,85/150,Somewhat agree,3,1698242407522,1698242410056,\Somewhat agree\,\Somewhat agree\,\3\,1698242409529,1698242409529,2007,2007,2534,buq,qns-item-noham,85,293709,0.0-1.0-0.84
<b>Being wrong is usually obvious in retrospect.,Highly disagree,86/150,Somewhat agree,3,1698242410057,1698242412962,\Somewhat agree\,\Somewhat agree\,\3\,1698242412449,1698242412449,2392,2392,2905,buq,qns-item-noham,86,296615,0.0-1.0-0.85
<b>It can be hard to realize that my beliefs are in conflict.,Highly disagree,87/150,Somewhat agree,3,1698242412964,1698242415338,\Somewhat agree\,\Somewhat agree\,\3\,1698242414866,1698242414866,1902,1902,2374,buq,qns-item-noham,87,298991,0.0-1.0-0.86
<b>I form my political views only after meticulously gathering historical and present information about their policies.,Highly disagree,88/150,Somewhat disagree,2,1698242415341,1698242418402,\Somewhat disagree\,\Somewhat disagree\,\2\,1698242417969,1698242417969,2628,2628,3061,buq,qns-item-noham,88,302055,0.0-1.0-0.87
<b>Skeptical people are usually just bad-tempered.,Highly disagree,89/150,Somewhat disagree,2,1698242418403,1698242421110,\Somewhat agree\,\Somewhat disagree\,\3\,1698242419941,1698242420365,1538,1962,2707,buq,qns-item-noham,89,304763,0.0-1.0-0.88
<b>It is difficult for me to remember the last time I was surprised by politics.,Highly disagree,90/150,Somewhat agree,3,1698242421112,1698242424664,\Somewhat agree\,\Somewhat agree\,\3\,1698242424033,1698242424033,2921,2921,3552,buq,qns-item-noham,90,308317,0.0-1.0-0.89
"<b>When I find out I?m wrong, I think a lot about my related beliefs.",Highly disagree,91/150,Somewhat disagree,2,1698242424665,1698242428538,\Somewhat disagree\,\Somewhat disagree\,\2\,1698242427997,1698242427997,3332,3332,3873,buq,qns-item-noham,91,312191,0.0-1.0-0.90
"<b>If the political party I support messes up, it makes me think you can?t trust anyone these days",Highly disagree,92/150,Somewhat agree,3,1698242428540,1698242432048,\Somewhat agree\,\Somewhat agree\,\3\,1698242431558,1698242431558,3018,3018,3508,buq,qns-item-noham,92,315701,0.0-1.0-0.91
<b>People?s brains turn off when they talk about politics.,Highly disagree,93/150,Highly disagree,1,1698242432049,1698242435688,\Somewhat disagree\,\Highly disagree\,\2\,1698242434384,1698242435026,2335,2977,3639,buq,qns-item-noham,93,319341,0.0-1.0-0.92
<b>People who are wrong are usually just ignoring the obvious.,Highly disagree,94/150,Somewhat agree,3,1698242435690,1698242439288,\Somewhat agree\,\Somewhat agree\,\3\,1698242438792,1698242438792,3102,3102,3598,buq,qns-item-noham,94,322941,0.0-1.0-0.93
"<b>The world isn?t that complicated, but it?s still hard to figure out how it works.",Highly disagree,95/150,Highly agree,4,1698242439289,1698242442234,\Highly agree\,\Highly agree\,\4\,1698242441492,1698242441492,2203,2203,2945,buq,qns-item-noham,95,325887,0.0-1.0-0.94
"<b>When forming my views on people, I rely more on what they are like now rather than rely on my past experience with them.",Highly disagree,96/150,Somewhat agree,3,1698242442235,1698242448016,\Somewhat agree\,\Somewhat agree\,\3\,1698242447375,1698242447375,5140,5140,5781,buq,qns-item-noham,96,331669,0.0-1.0-0.95
"<b>When people contradict my beliefs, I usually know about their evidence already.",Highly disagree,97/150,Somewhat disagree,2,1698242448018,1698242453116,\Somewhat disagree\,\Somewhat disagree\,\2\,1698242452332,1698242452332,4314,4314,5098,buq,qns-item-noham,97,336769,0.0-1.0-0.96
<b>Being wrong is a matter of degree.,Highly disagree,98/150,Somewhat agree,3,1698242453119,1698242459406,\Somewhat agree\,\Somewhat agree\,\3\,1698242458940,1698242458940,5821,5821,6287,buq,qns-item-noham,98,343059,0.0-1.0-0.97
<b>Figuring out what?s true and what?s false mainly requires a strong moral compass.,Highly disagree,99/150,Somewhat agree,3,1698242459408,1698242462669,\Somewhat agree\,\Somewhat agree\,\3\,1698242462226,1698242462226,2818,2818,3261,buq,qns-item-noham,99,346322,0.0-1.0-0.98
<b>Most of the beliefs people have are at least somewhat understandable.,Highly disagree,100/150,Somewhat agree,3,1698242462671,1698242466841,\Somewhat agree\,\Somewhat agree\,\3\,1698242466397,1698242466397,3726,3726,4170,buq,qns-item-noham,100,350494,0.0-1.0-0.99
"<b>Usually I?m wrong about simple things, not complicated ones.",Highly disagree,101/150,Somewhat disagree,2,1698242466843,1698242469859,\Somewhat disagree\,\Somewhat disagree\,\2\,1698242469359,1698242469359,2516,2516,3016,buq,qns-item-noham,101,353512,0.0-1.0-0.100
<b>Getting all the information I want about important things is hard.,Highly disagree,102/150,Somewhat agree,3,1698242469861,1698242472662,\Somewhat agree\,\Somewhat agree\,\3\,1698242471981,1698242471981,2120,2120,2801,buq,qns-item-noham,102,356315,0.0-1.0-0.101
<b>Most false beliefs spread because people try to deceive one another.,Highly disagree,103/150,Somewhat agree,3,1698242472664,1698242476127,\Somewhat agree\,\Somewhat agree\,\3\,1698242475671,1698242475671,3007,3007,3463,buq,qns-item-noham,103,359780,0.0-1.0-0.102
<b>I can usually find something to agree with in most people?s beliefs.,Highly disagree,104/150,Somewhat agree,3,1698242476130,1698242479875,\Somewhat agree\,\Somewhat agree\,\3\,1698242479429,1698242479429,3299,3299,3745,buq,qns-item-noham,104,363528,0.0-1.0-0.103
<b>I only form my views of people once I get to know them very well.,Highly disagree,105/150,Somewhat agree,3,1698242479877,1698242483217,\Somewhat agree\,\Somewhat agree\,\3\,1698242482271,1698242482271,2394,2394,3340,buq,qns-item-noham,105,366870,0.0-1.0-0.104
"<b>When people tell me important things about the world, I usually believe them.",Highly disagree,106/150,Somewhat agree,3,1698242483219,1698242485903,\Somewhat agree\,\Somewhat agree\,\3\,1698242485369,1698242485369,2150,2150,2684,buq,qns-item-noham,106,369556,0.0-1.0-0.105
"<b>If a friend does something that upsets me, it reminds me what an unpredictable place the world is.",Highly disagree,107/150,Somewhat agree,3,1698242485905,1698242489865,\Somewhat agree\,\Somewhat agree\,\3\,1698242489304,1698242489304,3399,3399,3960,buq,qns-item-noham,107,373518,0.0-1.0-0.106
<b>Having some conflicting beliefs is inevitable.,Highly disagree,108/150,Somewhat agree,3,1698242489868,1698242492151,\Somewhat agree\,\Somewhat agree\,\3\,1698242491421,1698242491421,1553,1553,2283,buq,qns-item-noham,108,375804,0.0-1.0-0.107
<b>People are wrong because they haven?t thought much about things.,Highly disagree,109/150,Somewhat disagree,2,1698242492153,1698242495145,\Somewhat disagree\,\Somewhat disagree\,\2\,1698242494603,1698242494603,2450,2450,2992,buq,qns-item-noham,109,378798,0.0-1.0-0.108
<b>People tend to believe whatever is good for their friends.,Highly disagree,110/150,Somewhat agree,3,1698242495147,1698242498243,\Somewhat agree\,\Somewhat agree\,\3\,1698242497777,1698242497777,2630,2630,3096,buq,qns-item-noham,110,381896,0.0-1.0-0.109
"<b>When I talk about important topics, I try to make sure people know I?m not always right.",Highly disagree,111/150,Somewhat agree,3,1698242498245,1698242501373,\Somewhat agree\,\Somewhat agree\,\3\,1698242500743,1698242500743,2498,2498,3128,buq,qns-item-noham,111,385026,0.0-1.0-0.110
<b>I used to be more certain my beliefs were true.,Highly disagree,112/150,Somewhat disagree,2,1698242501375,1698242504525,\Somewhat disagree\,\Somewhat disagree\,\2\,1698242503931,1698242503931,2556,2556,3150,buq,qns-item-noham,112,388178,0.0-1.0-0.111
<b>It?s often pretty easy to figure out whether something is true based on who said it.,Highly disagree,113/150,Somewhat disagree,2,1698242504527,1698242507729,\Somewhat disagree\,\Somewhat disagree\,\2\,1698242507215,1698242507215,2688,2688,3202,buq,qns-item-noham,113,391382,0.0-1.0-0.112
<b>Having bad food in my favorite restaurant will make me think the restaurant is no longer good.,Highly disagree,114/150,Somewhat agree,3,1698242507731,1698242511357,\Somewhat agree\,\Somewhat agree\,\3\,1698242510889,1698242510889,3158,3158,3626,buq,qns-item-noham,114,395010,0.0-1.0-0.113
<b>I transform into a hummingbird every day.,Highly disagree,115/150,Highly disagree,1,1698242511359,1698242513833,\Highly disagree\,\Highly disagree\,\1\,1698242513189,1698242513189,1830,1830,2474,buq,qns-item-noham,115,397486,0.0-1.0-0.114
"<b>Unfortunately, when people are wrong, it?s usually because they?re bad.",Highly disagree,116/150,Highly disagree,1,1698242513835,1698242517161,\Highly disagree\,\Highly disagree\,\1\,1698242516655,1698242516655,2820,2820,3326,buq,qns-item-noham,116,400814,0.0-1.0-0.115
<b>I think a lot about arguments against my views.,Highly disagree,117/150,Somewhat disagree,2,1698242517162,1698242520705,\Somewhat disagree\,\Somewhat disagree\,\2\,1698242520183,1698242520183,3021,3021,3543,buq,qns-item-noham,117,404358,0.0-1.0-0.116
<b>Details tend to matter a lot for knowing whether a policy is good.,Highly disagree,118/150,Somewhat agree,3,1698242520706,1698242523671,\Somewhat agree\,\Somewhat agree\,\3\,1698242523149,1698242523149,2443,2443,2965,buq,qns-item-noham,118,407324,0.0-1.0-0.117
<b>Personal experience is usually more important than facts and figures.,Highly disagree,119/150,Somewhat disagree,2,1698242523673,1698242526499,\Somewhat disagree\,\Somewhat disagree\,\2\,1698242525971,1698242525971,2298,2298,2826,buq,qns-item-noham,119,410152,0.0-1.0-0.118
<b>I?ve been tricked before about important matters.,Highly disagree,120/150,Somewhat agree,3,1698242526502,1698242529031,\Somewhat agree\,\Somewhat agree\,\3\,1698242528359,1698242528359,1857,1857,2529,buq,qns-item-noham,120,412684,0.0-1.0-0.119
<b>I would need to be totally wowed if I were to change my opinion of a restaurant I don?t like.,Highly disagree,121/150,Somewhat agree,3,1698242529033,1698242533373,\Somewhat agree\,\Somewhat agree\,\3\,1698242532655,1698242532655,3622,3622,4340,buq,qns-item-noham,121,417027,0.0-1.0-0.120
<b>I care a lot about politics.,Highly disagree,122/150,Highly disagree,1,1698242533375,1698242535461,\Highly disagree\,\Highly disagree\,\1\,1698242534941,1698242534941,1566,1566,2086,buq,qns-item-noham,122,419114,0.0-1.0-0.121
<b>People with conflicting beliefs usually have some facts they disagree on.,Highly disagree,123/150,Somewhat agree,3,1698242535463,1698242539228,\Somewhat agree\,\Somewhat agree\,\3\,1698242538695,1698242538695,3232,3232,3765,buq,qns-item-noham,123,422881,0.0-1.0-0.122
<b>There are some topics I?ve been really wrong about.,Highly disagree,124/150,Somewhat disagree,2,1698242539229,1698242542357,\Somewhat disagree\,\Somewhat disagree\,\2\,1698242541783,1698242541783,2554,2554,3128,buq,qns-item-noham,124,426010,0.0-1.0-0.123
<b>Most beliefs can be supported with at least some evidence.,Highly disagree,125/150,Somewhat agree,3,1698242542359,1698242544839,\Somewhat agree\,\Somewhat agree\,\3\,1698242544309,1698242544309,1950,1950,2480,buq,qns-item-noham,125,428492,0.0-1.0-0.124
<b>Other people make life out to be more complicated than it really is.,Highly disagree,126/150,Highly disagree,1,1698242544841,1698242548359,\Highly disagree\,\Highly disagree\,\1\,1698242547317,1698242547317,2476,2476,3518,buq,qns-item-noham,126,432012,0.0-1.0-0.125
"<b>My political views are being shaped continuously as I gather more information, rather than relying on what I?ve known to be true of my party in the past. ",Highly disagree,127/150,Somewhat agree,3,1698242548361,1698242552699,\Somewhat agree\,\Somewhat agree\,\3\,1698242552021,1698242552021,3660,3660,4338,buq,qns-item-noham,127,436352,0.0-1.0-0.126
<b>It?s pretty unusual for true things to seem false.,Highly disagree,128/150,Somewhat agree,3,1698242552701,1698242557227,\Somewhat agree\,\Somewhat agree\,\3\,1698242556363,1698242556363,3662,3662,4526,buq,qns-item-noham,128,440880,0.0-1.0-0.127
"<b>Policy details don?t matter much, just the big picture.",Highly disagree,129/150,Somewhat disagree,2,1698242557229,1698242560485,\Somewhat disagree\,\Somewhat disagree\,\2\,1698242559937,1698242559937,2708,2708,3256,buq,qns-item-noham,129,444138,0.0-1.0-0.128
<b>I know my friends so well they can hardly ever surprise me.,Highly disagree,130/150,Somewhat agree,3,1698242560488,1698242562745,\Somewhat agree\,\Somewhat agree\,\3\,1698242562255,1698242562255,1767,1767,2257,buq,qns-item-noham,130,446398,0.0-1.0-0.129
"<b>When I talk to people, I often think about why they have the beliefs they do.",Highly disagree,131/150,Somewhat agree,3,1698242562747,1698242565753,\Somewhat agree\,\Somewhat agree\,\3\,1698242565321,1698242565321,2574,2574,3006,buq,qns-item-noham,131,449406,0.0-1.0-0.130
<b>I do not often change my views on people.,Highly disagree,132/150,Somewhat agree,3,1698242565755,1698242569178,\Somewhat agree\,\Somewhat agree\,\3\,1698242568663,1698242568663,2908,2908,3423,buq,qns-item-noham,132,452831,0.0-1.0-0.131
<b>I often wish I had more time to spend figuring out what?s true and what?s false in life.,Highly disagree,133/150,Somewhat agree,3,1698242569180,1698242573071,\Somewhat agree\,\Somewhat agree\,\3\,1698242572623,1698242572623,3443,3443,3891,buq,qns-item-noham,133,456724,0.0-1.0-0.132
<b>I?m more certain about my beliefs than I used to be.,Highly disagree,134/150,Somewhat disagree,2,1698242573072,1698242575509,\Somewhat disagree\,\Somewhat disagree\,\2\,1698242574957,1698242574957,1885,1885,2437,buq,qns-item-noham,134,459162,0.0-1.0-0.133
"<b>Whenever I find out new information, I update my views on politics accordingly.",Highly disagree,135/150,Somewhat disagree,2,1698242575510,1698242578325,\Somewhat disagree\,\Somewhat disagree\,\2\,1698242577851,1698242577851,2341,2341,2815,buq,qns-item-noham,135,461978,0.0-1.0-0.134
<b>People often tell falsehoods unintentionally.,Highly disagree,136/150,Somewhat agree,3,1698242578327,1698242580593,\Somewhat agree\,\Somewhat agree\,\3\,1698242580071,1698242580071,1744,1744,2266,buq,qns-item-noham,136,464246,0.0-1.0-0.135
<b>Most people don?t know much about most things.,Highly disagree,137/150,Somewhat disagree,2,1698242580595,1698242583967,\Somewhat disagree\,\Somewhat disagree\,\2\,1698242583321,1698242583321,2726,2726,3372,buq,qns-item-noham,137,467620,0.0-1.0-0.136
"<b>If I find out something new about someone, I easily change my views about them.",Highly disagree,138/150,Somewhat agree,3,1698242583970,1698242587863,\Somewhat agree\,\Somewhat agree\,\3\,1698242587409,1698242587409,3439,3439,3893,buq,qns-item-noham,138,471516,0.0-1.0-0.137
<b>Having true beliefs is difficult.,Highly disagree,139/150,Somewhat agree,3,1698242587865,1698242590471,\Somewhat agree\,\Somewhat agree\,\3\,1698242589995,1698242589995,2130,2130,2606,buq,qns-item-noham,139,474124,0.0-1.0-0.138
<b>I don?t try new foods since I know I won?t like them.,Highly disagree,140/150,Highly disagree,1,1698242590473,1698242593333,\Highly disagree\,\Highly disagree\,\1\,1698242592813,1698242592813,2340,2340,2860,buq,qns-item-noham,140,476986,0.0-1.0-0.139
<b>It?s easy to figure out what?s true or false based on who?s saying it.,Highly disagree,141/150,Somewhat disagree,2,1698242593336,1698242596788,\Somewhat disagree\,\Somewhat disagree\,\2\,1698242596283,1698242596283,2947,2947,3452,buq,qns-item-noham,141,480441,0.0-1.0-0.140
<b>False things have seemed true to me many times.,Highly disagree,142/150,Somewhat agree,3,1698242596790,1698242599603,\Somewhat agree\,\Somewhat agree\,\3\,1698242598963,1698242598963,2173,2173,2813,buq,qns-item-noham,142,483256,0.0-1.0-0.141
<b>It?s pretty easy to sort out what?s true and what?s false in life.,Highly disagree,143/150,Highly disagree,1,1698242599605,1698242602797,\Highly disagree\,\Highly disagree\,\1\,1698242602251,1698242602251,2646,2646,3192,buq,qns-item-noham,143,486450,0.0-1.0-0.142
<b>Knowing lots of statistics about something is usually important for understanding it.,Highly disagree,144/150,Somewhat agree,3,1698242602800,1698242605824,\Somewhat agree\,\Somewhat agree\,\3\,1698242605239,1698242605239,2439,2439,3024,buq,qns-item-noham,144,489477,0.0-1.0-0.143
<b>Other people trick each other a lot.,Highly disagree,145/150,Highly agree,4,1698242605827,1698242608183,\Highly agree\,\Highly agree\,\4\,1698242607505,1698242607505,1678,1678,2356,buq,qns-item-noham,145,491836,0.0-1.0-0.144
<b>I would need to learn a lot about a person for my opinion of them to be swayed.,Highly disagree,146/150,Somewhat agree,3,1698242608185,1698242611179,\Somewhat agree\,\Somewhat agree\,\3\,1698242610693,1698242610693,2508,2508,2994,buq,qns-item-noham,146,494832,0.0-1.0-0.145
<b>People can?t usually trick me when it comes to topics I care about.,Highly disagree,147/150,Somewhat agree,3,1698242611181,1698242614025,\Somewhat agree\,\Somewhat agree\,\3\,1698242613313,1698242613313,2132,2132,2844,buq,qns-item-noham,147,497678,0.0-1.0-0.146
<b>I do not often change my views on food.,Highly disagree,148/150,Somewhat disagree,2,1698242614027,1698242617443,\Somewhat disagree\,\Somewhat disagree\,\2\,1698242616715,1698242616715,2688,2688,3416,buq,qns-item-noham,148,501096,0.0-1.0-0.147
<b>Specific policies are often very important to me.,Highly disagree,149/150,Somewhat agree,3,1698242617446,1698242620331,\Somewhat agree\,\Somewhat agree\,\3\,1698242619415,1698242619415,1969,1969,2885,buq,qns-item-noham,149,503984,0.0-1.0-0.148
<b>Most people are woefully under-informed.,Highly disagree,150/150,Somewhat agree,3,1698242620333,1698242623055,\Somewhat agree\,\Somewhat agree\,\3\,1698242622299,1698242622299,1966,1966,2722,buq,qns-item-noham,150,506708,0.0-1.0-0.149
