Question,qns_options,quest_num,answer,answer_num,question_load_timestamp,next_btn_timestamp,text_selected,final_text_selected,option_num_selected,preview_timestamps,final_text_selected_time_stamp,rt_first_option_click,rt_final_option_click,rt_submit_click,questionnaire,trial_type,trial_index,time_elapsed,internal_node_id
<b>Considering other people?s perspectives can help us figure out what?s true or false.,Highly disagree,1/150,Somewhat agree,3,1698242652945,1698242675806,\Somewhat agree\,\Somewhat agree\,\3\,1698242673047,1698242673047,20102,20102,22861,buq,qns-item-noham,1,61478,0.0-1.0-0.0
<b>Knowing what?s true and knowing what to do about it are usually basically the same.,Highly disagree,2/150,Somewhat agree,3,1698242675808,1698242686727,\Somewhat agree\,\Somewhat agree\,\3\,1698242680515,1698242680515,4707,4707,10919,buq,qns-item-noham,2,72400,0.0-1.0-0.1
<b>Most people just believe whatever is convenient for them.,Highly disagree,3/150,Highly agree,4,1698242686732,1698242692030,\Highly agree\,\Highly agree\,\4\,1698242691143,1698242691143,4411,4411,5298,buq,qns-item-noham,3,77702,0.0-1.0-0.2
<b>Even people who are wrong about most things can be right sometimes.,Highly disagree,4/150,Somewhat agree,3,1698242692033,1698242705494,\Somewhat agree\,\Somewhat agree\,\3\,1698242704591,1698242704591,12558,12558,13461,buq,qns-item-noham,4,91166,0.0-1.0-0.3
"<b>If the political party I support does something that upsets me, then the party may have changed, and I need to re-evaluate my support.",Highly disagree,5/150,Somewhat agree,3,1698242705497,1698242720927,\Somewhat agree\,\Somewhat agree\,\3\,1698242720350,1698242720350,14853,14853,15430,buq,qns-item-noham,5,106599,0.0-1.0-0.4
"<b>When people disagree, one side is usually completely right.",Highly disagree,6/150,Somewhat agree,3,1698242720930,1698242727841,\Somewhat agree\,\Somewhat agree\,\3\,1698242727048,1698242727048,6118,6118,6911,buq,qns-item-noham,6,113513,0.0-1.0-0.5
<b>People have lots of false beliefs.,Highly disagree,7/150,Somewhat disagree,2,1698242727843,1698242732937,\Somewhat disagree\,\Somewhat disagree\,\2\,1698242731822,1698242731822,3979,3979,5094,buq,qns-item-noham,7,118609,0.0-1.0-0.6
<b>Having some big beliefs helps me sort out minor ones.,Highly disagree,8/150,Somewhat agree,3,1698242732939,1698242736511,\Somewhat agree\,\Somewhat agree\,\3\,1698242735806,1698242735806,2867,2867,3572,buq,qns-item-noham,8,122183,0.0-1.0-0.7
<b>Political questions are usually pretty complicated.,Highly disagree,9/150,Somewhat disagree,2,1698242736513,1698242738183,\Somewhat disagree\,\Somewhat disagree\,\2\,1698242737493,1698242737493,980,980,1670,buq,qns-item-noham,9,123855,0.0-1.0-0.8
<b>Figuring out what?s important in life requires learning a lot of facts.,Highly disagree,10/150,Somewhat agree,3,1698242738188,1698242739926,\Somewhat agree\,\Somewhat agree\,\3\,1698242739312,1698242739312,1124,1124,1738,buq,qns-item-noham,10,125598,0.0-1.0-0.9
<b>It is difficult for me to remember the last time I was surprised by politics.,Highly disagree,11/150,Somewhat agree,3,1698242739928,1698242742206,\Somewhat agree\,\Somewhat agree\,\3\,1698242741047,1698242741047,1119,1119,2278,buq,qns-item-noham,11,127878,0.0-1.0-0.10
<b>People?s false beliefs are understandable.,Highly disagree,12/150,Highly disagree,1,1698242742208,1698242746693,\Highly disagree\,\Highly disagree\,\1\,1698242746007,1698242746007,3799,3799,4485,buq,qns-item-noham,12,132365,0.0-1.0-0.11
<b>I spend a lot of time trying to be informed about politics.,Highly disagree,13/150,Somewhat agree,3,1698242746695,1698242749326,\Somewhat agree\,\Somewhat agree\,\3\,1698242748559,1698242748559,1864,1864,2631,buq,qns-item-noham,13,134998,0.0-1.0-0.12
<b>I think a lot about whether my beliefs are right.,Highly disagree,14/150,Somewhat agree,3,1698242749328,1698242751262,\Somewhat agree\,\Somewhat agree\,\3\,1698242750439,1698242750439,1111,1111,1934,buq,qns-item-noham,14,136934,0.0-1.0-0.13
<b>Statistics can be pretty misleading sometimes.,Highly disagree,15/150,Somewhat agree,3,1698242751263,1698242755655,\Somewhat agree\,\Somewhat agree\,\3\,1698242754966,1698242754966,3703,3703,4392,buq,qns-item-noham,15,141327,0.0-1.0-0.14
<b>Figuring out what?s true and what?s false takes a lot of time and effort.,Highly disagree,16/150,Somewhat agree,3,1698242755657,1698242758302,\Somewhat agree\,\Somewhat agree\,\3\,1698242757542,1698242757542,1885,1885,2645,buq,qns-item-noham,16,143974,0.0-1.0-0.15
"<b>If a friend does something bad to me, it was likely an error on their part.",Highly disagree,17/150,Somewhat agree,3,1698242758305,1698242761358,\Somewhat agree\,\Somewhat agree\,\3\,1698242760142,1698242760142,1837,1837,3053,buq,qns-item-noham,17,147031,0.0-1.0-0.16
<b>I have lots of beliefs that I?m only sort of sure about.,Highly disagree,18/150,Somewhat agree,3,1698242761361,1698242765751,\Somewhat agree\,\Somewhat agree\,\3\,1698242765126,1698242765126,3765,3765,4390,buq,qns-item-noham,18,151423,0.0-1.0-0.17
"<b>If I go to my favorite restaurant and the food is surprisingly bad, it reminds me there are many disappointments in life.",Highly disagree,19/150,Somewhat agree,3,1698242765755,1698242770183,\Somewhat agree\,\Somewhat agree\,\3\,1698242769231,1698242769231,3476,3476,4428,buq,qns-item-noham,19,155855,0.0-1.0-0.18
<b>Sometimes my beliefs are inconvenient for me.,Highly disagree,20/150,Somewhat agree,3,1698242770185,1698242774464,\Somewhat agree\,\Somewhat agree\,\3\,1698242773728,1698242773728,3543,3543,4279,buq,qns-item-noham,20,160137,0.0-1.0-0.19
<b>Paying attention to multiple news sources is important.,Highly disagree,21/150,Highly agree,4,1698242774467,1698242788015,\Highly agree\,\Highly agree\,\4\,1698242786566,1698242786566,12099,12099,13548,buq,qns-item-noham,21,173687,0.0-1.0-0.20
"<b>If you are paying attention, please select ?Somewhat agree?",Highly disagree,22/150,Somewhat agree,3,1698242788017,1698242792414,\Somewhat agree\,\Somewhat agree\,\3\,1698242791550,1698242791550,3533,3533,4397,buq,qns-item-noham,22,178086,0.0-1.0-0.21
"<b>When I talk to others, I often worry I?ll convince them of something I didn?t mean to.",Highly disagree,23/150,Highly agree,4,1698242792417,1698242795982,\Highly agree\,\Highly agree\,\4\,1698242794718,1698242794718,2301,2301,3565,buq,qns-item-noham,23,181654,0.0-1.0-0.22
<b>I would need to learn something utterly shocking about my party in order to change my political views.,Highly disagree,24/150,Somewhat agree,3,1698242795983,1698242797767,\Somewhat agree\,\Somewhat agree\,\3\,1698242797079,1698242797079,1096,1096,1784,buq,qns-item-noham,24,183439,0.0-1.0-0.23
"<b>When I have new experiences, I tend to think of them as unique.",Highly disagree,25/150,Highly agree,4,1698242797771,1698242802071,\Somewhat agree\,\Highly agree\,\3\,1698242799342,1698242801110,1571,3339,4300,buq,qns-item-noham,25,187743,0.0-1.0-0.24
<b>Reading lots of things is important for understanding the world.,Highly disagree,26/150,Highly agree,4,1698242802072,1698242804392,\Highly agree\,\Highly agree\,\4\,1698242803414,1698242803414,1342,1342,2320,buq,qns-item-noham,26,190064,0.0-1.0-0.25
<b>The world is complicated.,Highly disagree,27/150,Somewhat agree,3,1698242804396,1698242807543,\Somewhat agree\,\Somewhat agree\,\3\,1698242806582,1698242806582,2186,2186,3147,buq,qns-item-noham,27,193215,0.0-1.0-0.26
<b>I change my mind about specific policies pretty frequently.,Highly disagree,28/150,Highly agree,4,1698242807545,1698242810127,\Highly agree\,\Highly agree\,\4\,1698242809326,1698242809326,1781,1781,2582,buq,qns-item-noham,28,195799,0.0-1.0-0.27
"<b>If a politician in my political party supports something I disagree with, I give them the benefit of the doubt, as such issues often involve hidden complexities that aren?t obvious.   ",Highly disagree,29/150,Somewhat agree,3,1698242810129,1698242813278,\Somewhat agree\,\Somewhat agree\,\3\,1698242812542,1698242812542,2413,2413,3149,buq,qns-item-noham,29,198950,0.0-1.0-0.28
<b>People?s bad politics are usually motivated by hatefulness.,Highly disagree,30/150,Somewhat agree,3,1698242813280,1698242815400,\Somewhat agree\,\Somewhat agree\,\3\,1698242814518,1698242814518,1238,1238,2120,buq,qns-item-noham,30,201072,0.0-1.0-0.29
"<b>Most new experiences are just like old ones, but a little bit different.",Highly disagree,31/150,Somewhat disagree,2,1698242815400,1698242818647,\Somewhat disagree\,\Somewhat disagree\,\2\,1698242817775,1698242817775,2375,2375,3247,buq,qns-item-noham,31,204319,0.0-1.0-0.30
<b>I think a lot about how to reconcile my beliefs with one another.,Highly disagree,32/150,Somewhat agree,3,1698242818649,1698242821639,\Somewhat agree\,\Somewhat agree\,\3\,1698242821015,1698242821015,2366,2366,2990,buq,qns-item-noham,32,207311,0.0-1.0-0.31
<b>Personal experience rarely leads people astray.,Highly disagree,33/150,Somewhat agree,3,1698242821643,1698242823759,\Somewhat agree\,\Somewhat agree\,\3\,1698242822895,1698242822895,1252,1252,2116,buq,qns-item-noham,33,209431,0.0-1.0-0.32
<b>I might have false beliefs about important topics.,Highly disagree,34/150,Somewhat disagree,2,1698242823761,1698242827591,\Somewhat agree\,\Somewhat disagree\,\3\,1698242824735,1698242826341,974,2580,3830,buq,qns-item-noham,34,213263,0.0-1.0-0.33
"<b>If a good friend of mine does something unexpected that upsets me, I feel like I don?t know them anymore.",Highly disagree,35/150,Somewhat disagree,2,1698242827592,1698242832144,\Somewhat disagree\,\Somewhat disagree\,\2\,1698242831478,1698242831478,3886,3886,4552,buq,qns-item-noham,35,217816,0.0-1.0-0.34
<b>Other people?s beliefs are often incoherent.,Highly disagree,36/150,Somewhat disagree,2,1698242832145,1698242845270,\Somewhat disagree\,\Somewhat disagree\,\2\,1698242844502,1698242844502,12357,12357,13125,buq,qns-item-noham,36,230942,0.0-1.0-0.35
<b>It?s important to have friends who think about things differently than I do.,Highly disagree,37/150,Somewhat agree,3,1698242845273,1698242847537,\Somewhat agree\,\Somewhat agree\,\3\,1698242846967,1698242846967,1694,1694,2264,buq,qns-item-noham,37,233209,0.0-1.0-0.36
"<b>Every now and then, a new experience will unsettle beliefs I?ve had for a while.",Highly disagree,38/150,Somewhat agree,3,1698242847538,1698242849111,\Somewhat agree\,\Somewhat agree\,\3\,1698242848478,1698242848478,940,940,1573,buq,qns-item-noham,38,234783,0.0-1.0-0.37
<b>Some policies I agree with in principle are so bad I don?t support them. ,Highly disagree,39/150,Somewhat agree,3,1698242849113,1698242850542,\Somewhat agree\,\Somewhat agree\,\3\,1698242849775,1698242849775,662,662,1429,buq,qns-item-noham,39,236214,0.0-1.0-0.38
<b>I?m pretty sure I?ve accidentally spread false information.,Highly disagree,40/150,Somewhat disagree,2,1698242850544,1698242853631,\Somewhat agree\,\Somewhat disagree\,\3\,1698242851238,1698242852726,694,2182,3087,buq,qns-item-noham,40,239303,0.0-1.0-0.39
"<b>If I go to my favorite restaurant and the food is unexpectedly bad, then they have changed owners.",Highly disagree,41/150,Somewhat disagree,2,1698242853635,1698242857351,\Somewhat disagree\,\Somewhat disagree\,\2\,1698242856654,1698242856654,3019,3019,3716,buq,qns-item-noham,41,243023,0.0-1.0-0.40
"<b>In politics, it?s important to trust your friends and family.",Highly disagree,42/150,Somewhat agree,3,1698242857354,1698242858767,\Somewhat agree\,\Somewhat agree\,\3\,1698242858119,1698242858119,765,765,1413,buq,qns-item-noham,42,244439,0.0-1.0-0.41
<b>It?s OK to have some conflicting beliefs.,Highly disagree,43/150,Somewhat agree,3,1698242858769,1698242860494,\Somewhat agree\,\Somewhat agree\,\3\,1698242859854,1698242859854,1085,1085,1725,buq,qns-item-noham,43,246166,0.0-1.0-0.42
<b>Sometimes the details of a matter seem to conflict with the big picture.,Highly disagree,44/150,Highly agree,4,1698242860496,1698242863383,\Highly agree\,\Highly agree\,\4\,1698242862735,1698242862735,2239,2239,2887,buq,qns-item-noham,44,249055,0.0-1.0-0.43
<b>Listening to people I disagree with makes my opinions better.,Highly disagree,45/150,Somewhat agree,3,1698242863386,1698242864686,\Somewhat agree\,\Somewhat agree\,\3\,1698242864006,1698242864006,620,620,1300,buq,qns-item-noham,45,250358,0.0-1.0-0.44
<b>Policies that sound bad are sometimes fine when you find out about their details.,Highly disagree,46/150,Somewhat agree,3,1698242864688,1698242868832,\Somewhat agree\,\Somewhat agree\,\3\,1698242867622,1698242867622,2934,2934,4144,buq,qns-item-noham,46,254504,0.0-1.0-0.45
"<b>The world is always changing, so my beliefs are sometimes out-dated.",Highly disagree,47/150,Somewhat agree,3,1698242868833,1698242873271,\Somewhat agree\,\Somewhat agree\,\3\,1698242872574,1698242872574,3741,3741,4438,buq,qns-item-noham,47,258943,0.0-1.0-0.46
"<b>If I receive a bad meal at my favorite restaurant and the food is surprisingly bad, I do not think much of it, and assume the chef is just having an ?off? day.",Highly disagree,48/150,Somewhat agree,3,1698242873272,1698242876694,\Somewhat agree\,\Somewhat agree\,\3\,1698242875790,1698242875790,2518,2518,3422,buq,qns-item-noham,48,262366,0.0-1.0-0.47
"<b>False information is unavoidable, to some extent.",Highly disagree,49/150,Highly disagree,1,1698242876699,1698242883550,\Highly disagree\,\Highly disagree\,\1\,1698242882776,1698242882776,6077,6077,6851,buq,qns-item-noham,49,269222,0.0-1.0-0.48
<b>My moral compass sometimes makes it harder to determine what?s true.,Highly disagree,50/150,Somewhat disagree,2,1698242883552,1698242887719,\Somewhat disagree\,\Somewhat disagree\,\2\,1698242886679,1698242886679,3127,3127,4167,buq,qns-item-noham,50,273391,0.0-1.0-0.49
"<b>When you disagree with someone, it?s important to listen to them carefully.",Highly disagree,51/150,Highly agree,4,1698242887721,1698242893806,\Highly agree\,\Highly agree\,\4\,1698242892838,1698242892838,5117,5117,6085,buq,qns-item-noham,51,279478,0.0-1.0-0.50
<b>Evidence pointing in the wrong direction isn?t really evidence at all.,Highly disagree,52/150,Somewhat agree,3,1698242893812,1698242898646,\Somewhat agree\,\Somewhat agree\,\3\,1698242897160,1698242897160,3348,3348,4834,buq,qns-item-noham,52,284318,0.0-1.0-0.51
"<b>If the political party I support messes up, it makes me think politics is rotten.",Highly disagree,53/150,Somewhat agree,3,1698242898648,1698242901111,\Somewhat agree\,\Somewhat agree\,\3\,1698242899782,1698242899782,1134,1134,2463,buq,qns-item-noham,53,286783,0.0-1.0-0.52
<b>Lots of important topics can only really be understood by some groups of people.,Highly disagree,54/150,Highly agree,4,1698242901112,1698242903630,\Highly agree\,\Highly agree\,\4\,1698242902846,1698242902846,1734,1734,2518,buq,qns-item-noham,54,289302,0.0-1.0-0.53
<b>Details almost always matter for being right about something.,Highly disagree,55/150,Highly agree,4,1698242903632,1698242907838,\Highly agree\,\Highly agree\,\4\,1698242905510,1698242906447,1878,2815,4206,buq,qns-item-noham,55,293510,0.0-1.0-0.54
"<b>The most important thing in politics is winning, not convincing people.",Highly disagree,56/150,Highly agree,4,1698242907841,1698242909918,\Highly agree\,\Highly agree\,\4\,1698242909182,1698242909182,1341,1341,2077,buq,qns-item-noham,56,295590,0.0-1.0-0.55
<b>Having conflicting beliefs means you haven?t thought about them enough.,Highly disagree,57/150,Somewhat agree,3,1698242909919,1698242911503,\Somewhat agree\,\Somewhat agree\,\3\,1698242910870,1698242910870,951,951,1584,buq,qns-item-noham,57,297175,0.0-1.0-0.56
<b>Other people have sometimes convinced me to change my mind on important topics.,Highly disagree,58/150,Highly agree,4,1698242911505,1698242912816,\Highly agree\,\Highly agree\,\4\,1698242912230,1698242912230,725,725,1311,buq,qns-item-noham,58,298488,0.0-1.0-0.57
<b>I do not often change my political opinions.,Highly disagree,59/150,Somewhat agree,3,1698242912817,1698242914350,\Somewhat agree\,\Somewhat agree\,\3\,1698242913654,1698242913654,837,837,1533,buq,qns-item-noham,59,300022,0.0-1.0-0.58
<b>Thinking about how different things relate to one another is critical in life.,Highly disagree,60/150,Somewhat agree,3,1698242914351,1698242917839,\Highly agree\,\Somewhat agree\,\4\,1698242915382,1698242916999,1031,2648,3488,buq,qns-item-noham,60,303511,0.0-1.0-0.59
<b>True beliefs can have unfortunate implications.,Highly disagree,61/150,Somewhat agree,3,1698242917842,1698242919599,\Somewhat agree\,\Somewhat agree\,\3\,1698242918670,1698242918670,828,828,1757,buq,qns-item-noham,61,305271,0.0-1.0-0.60
<b>It?s difficult to not have at least some conflicting beliefs.,Highly disagree,62/150,Highly agree,4,1698242919599,1698242921158,\Highly agree\,\Highly agree\,\4\,1698242920310,1698242920310,711,711,1559,buq,qns-item-noham,62,306830,0.0-1.0-0.61
"<b>When I learn new things, I think deeply about how my opinions should change.",Highly disagree,63/150,Highly agree,4,1698242921160,1698242923743,\Highly agree\,\Highly agree\,\4\,1698242922559,1698242922559,1399,1399,2583,buq,qns-item-noham,63,309415,0.0-1.0-0.62
<b>I think a lot about how to interpret different sorts of evidence.,Highly disagree,64/150,Somewhat agree,3,1698242923745,1698242925790,\Somewhat agree\,\Somewhat agree\,\3\,1698242925055,1698242925055,1310,1310,2045,buq,qns-item-noham,64,311462,0.0-1.0-0.63
<b>Politics is about thinking together and finding compromises.,Highly disagree,65/150,Somewhat agree,3,1698242925793,1698242927974,\Somewhat agree\,\Somewhat agree\,\3\,1698242927239,1698242927239,1446,1446,2181,buq,qns-item-noham,65,313646,0.0-1.0-0.64
<b>Wishful thinking causes a lot of problems.,Highly disagree,66/150,Highly disagree,1,1698242927977,1698242933623,\Highly disagree\,\Highly disagree\,\1\,1698242932815,1698242932815,4838,4838,5646,buq,qns-item-noham,66,319295,0.0-1.0-0.65
<b>I judge a food item only once I try it many times.,Highly disagree,67/150,Highly agree,4,1698242933625,1698242936398,\Highly agree\,\Highly agree\,\4\,1698242935703,1698242935703,2078,2078,2773,buq,qns-item-noham,67,322070,0.0-1.0-0.66
"<b>When a person holds conflicting beliefs, they should really try to figure out what?s wrong.",Highly disagree,68/150,Somewhat agree,3,1698242936399,1698242940088,\Somewhat agree\,\Somewhat agree\,\3\,1698242937534,1698242937534,1135,1135,3689,buq,qns-item-noham,68,325760,0.0-1.0-0.67
<b>Knowing what?s important in life is easy.,Highly disagree,69/150,Highly agree,4,1698242940089,1698242943357,\Highly agree\,\Highly agree\,\4\,1698242942055,1698242942055,1966,1966,3268,buq,qns-item-noham,69,329029,0.0-1.0-0.68
<b>Lots of smart people disagree about basic political questions.,Highly disagree,70/150,Somewhat agree,3,1698242943359,1698242948969,\Somewhat agree\,\Somewhat agree\,\3\,1698242948214,1698242948214,4855,4855,5610,buq,qns-item-noham,70,334641,0.0-1.0-0.69
<b>I swim across the Atlantic Ocean to get to work every day.,Highly disagree,71/150,Highly disagree,1,1698242948972,1698242954207,\Highly disagree\,\Highly disagree\,\1\,1698242953294,1698242953294,4322,4322,5235,buq,qns-item-noham,71,339879,0.0-1.0-0.70
"<b>Sometimes, you just have to ignore evidence that you know is wrong.",Highly disagree,72/150,Somewhat agree,3,1698242954208,1698242972574,\Somewhat agree\,\Somewhat agree\,\3\,1698242971894,1698242971894,17686,17686,18366,buq,qns-item-noham,72,358246,0.0-1.0-0.71
<b>I have had some false beliefs.,Highly disagree,73/150,Somewhat agree,3,1698242972575,1698242974266,\Somewhat agree\,\Somewhat agree\,\3\,1698242973590,1698242973590,1015,1015,1691,buq,qns-item-noham,73,359938,0.0-1.0-0.72
"<b>If one friend does something that upsets me, I sometimes start to distrust people in general.",Highly disagree,74/150,Somewhat agree,3,1698242974269,1698242976510,\Somewhat agree\,\Somewhat agree\,\3\,1698242975821,1698242975821,1552,1552,2241,buq,qns-item-noham,74,362182,0.0-1.0-0.73
<b>I easily apply what I learn in one situation to another.,Highly disagree,75/150,Somewhat agree,3,1698242976511,1698242980222,\Somewhat agree\,\Somewhat agree\,\3\,1698242979279,1698242979279,2768,2768,3711,buq,qns-item-noham,75,365894,0.0-1.0-0.74
<b>The facts about most important matters are easy to find.,Highly disagree,76/150,Somewhat agree,3,1698242980223,1698242982589,\Somewhat agree\,\Somewhat agree\,\3\,1698242981622,1698242981622,1399,1399,2366,buq,qns-item-noham,76,368261,0.0-1.0-0.75
<b>It?s better to know what?s true than to know what?s moral.,Highly disagree,77/150,Somewhat agree,3,1698242982591,1698242986318,\Somewhat agree\,\Somewhat agree\,\3\,1698242985512,1698242985512,2921,2921,3727,buq,qns-item-noham,77,371990,0.0-1.0-0.76
<b>It?s good to be skeptical of people you agree with.,Highly disagree,78/150,Highly agree,4,1698242986320,1698242990944,\Highly agree\,\Highly agree\,\4\,1698242989638,1698242989638,3318,3318,4624,buq,qns-item-noham,78,376616,0.0-1.0-0.77
<b>Sometimes reasonable beliefs are wrong.,Highly disagree,79/150,Somewhat agree,3,1698242990947,1698242996583,\Somewhat disagree\,\Somewhat agree\,\2\,1698242994678,1698242995983,3731,5036,5636,buq,qns-item-noham,79,382255,0.0-1.0-0.78
<b>I used to think the world was less complicated than I do now.,Highly disagree,80/150,Somewhat agree,3,1698242996584,1698242998343,\Somewhat agree\,\Somewhat agree\,\3\,1698242997550,1698242997550,966,966,1759,buq,qns-item-noham,80,384016,0.0-1.0-0.79
<b>People are usually completely right or completely wrong.,Highly disagree,81/150,Somewhat disagree,2,1698242998346,1698243004790,\Somewhat disagree\,\Somewhat disagree\,\2\,1698243003998,1698243003998,5652,5652,6444,buq,qns-item-noham,81,390462,0.0-1.0-0.80
<b>I spend a lot of time considering alternatives to my beliefs.,Highly disagree,82/150,Somewhat agree,3,1698243004795,1698243008310,\Somewhat agree\,\Somewhat agree\,\3\,1698243007134,1698243007134,2339,2339,3515,buq,qns-item-noham,82,393982,0.0-1.0-0.81
"<b>Political enemies need to be defeated, not convinced.",Highly disagree,83/150,Somewhat agree,3,1698243008312,1698243011160,\Somewhat agree\,\Somewhat agree\,\3\,1698243010591,1698243010591,2279,2279,2848,buq,qns-item-noham,83,396832,0.0-1.0-0.82
"<b>When forming an opinion about a restaurant, I am more swayed by my  latest meal there than  previous meals I?ve had there.",Highly disagree,84/150,Somewhat agree,3,1698243011161,1698243013399,\Somewhat agree\,\Somewhat agree\,\3\,1698243012751,1698243012751,1590,1590,2238,buq,qns-item-noham,84,399071,0.0-1.0-0.83
<b>I try to remain skeptical about most topics.,Highly disagree,85/150,Somewhat agree,3,1698243013400,1698243016695,\Somewhat agree\,\Somewhat agree\,\3\,1698243015934,1698243015934,2534,2534,3295,buq,qns-item-noham,85,402367,0.0-1.0-0.84
<b>Being wrong is usually obvious in retrospect.,Highly disagree,86/150,Somewhat disagree,2,1698243016697,1698243020446,\Somewhat disagree\,\Somewhat disagree\,\2\,1698243019166,1698243019166,2469,2469,3749,buq,qns-item-noham,86,406118,0.0-1.0-0.85
<b>It can be hard to realize that my beliefs are in conflict.,Highly disagree,87/150,Somewhat agree,3,1698243020447,1698243023446,\Somewhat agree\,\Somewhat agree\,\3\,1698243022494,1698243022494,2047,2047,2999,buq,qns-item-noham,87,409118,0.0-1.0-0.86
<b>I form my political views only after meticulously gathering historical and present information about their policies.,Highly disagree,88/150,Somewhat agree,3,1698243023447,1698243026566,\Somewhat agree\,\Somewhat agree\,\3\,1698243024655,1698243024655,1208,1208,3119,buq,qns-item-noham,88,412239,0.0-1.0-0.87
<b>Skeptical people are usually just bad-tempered.,Highly disagree,89/150,Somewhat disagree,2,1698243026568,1698243031775,\Somewhat disagree\,\Somewhat disagree\,\2\,1698243031046,1698243031046,4478,4478,5207,buq,qns-item-noham,89,417447,0.0-1.0-0.88
<b>It is difficult for me to remember the last time I was surprised by politics.,Highly disagree,90/150,Somewhat disagree,2,1698243031777,1698243038045,\Somewhat disagree\,\Somewhat disagree\,\2\,1698243037447,1698243037447,5670,5670,6268,buq,qns-item-noham,90,423717,0.0-1.0-0.89
"<b>When I find out I?m wrong, I think a lot about my related beliefs.",Highly disagree,91/150,Somewhat agree,3,1698243038047,1698243042805,\Somewhat agree\,\Somewhat agree\,\3\,1698243042157,1698243042157,4110,4110,4758,buq,qns-item-noham,91,428478,0.0-1.0-0.90
"<b>If the political party I support messes up, it makes me think you can?t trust anyone these days",Highly disagree,92/150,Somewhat agree,3,1698243042808,1698243046119,\Somewhat agree\,\Somewhat agree\,\3\,1698243044078,1698243044078,1270,1270,3311,buq,qns-item-noham,92,431791,0.0-1.0-0.91
<b>People?s brains turn off when they talk about politics.,Highly disagree,93/150,Somewhat disagree,2,1698243046121,1698243052119,\Highly agree\,\Somewhat disagree\,\4\,1698243047694,1698243051510,1573,5389,5998,buq,qns-item-noham,93,437791,0.0-1.0-0.92
<b>People who are wrong are usually just ignoring the obvious.,Highly disagree,94/150,Highly disagree,1,1698243052120,1698243058814,\Highly disagree\,\Highly disagree\,\1\,1698243058182,1698243058182,6062,6062,6694,buq,qns-item-noham,94,444486,0.0-1.0-0.93
"<b>The world isn?t that complicated, but it?s still hard to figure out how it works.",Highly disagree,95/150,Somewhat agree,3,1698243058818,1698243067326,\Somewhat agree\,\Somewhat agree\,\3\,1698243066470,1698243066470,7652,7652,8508,buq,qns-item-noham,95,452998,0.0-1.0-0.94
"<b>When forming my views on people, I rely more on what they are like now rather than rely on my past experience with them.",Highly disagree,96/150,Somewhat agree,3,1698243067328,1698243069111,\Somewhat agree\,\Somewhat agree\,\3\,1698243068245,1698243068245,917,917,1783,buq,qns-item-noham,96,454783,0.0-1.0-0.95
"<b>When people contradict my beliefs, I usually know about their evidence already.",Highly disagree,97/150,Somewhat agree,3,1698243069112,1698243071111,\Somewhat agree\,\Somewhat agree\,\3\,1698243070231,1698243070231,1119,1119,1999,buq,qns-item-noham,97,456783,0.0-1.0-0.96
<b>Being wrong is a matter of degree.,Highly disagree,98/150,Somewhat agree,3,1698243071112,1698243077758,\Somewhat agree\,\Somewhat agree\,\3\,1698243077110,1698243077110,5998,5998,6646,buq,qns-item-noham,98,463430,0.0-1.0-0.97
<b>Figuring out what?s true and what?s false mainly requires a strong moral compass.,Highly disagree,99/150,Somewhat agree,3,1698243077760,1698243080814,\Somewhat agree\,\Somewhat agree\,\3\,1698243079677,1698243079677,1917,1917,3054,buq,qns-item-noham,99,466487,0.0-1.0-0.98
<b>Most of the beliefs people have are at least somewhat understandable.,Highly disagree,100/150,Somewhat agree,3,1698243080816,1698243082326,\Somewhat agree\,\Somewhat agree\,\3\,1698243081622,1698243081622,806,806,1510,buq,qns-item-noham,100,467998,0.0-1.0-0.99
"<b>Usually I?m wrong about simple things, not complicated ones.",Highly disagree,101/150,Somewhat disagree,2,1698243082327,1698243086670,\Somewhat agree\,\Somewhat disagree\,\3\,1698243084286,1698243086006,1959,3679,4343,buq,qns-item-noham,101,472342,0.0-1.0-0.100
<b>Getting all the information I want about important things is hard.,Highly disagree,102/150,Somewhat agree,3,1698243086672,1698243088167,\Somewhat agree\,\Somewhat agree\,\3\,1698243087469,1698243087469,797,797,1495,buq,qns-item-noham,102,473839,0.0-1.0-0.101
<b>Most false beliefs spread because people try to deceive one another.,Highly disagree,103/150,Somewhat agree,3,1698243088169,1698243089821,\Somewhat agree\,\Somewhat agree\,\3\,1698243088823,1698243088823,654,654,1652,buq,qns-item-noham,103,475493,0.0-1.0-0.102
<b>I can usually find something to agree with in most people?s beliefs.,Highly disagree,104/150,Somewhat agree,3,1698243089824,1698243092102,\Somewhat agree\,\Somewhat agree\,\3\,1698243091071,1698243091071,1247,1247,2278,buq,qns-item-noham,104,477774,0.0-1.0-0.103
<b>I only form my views of people once I get to know them very well.,Highly disagree,105/150,Somewhat agree,3,1698243092103,1698243093801,\Somewhat agree\,\Somewhat agree\,\3\,1698243093142,1698243093142,1039,1039,1698,buq,qns-item-noham,105,479473,0.0-1.0-0.104
"<b>When people tell me important things about the world, I usually believe them.",Highly disagree,106/150,Somewhat agree,3,1698243093802,1698243096129,\Somewhat agree\,\Somewhat agree\,\3\,1698243095270,1698243095270,1468,1468,2327,buq,qns-item-noham,106,481801,0.0-1.0-0.105
"<b>If a friend does something that upsets me, it reminds me what an unpredictable place the world is.",Highly disagree,107/150,Highly disagree,1,1698243096131,1698243100360,\Highly disagree\,\Highly disagree\,\1\,1698243099614,1698243099614,3483,3483,4229,buq,qns-item-noham,107,486032,0.0-1.0-0.106
<b>Having some conflicting beliefs is inevitable.,Highly disagree,108/150,Somewhat agree,3,1698243100362,1698243104853,\Somewhat agree\,\Somewhat agree\,\3\,1698243103375,1698243103375,3013,3013,4491,buq,qns-item-noham,108,490525,0.0-1.0-0.107
<b>People are wrong because they haven?t thought much about things.,Highly disagree,109/150,Highly disagree,1,1698243104855,1698243110914,\Highly disagree\,\Highly disagree\,\1\,1698243110120,1698243110120,5265,5265,6059,buq,qns-item-noham,109,496586,0.0-1.0-0.108
<b>People tend to believe whatever is good for their friends.,Highly disagree,110/150,Somewhat agree,3,1698243110914,1698243116127,\Somewhat agree\,\Somewhat agree\,\3\,1698243114758,1698243114758,3844,3844,5213,buq,qns-item-noham,110,501800,0.0-1.0-0.109
"<b>When I talk about important topics, I try to make sure people know I?m not always right.",Highly disagree,111/150,Highly disagree,1,1698243116129,1698243127014,\Highly disagree\,\Highly disagree\,\1\,1698243126038,1698243126038,9909,9909,10885,buq,qns-item-noham,111,512686,0.0-1.0-0.110
<b>I used to be more certain my beliefs were true.,Highly disagree,112/150,Highly agree,4,1698243127016,1698243131278,\Highly agree\,\Highly agree\,\4\,1698243130581,1698243130581,3565,3565,4262,buq,qns-item-noham,112,516950,0.0-1.0-0.111
<b>It?s often pretty easy to figure out whether something is true based on who said it.,Highly disagree,113/150,Somewhat agree,3,1698243131280,1698243136072,\Somewhat agree\,\Somewhat agree\,\3\,1698243135103,1698243135103,3823,3823,4792,buq,qns-item-noham,113,521744,0.0-1.0-0.112
<b>Having bad food in my favorite restaurant will make me think the restaurant is no longer good.,Highly disagree,114/150,Somewhat agree,3,1698243136075,1698243137839,\Somewhat agree\,\Somewhat agree\,\3\,1698243137109,1698243137109,1034,1034,1764,buq,qns-item-noham,114,523511,0.0-1.0-0.113
<b>I transform into a hummingbird every day.,Highly disagree,115/150,Highly disagree,1,1698243137841,1698243149710,\Highly disagree\,\Highly disagree\,\1\,1698243148262,1698243148262,10421,10421,11869,buq,qns-item-noham,115,535382,0.0-1.0-0.114
"<b>Unfortunately, when people are wrong, it?s usually because they?re bad.",Highly disagree,116/150,Highly disagree,1,1698243149712,1698243156422,\Highly disagree\,\Highly disagree\,\1\,1698243155670,1698243155670,5958,5958,6710,buq,qns-item-noham,116,542094,0.0-1.0-0.115
<b>I think a lot about arguments against my views.,Highly disagree,117/150,Highly agree,4,1698243156424,1698243176631,\Highly agree\,\Highly agree\,\4\,1698243175822,1698243175822,19398,19398,20207,buq,qns-item-noham,117,562303,0.0-1.0-0.116
<b>Details tend to matter a lot for knowing whether a policy is good.,Highly disagree,118/150,Highly agree,4,1698243176634,1698243180574,\Highly agree\,\Highly agree\,\4\,1698243179855,1698243179855,3221,3221,3940,buq,qns-item-noham,118,566246,0.0-1.0-0.117
<b>Personal experience is usually more important than facts and figures.,Highly disagree,119/150,Highly agree,4,1698243180575,1698243183439,\Highly agree\,\Highly agree\,\4\,1698243182607,1698243182607,2032,2032,2864,buq,qns-item-noham,119,569111,0.0-1.0-0.118
<b>I?ve been tricked before about important matters.,Highly disagree,120/150,Highly agree,4,1698243183439,1698243188263,\Highly agree\,\Highly agree\,\4\,1698243187206,1698243187206,3767,3767,4824,buq,qns-item-noham,120,573935,0.0-1.0-0.119
<b>I would need to be totally wowed if I were to change my opinion of a restaurant I don?t like.,Highly disagree,121/150,Highly disagree,1,1698243188264,1698243194966,\Highly disagree\,\Highly disagree\,\1\,1698243194264,1698243194264,6000,6000,6702,buq,qns-item-noham,121,580638,0.0-1.0-0.120
<b>I care a lot about politics.,Highly disagree,122/150,Somewhat agree,3,1698243194968,1698243198983,\Somewhat agree\,\Somewhat agree\,\3\,1698243197830,1698243197830,2862,2862,4015,buq,qns-item-noham,122,584655,0.0-1.0-0.121
<b>People with conflicting beliefs usually have some facts they disagree on.,Highly disagree,123/150,Somewhat agree,3,1698243198983,1698243214398,\Somewhat agree\,\Somewhat agree\,\3\,1698243213792,1698243213792,14809,14809,15415,buq,qns-item-noham,123,600070,0.0-1.0-0.122
<b>There are some topics I?ve been really wrong about.,Highly disagree,124/150,Somewhat disagree,2,1698243214400,1698243219407,\Somewhat disagree\,\Somewhat disagree\,\2\,1698243218135,1698243218135,3735,3735,5007,buq,qns-item-noham,124,605079,0.0-1.0-0.123
<b>Most beliefs can be supported with at least some evidence.,Highly disagree,125/150,Somewhat agree,3,1698243219409,1698243224582,\Somewhat agree\,\Somewhat agree\,\3\,1698243223087,1698243223087,3678,3678,5173,buq,qns-item-noham,125,610254,0.0-1.0-0.124
<b>Other people make life out to be more complicated than it really is.,Highly disagree,126/150,Highly agree,4,1698243224583,1698243229366,\Highly agree\,\Highly agree\,\4\,1698243228694,1698243228694,4111,4111,4783,buq,qns-item-noham,126,615038,0.0-1.0-0.125
"<b>My political views are being shaped continuously as I gather more information, rather than relying on what I?ve known to be true of my party in the past. ",Highly disagree,127/150,Somewhat agree,3,1698243229368,1698243233607,\Somewhat agree\,\Somewhat agree\,\3\,1698243232342,1698243232342,2974,2974,4239,buq,qns-item-noham,127,619279,0.0-1.0-0.126
<b>It?s pretty unusual for true things to seem false.,Highly disagree,128/150,Highly agree,4,1698243233609,1698243249757,\Highly disagree\,\Highly agree\,\1\,1698243246718,1698243248078,13109,14469,16148,buq,qns-item-noham,128,635430,0.0-1.0-0.127
"<b>Policy details don?t matter much, just the big picture.",Highly disagree,129/150,Somewhat disagree,2,1698243249760,1698243260120,\Somewhat disagree\,\Somewhat disagree\,\2\,1698243259358,1698243259358,9598,9598,10360,buq,qns-item-noham,129,645792,0.0-1.0-0.128
<b>I know my friends so well they can hardly ever surprise me.,Highly disagree,130/150,Somewhat agree,3,1698243260123,1698243264846,\Somewhat agree\,\Somewhat agree\,\3\,1698243264221,1698243264221,4098,4098,4723,buq,qns-item-noham,130,650518,0.0-1.0-0.129
"<b>When I talk to people, I often think about why they have the beliefs they do.",Highly disagree,131/150,Somewhat agree,3,1698243264847,1698243266616,\Somewhat agree\,\Somewhat agree\,\3\,1698243265926,1698243265926,1079,1079,1769,buq,qns-item-noham,131,652288,0.0-1.0-0.130
<b>I do not often change my views on people.,Highly disagree,132/150,Somewhat disagree,2,1698243266618,1698243270918,\Somewhat disagree\,\Somewhat disagree\,\2\,1698243270294,1698243270294,3676,3676,4300,buq,qns-item-noham,132,656590,0.0-1.0-0.131
<b>I often wish I had more time to spend figuring out what?s true and what?s false in life.,Highly disagree,133/150,Somewhat agree,3,1698243270921,1698243277141,\Somewhat agree\,\Somewhat agree\,\3\,1698243276062,1698243276062,5141,5141,6220,buq,qns-item-noham,133,662814,0.0-1.0-0.132
<b>I?m more certain about my beliefs than I used to be.,Highly disagree,134/150,Highly agree,4,1698243277143,1698243280734,\Highly agree\,\Highly agree\,\4\,1698243279887,1698243279887,2744,2744,3591,buq,qns-item-noham,134,666406,0.0-1.0-0.133
"<b>Whenever I find out new information, I update my views on politics accordingly.",Highly disagree,135/150,Highly agree,4,1698243280736,1698243285350,\Highly agree\,\Highly agree\,\4\,1698243284310,1698243284310,3574,3574,4614,buq,qns-item-noham,135,671022,0.0-1.0-0.134
<b>People often tell falsehoods unintentionally.,Highly disagree,136/150,Highly disagree,1,1698243285352,1698243296497,\Highly disagree\,\Highly disagree\,\1\,1698243295878,1698243295878,10526,10526,11145,buq,qns-item-noham,136,682169,0.0-1.0-0.135
<b>Most people don?t know much about most things.,Highly disagree,137/150,Highly disagree,1,1698243296500,1698243301134,\Highly disagree\,\Highly disagree\,\1\,1698243300438,1698243300438,3938,3938,4634,buq,qns-item-noham,137,686806,0.0-1.0-0.136
"<b>If I find out something new about someone, I easily change my views about them.",Highly disagree,138/150,Somewhat disagree,2,1698243301136,1698243316326,\Somewhat agree\,\Somewhat disagree\,\3\,1698243313662,1698243315655,12526,14519,15190,buq,qns-item-noham,138,701998,0.0-1.0-0.137
<b>Having true beliefs is difficult.,Highly disagree,139/150,Somewhat agree,3,1698243316328,1698243320176,\Somewhat agree\,\Somewhat agree\,\3\,1698243319630,1698243319630,3302,3302,3848,buq,qns-item-noham,139,705848,0.0-1.0-0.138
<b>I don?t try new foods since I know I won?t like them.,Highly disagree,140/150,Highly disagree,1,1698243320179,1698243326070,\Highly disagree\,\Highly disagree\,\1\,1698243324663,1698243324663,4484,4484,5891,buq,qns-item-noham,140,711742,0.0-1.0-0.139
<b>It?s easy to figure out what?s true or false based on who?s saying it.,Highly disagree,141/150,Somewhat agree,3,1698243326071,1698243331913,\Somewhat agree\,\Somewhat agree\,\3\,1698243331293,1698243331293,5222,5222,5842,buq,qns-item-noham,141,717585,0.0-1.0-0.140
<b>False things have seemed true to me many times.,Highly disagree,142/150,Somewhat disagree,2,1698243331916,1698243346614,\Somewhat disagree\,\Somewhat disagree\,\2\,1698243346030,1698243346030,14114,14114,14698,buq,qns-item-noham,142,732286,0.0-1.0-0.141
<b>It?s pretty easy to sort out what?s true and what?s false in life.,Highly disagree,143/150,Somewhat disagree,2,1698243346616,1698243359598,\Somewhat disagree\,\Somewhat disagree\,\2\,1698243358822,1698243358822,12206,12206,12982,buq,qns-item-noham,143,745270,0.0-1.0-0.142
<b>Knowing lots of statistics about something is usually important for understanding it.,Highly disagree,144/150,Highly agree,4,1698243359602,1698243370893,\Highly agree\,\Highly agree\,\4\,1698243370022,1698243370022,10420,10420,11291,buq,qns-item-noham,144,756566,0.0-1.0-0.143
<b>Other people trick each other a lot.,Highly disagree,145/150,Somewhat agree,3,1698243370895,1698243376390,\Somewhat agree\,\Somewhat agree\,\3\,1698243375125,1698243375125,4230,4230,5495,buq,qns-item-noham,145,762062,0.0-1.0-0.144
<b>I would need to learn a lot about a person for my opinion of them to be swayed.,Highly disagree,146/150,Highly agree,4,1698243376391,1698243389406,\Highly agree\,\Highly agree\,\4\,1698243388726,1698243388726,12335,12335,13015,buq,qns-item-noham,146,775078,0.0-1.0-0.145
<b>People can?t usually trick me when it comes to topics I care about.,Highly disagree,147/150,Somewhat agree,3,1698243389408,1698243405222,\Somewhat agree\,\Somewhat agree\,\3\,1698243401127,1698243401127,11719,11719,15814,buq,qns-item-noham,147,790894,0.0-1.0-0.146
<b>I do not often change my views on food.,Highly disagree,148/150,Somewhat disagree,2,1698243405224,1698243409311,\Somewhat disagree\,\Somewhat disagree\,\2\,1698243408565,1698243408565,3341,3341,4087,buq,qns-item-noham,148,794983,0.0-1.0-0.147
<b>Specific policies are often very important to me.,Highly disagree,149/150,Highly agree,4,1698243409313,1698243418653,\Highly agree\,\Highly agree\,\4\,1698243417991,1698243417991,8678,8678,9340,buq,qns-item-noham,149,804325,0.0-1.0-0.148
<b>Most people are woefully under-informed.,Highly disagree,150/150,Somewhat disagree,2,1698243418655,1698243429534,\Somewhat disagree\,\Somewhat disagree\,\2\,1698243428806,1698243428806,10151,10151,10879,buq,qns-item-noham,150,815206,0.0-1.0-0.149
