Question,qns_options,quest_num,answer,answer_num,question_load_timestamp,next_btn_timestamp,text_selected,final_text_selected,option_num_selected,preview_timestamps,final_text_selected_time_stamp,rt_first_option_click,rt_final_option_click,rt_submit_click,questionnaire,trial_type,trial_index,time_elapsed,internal_node_id
<b>Considering other people?s perspectives can help us figure out what?s true or false.,Highly disagree,1/150,Somewhat agree,3,1698242603450,1698242621759,\Somewhat agree\,\Somewhat agree\,\3\,1698242620801,1698242620801,17351,17351,18309,buq,qns-item-noham,1,25545,0.0-1.0-0.0
<b>Knowing what?s true and knowing what to do about it are usually basically the same.,Highly disagree,2/150,Somewhat disagree,2,1698242621763,1698242629447,\Somewhat disagree\,\Somewhat disagree\,\2\,1698242628816,1698242628816,7053,7053,7684,buq,qns-item-noham,2,33233,0.0-1.0-0.1
<b>Most people just believe whatever is convenient for them.,Highly disagree,3/150,Somewhat agree,3,1698242629459,1698242632847,\Somewhat agree\,\Somewhat agree\,\3\,1698242632098,1698242632098,2639,2639,3388,buq,qns-item-noham,3,36633,0.0-1.0-0.2
<b>Even people who are wrong about most things can be right sometimes.,Highly disagree,4/150,Highly agree,4,1698242632850,1698242637071,\Highly agree\,\Highly agree\,\4\,1698242636320,1698242636320,3470,3470,4221,buq,qns-item-noham,4,40857,0.0-1.0-0.3
"<b>If the political party I support does something that upsets me, then the party may have changed, and I need to re-evaluate my support.",Highly disagree,5/150,Somewhat disagree,2,1698242637074,1698242646221,\Somewhat disagree\,\Somewhat disagree\,\2\,1698242642765,1698242644395,5691,7321,9147,buq,qns-item-noham,5,50007,0.0-1.0-0.4
"<b>When people disagree, one side is usually completely right.",Highly disagree,6/150,Somewhat agree,3,1698242646225,1698242653780,\Somewhat agree\,\Somewhat agree\,\3\,1698242652693,1698242652693,6468,6468,7555,buq,qns-item-noham,6,57566,0.0-1.0-0.5
<b>People have lots of false beliefs.,Highly disagree,7/150,Highly agree,4,1698242653784,1698242657683,\Highly agree\,\Highly agree\,\4\,1698242656948,1698242656948,3164,3164,3899,buq,qns-item-noham,7,61469,0.0-1.0-0.6
<b>Having some big beliefs helps me sort out minor ones.,Highly disagree,8/150,Somewhat agree,3,1698242657688,1698242664003,\Somewhat agree\,\Somewhat agree\,\3\,1698242663213,1698242663213,5525,5525,6315,buq,qns-item-noham,8,67789,0.0-1.0-0.7
<b>Political questions are usually pretty complicated.,Highly disagree,9/150,Highly disagree,1,1698242664006,1698242670388,\Somewhat disagree\,\Highly disagree\,\2\,1698242666436,1698242669868,2430,5862,6382,buq,qns-item-noham,9,74174,0.0-1.0-0.8
<b>Figuring out what?s important in life requires learning a lot of facts.,Highly disagree,10/150,Somewhat agree,3,1698242670392,1698242676173,\Highly agree\,\Somewhat agree\,\4\,1698242673331,1698242674563,2939,4171,5781,buq,qns-item-noham,10,79959,0.0-1.0-0.9
<b>It is difficult for me to remember the last time I was surprised by politics.,Highly disagree,11/150,Highly disagree,1,1698242676176,1698242681364,\Highly disagree\,\Highly disagree\,\1\,1698242680236,1698242680236,4060,4060,5188,buq,qns-item-noham,11,85150,0.0-1.0-0.10
<b>People?s false beliefs are understandable.,Highly disagree,12/150,Somewhat disagree,2,1698242681367,1698242685947,\Somewhat agree\,\Somewhat disagree\,\3\,1698242685005,1698242685493,3638,4126,4580,buq,qns-item-noham,12,89733,0.0-1.0-0.11
<b>I spend a lot of time trying to be informed about politics.,Highly disagree,13/150,Highly agree,4,1698242685950,1698242689083,\Highly agree\,\Highly agree\,\4\,1698242688548,1698242688548,2598,2598,3133,buq,qns-item-noham,13,92869,0.0-1.0-0.12
<b>I think a lot about whether my beliefs are right.,Highly disagree,14/150,Highly agree,4,1698242689088,1698242692139,\Highly agree\,\Highly agree\,\4\,1698242691468,1698242691468,2380,2380,3051,buq,qns-item-noham,14,95925,0.0-1.0-0.13
<b>Statistics can be pretty misleading sometimes.,Highly disagree,15/150,Highly agree,4,1698242692142,1698242694844,\Highly agree\,\Highly agree\,\4\,1698242694108,1698242694108,1966,1966,2702,buq,qns-item-noham,15,98630,0.0-1.0-0.14
<b>Figuring out what?s true and what?s false takes a lot of time and effort.,Highly disagree,16/150,Highly agree,4,1698242694847,1698242698243,\Highly agree\,\Highly agree\,\4\,1698242697508,1698242697508,2661,2661,3396,buq,qns-item-noham,16,102029,0.0-1.0-0.15
"<b>If a friend does something bad to me, it was likely an error on their part.",Highly disagree,17/150,Somewhat disagree,2,1698242698247,1698242704469,\Somewhat agree\,\Somewhat disagree\,\3\,1698242702389,1698242703732,4142,5485,6222,buq,qns-item-noham,17,108256,0.0-1.0-0.16
<b>I have lots of beliefs that I?m only sort of sure about.,Highly disagree,18/150,Highly disagree,1,1698242704473,1698242709172,\Somewhat disagree\,\Highly disagree\,\2\,1698242707821,1698242708428,3348,3955,4699,buq,qns-item-noham,18,112958,0.0-1.0-0.17
"<b>If I go to my favorite restaurant and the food is surprisingly bad, it reminds me there are many disappointments in life.",Highly disagree,19/150,Somewhat disagree,2,1698242709175,1698242717253,\Somewhat disagree\,\Somewhat disagree\,\2\,1698242715884,1698242715884,6709,6709,8078,buq,qns-item-noham,19,121039,0.0-1.0-0.18
<b>Sometimes my beliefs are inconvenient for me.,Highly disagree,20/150,Somewhat disagree,2,1698242717260,1698242720805,\Somewhat disagree\,\Somewhat disagree\,\2\,1698242720037,1698242720037,2777,2777,3545,buq,qns-item-noham,20,124591,0.0-1.0-0.19
<b>Paying attention to multiple news sources is important.,Highly disagree,21/150,Somewhat agree,3,1698242720809,1698242723932,\Somewhat agree\,\Somewhat agree\,\3\,1698242723333,1698242723333,2524,2524,3123,buq,qns-item-noham,21,127719,0.0-1.0-0.20
"<b>If you are paying attention, please select ?Somewhat agree?",Highly disagree,22/150,Somewhat agree,3,1698242723937,1698242727555,\Somewhat agree\,\Somewhat agree\,\3\,1698242726589,1698242726589,2652,2652,3618,buq,qns-item-noham,22,131342,0.0-1.0-0.21
"<b>When I talk to others, I often worry I?ll convince them of something I didn?t mean to.",Highly disagree,23/150,Somewhat agree,3,1698242727559,1698242732324,\Somewhat agree\,\Somewhat agree\,\3\,1698242731699,1698242731699,4140,4140,4765,buq,qns-item-noham,23,136110,0.0-1.0-0.22
<b>I would need to learn something utterly shocking about my party in order to change my political views.,Highly disagree,24/150,Somewhat agree,3,1698242732327,1698242737787,\Somewhat agree\,\Somewhat agree\,\3\,1698242736843,1698242736843,4516,4516,5460,buq,qns-item-noham,24,141574,0.0-1.0-0.23
"<b>When I have new experiences, I tend to think of them as unique.",Highly disagree,25/150,Highly agree,4,1698242737791,1698242742731,\Highly agree\,\Highly agree\,\4\,1698242741988,1698242741988,4197,4197,4940,buq,qns-item-noham,25,146517,0.0-1.0-0.24
<b>Reading lots of things is important for understanding the world.,Highly disagree,26/150,Highly agree,4,1698242742734,1698242750045,\Highly agree\,\Highly agree\,\4\,1698242749108,1698242749108,6374,6374,7311,buq,qns-item-noham,26,153831,0.0-1.0-0.25
<b>The world is complicated.,Highly disagree,27/150,Highly agree,4,1698242750049,1698242753460,\Highly agree\,\Highly agree\,\4\,1698242752259,1698242752259,2210,2210,3411,buq,qns-item-noham,27,157246,0.0-1.0-0.26
<b>I change my mind about specific policies pretty frequently.,Highly disagree,28/150,Highly disagree,1,1698242753462,1698242757339,\Highly disagree\,\Highly disagree\,\1\,1698242756644,1698242756644,3182,3182,3877,buq,qns-item-noham,28,161126,0.0-1.0-0.27
"<b>If a politician in my political party supports something I disagree with, I give them the benefit of the doubt, as such issues often involve hidden complexities that aren?t obvious.   ",Highly disagree,29/150,Somewhat agree,3,1698242757342,1698242763805,\Somewhat agree\,\Somewhat agree\,\3\,1698242763181,1698242763181,5839,5839,6463,buq,qns-item-noham,29,167591,0.0-1.0-0.28
<b>People?s bad politics are usually motivated by hatefulness.,Highly disagree,30/150,Somewhat agree,3,1698242763815,1698242768948,\Somewhat agree\,\Somewhat agree\,\3\,1698242767941,1698242767941,4126,4126,5133,buq,qns-item-noham,30,172734,0.0-1.0-0.29
"<b>Most new experiences are just like old ones, but a little bit different.",Highly disagree,31/150,Somewhat disagree,2,1698242768951,1698242774532,\Somewhat disagree\,\Somewhat disagree\,\2\,1698242773958,1698242773958,5007,5007,5581,buq,qns-item-noham,31,178318,0.0-1.0-0.30
<b>I think a lot about how to reconcile my beliefs with one another.,Highly disagree,32/150,Somewhat agree,3,1698242774536,1698242778020,\Somewhat agree\,\Somewhat agree\,\3\,1698242777478,1698242777478,2942,2942,3484,buq,qns-item-noham,32,181806,0.0-1.0-0.31
<b>Personal experience rarely leads people astray.,Highly disagree,33/150,Somewhat disagree,2,1698242778024,1698242781084,\Somewhat disagree\,\Somewhat disagree\,\2\,1698242780373,1698242780373,2349,2349,3060,buq,qns-item-noham,33,184870,0.0-1.0-0.32
<b>I might have false beliefs about important topics.,Highly disagree,34/150,Somewhat agree,3,1698242781087,1698242785963,\Somewhat agree\,\Somewhat agree\,\3\,1698242785293,1698242785293,4206,4206,4876,buq,qns-item-noham,34,189749,0.0-1.0-0.33
"<b>If a good friend of mine does something unexpected that upsets me, I feel like I don?t know them anymore.",Highly disagree,35/150,Highly disagree,1,1698242785966,1698242792310,\Somewhat disagree\,\Highly disagree\,\2\,1698242790869,1698242791403,4903,5437,6344,buq,qns-item-noham,35,196096,0.0-1.0-0.34
<b>Other people?s beliefs are often incoherent.,Highly disagree,36/150,Somewhat disagree,2,1698242792313,1698242799396,\Somewhat disagree\,\Somewhat disagree\,\2\,1698242798541,1698242798541,6228,6228,7083,buq,qns-item-noham,36,203182,0.0-1.0-0.35
<b>It?s important to have friends who think about things differently than I do.,Highly disagree,37/150,Somewhat agree,3,1698242799400,1698242804276,\Somewhat agree\,\Somewhat agree\,\3\,1698242803725,1698242803725,4325,4325,4876,buq,qns-item-noham,37,208062,0.0-1.0-0.36
"<b>Every now and then, a new experience will unsettle beliefs I?ve had for a while.",Highly disagree,38/150,Somewhat agree,3,1698242804280,1698242808907,\Somewhat agree\,\Somewhat agree\,\3\,1698242808349,1698242808349,4069,4069,4627,buq,qns-item-noham,38,212693,0.0-1.0-0.37
<b>Some policies I agree with in principle are so bad I don?t support them. ,Highly disagree,39/150,Highly agree,4,1698242808910,1698242814061,\Highly agree\,\Highly agree\,\4\,1698242813549,1698242813549,4639,4639,5151,buq,qns-item-noham,39,217847,0.0-1.0-0.38
<b>I?m pretty sure I?ve accidentally spread false information.,Highly disagree,40/150,Somewhat disagree,2,1698242814064,1698242818396,\Somewhat disagree\,\Somewhat disagree\,\2\,1698242817781,1698242817781,3717,3717,4332,buq,qns-item-noham,40,222182,0.0-1.0-0.39
"<b>If I go to my favorite restaurant and the food is unexpectedly bad, then they have changed owners.",Highly disagree,41/150,Highly disagree,1,1698242818399,1698242823291,\Highly disagree\,\Highly disagree\,\1\,1698242822572,1698242822572,4173,4173,4892,buq,qns-item-noham,41,227077,0.0-1.0-0.40
"<b>In politics, it?s important to trust your friends and family.",Highly disagree,42/150,Highly disagree,1,1698242823296,1698242827251,\Highly disagree\,\Highly disagree\,\1\,1698242826461,1698242826461,3165,3165,3955,buq,qns-item-noham,42,231037,0.0-1.0-0.41
<b>It?s OK to have some conflicting beliefs.,Highly disagree,43/150,Highly agree,4,1698242827255,1698242830851,\Somewhat agree\,\Highly agree\,\3\,1698242829268,1698242830388,2013,3133,3596,buq,qns-item-noham,43,234638,0.0-1.0-0.42
<b>Sometimes the details of a matter seem to conflict with the big picture.,Highly disagree,44/150,Somewhat agree,3,1698242830855,1698242834037,\Somewhat agree\,\Somewhat agree\,\3\,1698242833429,1698242833429,2574,2574,3182,buq,qns-item-noham,44,237823,0.0-1.0-0.43
<b>Listening to people I disagree with makes my opinions better.,Highly disagree,45/150,Somewhat agree,3,1698242834041,1698242837419,\Somewhat agree\,\Somewhat agree\,\3\,1698242836580,1698242836580,2539,2539,3378,buq,qns-item-noham,45,241205,0.0-1.0-0.44
<b>Policies that sound bad are sometimes fine when you find out about their details.,Highly disagree,46/150,Highly agree,4,1698242837424,1698242841932,\Highly agree\,\Highly agree\,\4\,1698242841284,1698242841284,3860,3860,4508,buq,qns-item-noham,46,245718,0.0-1.0-0.45
"<b>The world is always changing, so my beliefs are sometimes out-dated.",Highly disagree,47/150,Highly agree,4,1698242841936,1698242844435,\Highly agree\,\Highly agree\,\4\,1698242843844,1698242843844,1908,1908,2499,buq,qns-item-noham,47,248221,0.0-1.0-0.46
"<b>If I receive a bad meal at my favorite restaurant and the food is surprisingly bad, I do not think much of it, and assume the chef is just having an ?off? day.",Highly disagree,48/150,Highly agree,4,1698242844439,1698242850555,\Highly agree\,\Highly agree\,\4\,1698242850020,1698242850020,5581,5581,6116,buq,qns-item-noham,48,254341,0.0-1.0-0.47
"<b>False information is unavoidable, to some extent.",Highly disagree,49/150,Highly agree,4,1698242850559,1698242853516,\Highly agree\,\Highly agree\,\4\,1698242853004,1698242853004,2445,2445,2957,buq,qns-item-noham,49,257302,0.0-1.0-0.48
<b>My moral compass sometimes makes it harder to determine what?s true.,Highly disagree,50/150,Somewhat agree,3,1698242853520,1698242856835,\Somewhat agree\,\Somewhat agree\,\3\,1698242856220,1698242856220,2700,2700,3315,buq,qns-item-noham,50,260621,0.0-1.0-0.49
"<b>When you disagree with someone, it?s important to listen to them carefully.",Highly disagree,51/150,Highly agree,4,1698242856838,1698242861013,\Somewhat agree\,\Highly agree\,\3\,1698242859508,1698242860411,2670,3573,4175,buq,qns-item-noham,51,264799,0.0-1.0-0.50
<b>Evidence pointing in the wrong direction isn?t really evidence at all.,Highly disagree,52/150,Highly agree,4,1698242861016,1698242866379,\Highly agree\,\Highly agree\,\4\,1698242865468,1698242865468,4452,4452,5363,buq,qns-item-noham,52,270165,0.0-1.0-0.51
"<b>If the political party I support messes up, it makes me think politics is rotten.",Highly disagree,53/150,Somewhat disagree,2,1698242866383,1698242871347,\Somewhat disagree\,\Somewhat disagree\,\2\,1698242870613,1698242870613,4230,4230,4964,buq,qns-item-noham,53,275133,0.0-1.0-0.52
<b>Lots of important topics can only really be understood by some groups of people.,Highly disagree,54/150,Highly agree,4,1698242871350,1698242876171,\Highly agree\,\Highly agree\,\4\,1698242875500,1698242875500,4150,4150,4821,buq,qns-item-noham,54,279957,0.0-1.0-0.53
<b>Details almost always matter for being right about something.,Highly disagree,55/150,Highly agree,4,1698242876174,1698242878731,\Highly agree\,\Highly agree\,\4\,1698242878180,1698242878180,2006,2006,2557,buq,qns-item-noham,55,282517,0.0-1.0-0.54
"<b>The most important thing in politics is winning, not convincing people.",Highly disagree,56/150,Highly disagree,1,1698242878734,1698242883371,\Highly disagree\,\Highly disagree\,\1\,1698242882692,1698242882692,3958,3958,4637,buq,qns-item-noham,56,287157,0.0-1.0-0.55
<b>Having conflicting beliefs means you haven?t thought about them enough.,Highly disagree,57/150,Highly disagree,1,1698242883375,1698242888147,\Highly disagree\,\Highly disagree\,\1\,1698242887661,1698242887661,4286,4286,4772,buq,qns-item-noham,57,291933,0.0-1.0-0.56
<b>Other people have sometimes convinced me to change my mind on important topics.,Highly disagree,58/150,Somewhat agree,3,1698242888150,1698242891747,\Somewhat agree\,\Somewhat agree\,\3\,1698242891204,1698242891204,3054,3054,3597,buq,qns-item-noham,58,295533,0.0-1.0-0.57
<b>I do not often change my political opinions.,Highly disagree,59/150,Somewhat agree,3,1698242891750,1698242894011,\Somewhat agree\,\Somewhat agree\,\3\,1698242893501,1698242893501,1751,1751,2261,buq,qns-item-noham,59,297797,0.0-1.0-0.58
<b>Thinking about how different things relate to one another is critical in life.,Highly disagree,60/150,Highly agree,4,1698242894014,1698242897459,\Highly agree\,\Highly agree\,\4\,1698242896876,1698242896876,2862,2862,3445,buq,qns-item-noham,60,301245,0.0-1.0-0.59
<b>True beliefs can have unfortunate implications.,Highly disagree,61/150,Highly agree,4,1698242897464,1698242900508,\Highly agree\,\Highly agree\,\4\,1698242899700,1698242899700,2236,2236,3044,buq,qns-item-noham,61,304294,0.0-1.0-0.60
<b>It?s difficult to not have at least some conflicting beliefs.,Highly disagree,62/150,Somewhat agree,3,1698242900511,1698242904380,\Highly agree\,\Somewhat agree\,\4\,1698242903140,1698242903755,2629,3244,3869,buq,qns-item-noham,62,308166,0.0-1.0-0.61
"<b>When I learn new things, I think deeply about how my opinions should change.",Highly disagree,63/150,Highly agree,4,1698242904384,1698242908739,\Highly agree\,\Highly agree\,\4\,1698242908020,1698242908020,3636,3636,4355,buq,qns-item-noham,63,312525,0.0-1.0-0.62
<b>I think a lot about how to interpret different sorts of evidence.,Highly disagree,64/150,Highly agree,4,1698242908743,1698242913147,\Highly agree\,\Highly agree\,\4\,1698242912300,1698242912300,3557,3557,4404,buq,qns-item-noham,64,316933,0.0-1.0-0.63
<b>Politics is about thinking together and finding compromises.,Highly disagree,65/150,Highly agree,4,1698242913151,1698242915955,\Highly agree\,\Highly agree\,\4\,1698242915244,1698242915244,2093,2093,2804,buq,qns-item-noham,65,319741,0.0-1.0-0.64
<b>Wishful thinking causes a lot of problems.,Highly disagree,66/150,Somewhat disagree,2,1698242915959,1698242918771,\Somewhat disagree\,\Somewhat disagree\,\2\,1698242918172,1698242918172,2213,2213,2812,buq,qns-item-noham,66,322557,0.0-1.0-0.65
<b>I judge a food item only once I try it many times.,Highly disagree,67/150,Highly agree,4,1698242918774,1698242924355,\Somewhat agree\,\Highly agree\,\3\,1698242922348,1698242923507,3574,4733,5581,buq,qns-item-noham,67,328141,0.0-1.0-0.66
"<b>When a person holds conflicting beliefs, they should really try to figure out what?s wrong.",Highly disagree,68/150,Somewhat disagree,2,1698242924358,1698242928348,\Somewhat disagree\,\Somewhat disagree\,\2\,1698242927804,1698242927804,3446,3446,3990,buq,qns-item-noham,68,332134,0.0-1.0-0.67
<b>Knowing what?s important in life is easy.,Highly disagree,69/150,Somewhat disagree,2,1698242928352,1698242931483,\Somewhat agree\,\Somewhat disagree\,\3\,1698242930100,1698242930739,1748,2387,3131,buq,qns-item-noham,69,335270,0.0-1.0-0.68
<b>Lots of smart people disagree about basic political questions.,Highly disagree,70/150,Somewhat agree,3,1698242931486,1698242935091,\Somewhat agree\,\Somewhat agree\,\3\,1698242934252,1698242934252,2766,2766,3605,buq,qns-item-noham,70,338877,0.0-1.0-0.69
<b>I swim across the Atlantic Ocean to get to work every day.,Highly disagree,71/150,Highly disagree,1,1698242935094,1698242938580,\Highly disagree\,\Highly disagree\,\1\,1698242937459,1698242937459,2365,2365,3486,buq,qns-item-noham,71,342366,0.0-1.0-0.70
"<b>Sometimes, you just have to ignore evidence that you know is wrong.",Highly disagree,72/150,Highly agree,4,1698242938584,1698242942635,\Highly agree\,\Highly agree\,\4\,1698242941868,1698242941868,3284,3284,4051,buq,qns-item-noham,72,346421,0.0-1.0-0.71
<b>I have had some false beliefs.,Highly disagree,73/150,Highly agree,4,1698242942639,1698242946612,\Somewhat agree\,\Highly agree\,\3\,1698242944917,1698242946036,2278,3397,3973,buq,qns-item-noham,73,350398,0.0-1.0-0.72
"<b>If one friend does something that upsets me, I sometimes start to distrust people in general.",Highly disagree,74/150,Somewhat disagree,2,1698242946616,1698242951419,\Somewhat disagree\,\Somewhat disagree\,\2\,1698242950797,1698242950797,4181,4181,4803,buq,qns-item-noham,74,355205,0.0-1.0-0.73
<b>I easily apply what I learn in one situation to another.,Highly disagree,75/150,Highly agree,4,1698242951423,1698242955028,\Highly agree\,\Highly agree\,\4\,1698242954476,1698242954476,3053,3053,3605,buq,qns-item-noham,75,358814,0.0-1.0-0.74
<b>The facts about most important matters are easy to find.,Highly disagree,76/150,Somewhat agree,3,1698242955031,1698242958269,\Somewhat agree\,\Somewhat agree\,\3\,1698242957612,1698242957612,2581,2581,3238,buq,qns-item-noham,76,362055,0.0-1.0-0.75
<b>It?s better to know what?s true than to know what?s moral.,Highly disagree,77/150,Somewhat agree,3,1698242958272,1698242962165,\Somewhat agree\,\Somewhat agree\,\3\,1698242961573,1698242961573,3301,3301,3893,buq,qns-item-noham,77,365952,0.0-1.0-0.76
<b>It?s good to be skeptical of people you agree with.,Highly disagree,78/150,Highly agree,4,1698242962170,1698242966509,\Somewhat agree\,\Highly agree\,\3\,1698242964709,1698242965499,2539,3329,4339,buq,qns-item-noham,78,370295,0.0-1.0-0.77
<b>Sometimes reasonable beliefs are wrong.,Highly disagree,79/150,Highly agree,4,1698242966512,1698242969652,\Highly agree\,\Highly agree\,\4\,1698242969069,1698242969069,2557,2557,3140,buq,qns-item-noham,79,373438,0.0-1.0-0.78
<b>I used to think the world was less complicated than I do now.,Highly disagree,80/150,Highly agree,4,1698242969656,1698242972613,\Highly agree\,\Highly agree\,\4\,1698242971965,1698242971965,2309,2309,2957,buq,qns-item-noham,80,376399,0.0-1.0-0.79
<b>People are usually completely right or completely wrong.,Highly disagree,81/150,Somewhat agree,3,1698242972616,1698242976172,\Somewhat agree\,\Somewhat agree\,\3\,1698242975701,1698242975701,3085,3085,3556,buq,qns-item-noham,81,379958,0.0-1.0-0.80
<b>I spend a lot of time considering alternatives to my beliefs.,Highly disagree,82/150,Somewhat agree,3,1698242976176,1698242978868,\Somewhat agree\,\Somewhat agree\,\3\,1698242978309,1698242978309,2133,2133,2692,buq,qns-item-noham,82,382654,0.0-1.0-0.81
"<b>Political enemies need to be defeated, not convinced.",Highly disagree,83/150,Highly disagree,1,1698242978872,1698242988236,\Highly disagree\,\Highly disagree\,\1\,1698242987460,1698242987460,8588,8588,9364,buq,qns-item-noham,83,392022,0.0-1.0-0.82
"<b>When forming an opinion about a restaurant, I am more swayed by my  latest meal there than  previous meals I?ve had there.",Highly disagree,84/150,Highly disagree,1,1698242988240,1698243000276,\Highly disagree\,\Highly disagree\,\1\,1698242999491,1698242999491,11251,11251,12036,buq,qns-item-noham,84,404062,0.0-1.0-0.83
<b>I try to remain skeptical about most topics.,Highly disagree,85/150,Somewhat agree,3,1698243000279,1698243004059,\Somewhat agree\,\Somewhat agree\,\3\,1698243003548,1698243003548,3269,3269,3780,buq,qns-item-noham,85,407845,0.0-1.0-0.84
<b>Being wrong is usually obvious in retrospect.,Highly disagree,86/150,Somewhat agree,3,1698243004063,1698243006483,\Somewhat agree\,\Somewhat agree\,\3\,1698243006004,1698243006004,1941,1941,2420,buq,qns-item-noham,86,410269,0.0-1.0-0.85
<b>It can be hard to realize that my beliefs are in conflict.,Highly disagree,87/150,Somewhat agree,3,1698243006487,1698243009395,\Somewhat agree\,\Somewhat agree\,\3\,1698243008732,1698243008732,2245,2245,2908,buq,qns-item-noham,87,413182,0.0-1.0-0.86
<b>I form my political views only after meticulously gathering historical and present information about their policies.,Highly disagree,88/150,Highly agree,4,1698243009399,1698243014139,\Highly agree\,\Highly agree\,\4\,1698243013397,1698243013397,3998,3998,4740,buq,qns-item-noham,88,417925,0.0-1.0-0.87
<b>Skeptical people are usually just bad-tempered.,Highly disagree,89/150,Highly disagree,1,1698243014143,1698243018891,\Highly disagree\,\Highly disagree\,\1\,1698243018132,1698243018132,3989,3989,4748,buq,qns-item-noham,89,422677,0.0-1.0-0.88
<b>It is difficult for me to remember the last time I was surprised by politics.,Highly disagree,90/150,Highly disagree,1,1698243018895,1698243023484,\Highly disagree\,\Highly disagree\,\1\,1698243022300,1698243022300,3405,3405,4589,buq,qns-item-noham,90,427270,0.0-1.0-0.89
"<b>When I find out I?m wrong, I think a lot about my related beliefs.",Highly disagree,91/150,Somewhat agree,3,1698243023487,1698243026364,\Somewhat agree\,\Somewhat agree\,\3\,1698243025676,1698243025676,2189,2189,2877,buq,qns-item-noham,91,430150,0.0-1.0-0.90
"<b>If the political party I support messes up, it makes me think you can?t trust anyone these days",Highly disagree,92/150,Highly disagree,1,1698243026368,1698243030179,\Highly disagree\,\Highly disagree\,\1\,1698243029573,1698243029573,3205,3205,3811,buq,qns-item-noham,92,433966,0.0-1.0-0.91
<b>People?s brains turn off when they talk about politics.,Highly disagree,93/150,Somewhat agree,3,1698243030183,1698243032739,\Somewhat agree\,\Somewhat agree\,\3\,1698243032204,1698243032204,2021,2021,2556,buq,qns-item-noham,93,436525,0.0-1.0-0.92
<b>People who are wrong are usually just ignoring the obvious.,Highly disagree,94/150,Somewhat disagree,2,1698243032744,1698243037948,\Somewhat agree\,\Somewhat disagree\,\3\,1698243034892,1698243037404,2148,4660,5204,buq,qns-item-noham,94,441734,0.0-1.0-0.93
"<b>The world isn?t that complicated, but it?s still hard to figure out how it works.",Highly disagree,95/150,Somewhat agree,3,1698243037951,1698243041700,\Somewhat agree\,\Somewhat agree\,\3\,1698243040924,1698243040924,2973,2973,3749,buq,qns-item-noham,95,445486,0.0-1.0-0.94
"<b>When forming my views on people, I rely more on what they are like now rather than rely on my past experience with them.",Highly disagree,96/150,Highly agree,4,1698243041703,1698243047683,\Highly agree\,\Highly agree\,\4\,1698243047020,1698243047020,5317,5317,5980,buq,qns-item-noham,96,451469,0.0-1.0-0.95
"<b>When people contradict my beliefs, I usually know about their evidence already.",Highly disagree,97/150,Somewhat agree,3,1698243047687,1698243051763,\Somewhat agree\,\Somewhat agree\,\3\,1698243051189,1698243051189,3502,3502,4076,buq,qns-item-noham,97,455549,0.0-1.0-0.96
<b>Being wrong is a matter of degree.,Highly disagree,98/150,Somewhat agree,3,1698243051766,1698243054843,\Somewhat agree\,\Somewhat agree\,\3\,1698243054292,1698243054292,2526,2526,3077,buq,qns-item-noham,98,458629,0.0-1.0-0.97
<b>Figuring out what?s true and what?s false mainly requires a strong moral compass.,Highly disagree,99/150,Somewhat disagree,2,1698243054846,1698243059419,\Somewhat disagree\,\Somewhat disagree\,\2\,1698243058644,1698243058644,3798,3798,4573,buq,qns-item-noham,99,463205,0.0-1.0-0.98
<b>Most of the beliefs people have are at least somewhat understandable.,Highly disagree,100/150,Somewhat agree,3,1698243059422,1698243063395,\Somewhat agree\,\Somewhat agree\,\3\,1698243062588,1698243062588,3166,3166,3973,buq,qns-item-noham,100,467182,0.0-1.0-0.99
"<b>Usually I?m wrong about simple things, not complicated ones.",Highly disagree,101/150,Highly disagree,1,1698243063399,1698243069413,\Highly disagree\,\Highly disagree\,\1\,1698243068027,1698243068027,4628,4628,6014,buq,qns-item-noham,101,473199,0.0-1.0-0.100
<b>Getting all the information I want about important things is hard.,Highly disagree,102/150,Highly disagree,1,1698243069417,1698243074836,\Highly disagree\,\Highly disagree\,\1\,1698243074044,1698243074044,4627,4627,5419,buq,qns-item-noham,102,478622,0.0-1.0-0.101
<b>Most false beliefs spread because people try to deceive one another.,Highly disagree,103/150,Highly agree,4,1698243074840,1698243078548,\Highly agree\,\Highly agree\,\4\,1698243077988,1698243077988,3148,3148,3708,buq,qns-item-noham,103,482334,0.0-1.0-0.102
<b>I can usually find something to agree with in most people?s beliefs.,Highly disagree,104/150,Somewhat agree,3,1698243078552,1698243082077,\Somewhat agree\,\Somewhat agree\,\3\,1698243081516,1698243081516,2964,2964,3525,buq,qns-item-noham,104,485863,0.0-1.0-0.103
<b>I only form my views of people once I get to know them very well.,Highly disagree,105/150,Highly agree,4,1698243082081,1698243085043,\Highly agree\,\Highly agree\,\4\,1698243084340,1698243084340,2259,2259,2962,buq,qns-item-noham,105,488829,0.0-1.0-0.104
"<b>When people tell me important things about the world, I usually believe them.",Highly disagree,106/150,Somewhat disagree,2,1698243085047,1698243089548,\Somewhat disagree\,\Somewhat disagree\,\2\,1698243088989,1698243088989,3942,3942,4501,buq,qns-item-noham,106,493334,0.0-1.0-0.105
"<b>If a friend does something that upsets me, it reminds me what an unpredictable place the world is.",Highly disagree,107/150,Somewhat agree,3,1698243089552,1698243093339,\Somewhat agree\,\Somewhat agree\,\3\,1698243092892,1698243092892,3340,3340,3787,buq,qns-item-noham,107,497125,0.0-1.0-0.106
<b>Having some conflicting beliefs is inevitable.,Highly disagree,108/150,Highly agree,4,1698243093343,1698243096780,\Somewhat agree\,\Highly agree\,\3\,1698243095388,1698243096099,2045,2756,3437,buq,qns-item-noham,108,500566,0.0-1.0-0.107
<b>People are wrong because they haven?t thought much about things.,Highly disagree,109/150,Somewhat agree,3,1698243096784,1698243100371,\Somewhat agree\,\Somewhat agree\,\3\,1698243099668,1698243099668,2884,2884,3587,buq,qns-item-noham,109,504157,0.0-1.0-0.108
<b>People tend to believe whatever is good for their friends.,Highly disagree,110/150,Highly agree,4,1698243100374,1698243104908,\Highly agree\,\Highly agree\,\4\,1698243104300,1698243104300,3926,3926,4534,buq,qns-item-noham,110,508694,0.0-1.0-0.109
"<b>When I talk about important topics, I try to make sure people know I?m not always right.",Highly disagree,111/150,Somewhat agree,3,1698243104911,1698243110043,\Somewhat agree\,\Somewhat agree\,\3\,1698243109140,1698243109140,4229,4229,5132,buq,qns-item-noham,111,513829,0.0-1.0-0.110
<b>I used to be more certain my beliefs were true.,Highly disagree,112/150,Somewhat agree,3,1698243110046,1698243114291,\Somewhat agree\,\Somewhat agree\,\3\,1698243112172,1698243113779,2126,3733,4245,buq,qns-item-noham,112,518077,0.0-1.0-0.111
<b>It?s often pretty easy to figure out whether something is true based on who said it.,Highly disagree,113/150,Somewhat disagree,2,1698243114294,1698243119643,\Somewhat disagree\,\Somewhat disagree\,\2\,1698243118908,1698243118908,4614,4614,5349,buq,qns-item-noham,113,523429,0.0-1.0-0.112
<b>Having bad food in my favorite restaurant will make me think the restaurant is no longer good.,Highly disagree,114/150,Somewhat agree,3,1698243119645,1698243126068,\Somewhat agree\,\Somewhat agree\,\3\,1698243125325,1698243125325,5680,5680,6423,buq,qns-item-noham,114,529854,0.0-1.0-0.113
<b>I transform into a hummingbird every day.,Highly disagree,115/150,Highly disagree,1,1698243126071,1698243128788,\Highly disagree\,\Highly disagree\,\1\,1698243128188,1698243128188,2117,2117,2717,buq,qns-item-noham,115,532574,0.0-1.0-0.114
"<b>Unfortunately, when people are wrong, it?s usually because they?re bad.",Highly disagree,116/150,Highly disagree,1,1698243128792,1698243132939,\Highly disagree\,\Highly disagree\,\1\,1698243132405,1698243132405,3613,3613,4147,buq,qns-item-noham,116,536725,0.0-1.0-0.115
<b>I think a lot about arguments against my views.,Highly disagree,117/150,Somewhat agree,3,1698243132942,1698243135892,\Somewhat agree\,\Somewhat agree\,\3\,1698243135387,1698243135387,2445,2445,2950,buq,qns-item-noham,117,539678,0.0-1.0-0.116
<b>Details tend to matter a lot for knowing whether a policy is good.,Highly disagree,118/150,Highly agree,4,1698243135895,1698243138531,\Highly agree\,\Highly agree\,\4\,1698243137964,1698243137964,2069,2069,2636,buq,qns-item-noham,118,542317,0.0-1.0-0.117
<b>Personal experience is usually more important than facts and figures.,Highly disagree,119/150,Somewhat agree,3,1698243138534,1698243143453,\Highly agree\,\Somewhat agree\,\4\,1698243141893,1698243142763,3359,4229,4919,buq,qns-item-noham,119,547239,0.0-1.0-0.118
<b>I?ve been tricked before about important matters.,Highly disagree,120/150,Somewhat disagree,2,1698243143457,1698243146979,\Somewhat disagree\,\Somewhat disagree\,\2\,1698243146452,1698243146452,2995,2995,3522,buq,qns-item-noham,120,550765,0.0-1.0-0.119
<b>I would need to be totally wowed if I were to change my opinion of a restaurant I don?t like.,Highly disagree,121/150,Somewhat agree,3,1698243146983,1698243153508,\Somewhat agree\,\Somewhat agree\,\3\,1698243152965,1698243152965,5982,5982,6525,buq,qns-item-noham,121,557294,0.0-1.0-0.120
<b>I care a lot about politics.,Highly disagree,122/150,Highly agree,4,1698243153512,1698243156196,\Highly agree\,\Highly agree\,\4\,1698243155364,1698243155364,1852,1852,2684,buq,qns-item-noham,122,559982,0.0-1.0-0.121
<b>People with conflicting beliefs usually have some facts they disagree on.,Highly disagree,123/150,Somewhat agree,3,1698243156200,1698243160421,\Somewhat agree\,\Somewhat agree\,\3\,1698243159860,1698243159860,3660,3660,4221,buq,qns-item-noham,123,564207,0.0-1.0-0.122
<b>There are some topics I?ve been really wrong about.,Highly disagree,124/150,Somewhat disagree,2,1698243160425,1698243163652,\Somewhat disagree\,\Somewhat disagree\,\2\,1698243163077,1698243163077,2652,2652,3227,buq,qns-item-noham,124,567438,0.0-1.0-0.123
<b>Most beliefs can be supported with at least some evidence.,Highly disagree,125/150,Somewhat agree,3,1698243163655,1698243169035,\Somewhat agree\,\Somewhat agree\,\3\,1698243168093,1698243168093,4438,4438,5380,buq,qns-item-noham,125,572821,0.0-1.0-0.124
<b>Other people make life out to be more complicated than it really is.,Highly disagree,126/150,Highly agree,4,1698243169038,1698243174333,\Highly agree\,\Highly agree\,\4\,1698243173660,1698243173660,4622,4622,5295,buq,qns-item-noham,126,578119,0.0-1.0-0.125
"<b>My political views are being shaped continuously as I gather more information, rather than relying on what I?ve known to be true of my party in the past. ",Highly disagree,127/150,Somewhat agree,3,1698243174336,1698243181589,\Somewhat agree\,\Somewhat agree\,\3\,1698243181012,1698243181012,6676,6676,7253,buq,qns-item-noham,127,585375,0.0-1.0-0.126
<b>It?s pretty unusual for true things to seem false.,Highly disagree,128/150,Highly disagree,1,1698243181592,1698243185444,\Somewhat agree\,\Highly disagree\,\3\,1698243183804,1698243184827,2212,3235,3852,buq,qns-item-noham,128,589230,0.0-1.0-0.127
"<b>Policy details don?t matter much, just the big picture.",Highly disagree,129/150,Highly disagree,1,1698243185448,1698243189971,\Highly disagree\,\Highly disagree\,\1\,1698243189388,1698243189388,3940,3940,4523,buq,qns-item-noham,129,593757,0.0-1.0-0.128
<b>I know my friends so well they can hardly ever surprise me.,Highly disagree,130/150,Somewhat agree,3,1698243189976,1698243193747,\Somewhat agree\,\Somewhat agree\,\3\,1698243193069,1698243193069,3093,3093,3771,buq,qns-item-noham,130,597533,0.0-1.0-0.129
"<b>When I talk to people, I often think about why they have the beliefs they do.",Highly disagree,131/150,Highly agree,4,1698243193751,1698243197996,\Highly agree\,\Highly agree\,\4\,1698243197212,1698243197212,3461,3461,4245,buq,qns-item-noham,131,601782,0.0-1.0-0.130
<b>I do not often change my views on people.,Highly disagree,132/150,Somewhat agree,3,1698243198000,1698243200947,\Somewhat agree\,\Somewhat agree\,\3\,1698243200389,1698243200389,2389,2389,2947,buq,qns-item-noham,132,604733,0.0-1.0-0.131
<b>I often wish I had more time to spend figuring out what?s true and what?s false in life.,Highly disagree,133/150,Highly agree,4,1698243200950,1698243205179,\Highly agree\,\Highly agree\,\4\,1698243204340,1698243204340,3390,3390,4229,buq,qns-item-noham,133,608965,0.0-1.0-0.132
<b>I?m more certain about my beliefs than I used to be.,Highly disagree,134/150,Highly agree,4,1698243205184,1698243207980,\Highly agree\,\Highly agree\,\4\,1698243207412,1698243207412,2228,2228,2796,buq,qns-item-noham,134,611766,0.0-1.0-0.133
"<b>Whenever I find out new information, I update my views on politics accordingly.",Highly disagree,135/150,Somewhat agree,3,1698243207983,1698243211693,\Somewhat agree\,\Somewhat agree\,\3\,1698243210933,1698243210933,2950,2950,3710,buq,qns-item-noham,135,615479,0.0-1.0-0.134
<b>People often tell falsehoods unintentionally.,Highly disagree,136/150,Highly agree,4,1698243211696,1698243216452,\Highly agree\,\Highly agree\,\4\,1698243215004,1698243215004,3308,3308,4756,buq,qns-item-noham,136,620238,0.0-1.0-0.135
<b>Most people don?t know much about most things.,Highly disagree,137/150,Highly agree,4,1698243216455,1698243219132,\Highly agree\,\Highly agree\,\4\,1698243218628,1698243218628,2173,2173,2677,buq,qns-item-noham,137,622918,0.0-1.0-0.136
"<b>If I find out something new about someone, I easily change my views about them.",Highly disagree,138/150,Somewhat agree,3,1698243219136,1698243222603,\Somewhat agree\,\Somewhat agree\,\3\,1698243222044,1698243222044,2908,2908,3467,buq,qns-item-noham,138,626389,0.0-1.0-0.137
<b>Having true beliefs is difficult.,Highly disagree,139/150,Somewhat disagree,2,1698243222608,1698243227052,\Somewhat disagree\,\Somewhat disagree\,\2\,1698243226260,1698243226260,3652,3652,4444,buq,qns-item-noham,139,630838,0.0-1.0-0.138
<b>I don?t try new foods since I know I won?t like them.,Highly disagree,140/150,Highly disagree,1,1698243227056,1698243230899,\Highly disagree\,\Highly disagree\,\1\,1698243230204,1698243230204,3148,3148,3843,buq,qns-item-noham,140,634685,0.0-1.0-0.139
<b>It?s easy to figure out what?s true or false based on who?s saying it.,Highly disagree,141/150,Somewhat agree,3,1698243230902,1698243235227,\Somewhat agree\,\Somewhat agree\,\3\,1698243234548,1698243234548,3646,3646,4325,buq,qns-item-noham,141,639013,0.0-1.0-0.140
<b>False things have seemed true to me many times.,Highly disagree,142/150,Highly agree,4,1698243235230,1698243238507,\Highly agree\,\Highly agree\,\4\,1698243237892,1698243237892,2662,2662,3277,buq,qns-item-noham,142,642293,0.0-1.0-0.141
<b>It?s pretty easy to sort out what?s true and what?s false in life.,Highly disagree,143/150,Somewhat disagree,2,1698243238510,1698243243988,\Somewhat disagree\,\Somewhat disagree\,\2\,1698243241045,1698243243060,2535,4550,5478,buq,qns-item-noham,143,647774,0.0-1.0-0.142
<b>Knowing lots of statistics about something is usually important for understanding it.,Highly disagree,144/150,Highly agree,4,1698243243992,1698243247323,\Highly agree\,\Highly agree\,\4\,1698243246731,1698243246731,2739,2739,3331,buq,qns-item-noham,144,651109,0.0-1.0-0.143
<b>Other people trick each other a lot.,Highly disagree,145/150,Highly agree,4,1698243247327,1698243249819,\Highly agree\,\Highly agree\,\4\,1698243249300,1698243249300,1973,1973,2492,buq,qns-item-noham,145,653605,0.0-1.0-0.144
<b>I would need to learn a lot about a person for my opinion of them to be swayed.,Highly disagree,146/150,Highly agree,4,1698243249824,1698243254235,\Highly agree\,\Highly agree\,\4\,1698243253429,1698243253429,3605,3605,4411,buq,qns-item-noham,146,658022,0.0-1.0-0.145
<b>People can?t usually trick me when it comes to topics I care about.,Highly disagree,147/150,Highly agree,4,1698243254238,1698243258204,\Highly agree\,\Highly agree\,\4\,1698243257510,1698243257510,3272,3272,3966,buq,qns-item-noham,147,661990,0.0-1.0-0.146
<b>I do not often change my views on food.,Highly disagree,148/150,Somewhat disagree,2,1698243258208,1698243262115,\Somewhat disagree\,\Somewhat disagree\,\2\,1698243261276,1698243261276,3068,3068,3907,buq,qns-item-noham,148,665901,0.0-1.0-0.147
<b>Specific policies are often very important to me.,Highly disagree,149/150,Highly agree,4,1698243262119,1698243264931,\Highly agree\,\Highly agree\,\4\,1698243264308,1698243264308,2189,2189,2812,buq,qns-item-noham,149,668717,0.0-1.0-0.148
<b>Most people are woefully under-informed.,Highly disagree,150/150,Highly agree,4,1698243264934,1698243268452,\Highly agree\,\Highly agree\,\4\,1698243267732,1698243267732,2798,2798,3518,buq,qns-item-noham,150,672239,0.0-1.0-0.149
