PROLIFIC_PID,Question,qns_options,quest_num,answer,answer_num,question_load_timestamp,next_btn_timestamp,text_selected,final_text_selected,option_num_selected,preview_timestamps,final_text_selected_time_stamp,rt_first_option_click,rt_final_option_click,rt_submit_click,questionnaire,trial_type,trial_index,time_elapsed,internal_node_id,Demographic_Submission id,Demographic_Status,Demographic_Started at,Demographic_Completed at,Demographic_Reviewed at,Demographic_Archived at,Demographic_Time taken,Demographic_Completion code,Demographic_Total approvals,Demographic_Age,Demographic_Sex,Demographic_Ethnicity simplified,Demographic_Country of birth,Demographic_Country of residence,Demographic_Nationality,Demographic_Language,Demographic_Student status,Demographic_Employment status,Demographic_Custom study tncs accepted at
65c1874b3758b1e73a551d5d,<b>Knowing what?s true and knowing what to do about it are usually basically the same.,Highly disagree,1/94,Somewhat agree,3,1707968193917,1707968206785,\Somewhat agree\,\Somewhat agree\,\3\,1707968205826,1707968205826,11909,11909,12868,buq,qns-item-noham,1,21781,0.0-1.0-0.0,65cd869adf8f04f73b088964,AWAITING REVIEW,2024-02-15T03:35:54.693000Z,2024-02-15T03:48:27.342000Z,,2024-02-15T03:48:27.847219Z,753.0,CVPIIDEI,23,28,Female,Black,United States,United States,United States,English,No,Full-Time,Not Applicable
65c1874b3758b1e73a551d5d,<b>Most people just believe whatever is convenient for them.,Highly disagree,2/94,Somewhat agree,3,1707968206786,1707968210624,\Somewhat agree\,\Somewhat agree\,\3\,1707968210039,1707968210039,3253,3253,3838,buq,qns-item-noham,2,25620,0.0-1.0-0.1,65cd869adf8f04f73b088964,AWAITING REVIEW,2024-02-15T03:35:54.693000Z,2024-02-15T03:48:27.342000Z,,2024-02-15T03:48:27.847219Z,753.0,CVPIIDEI,23,28,Female,Black,United States,United States,United States,English,No,Full-Time,Not Applicable
65c1874b3758b1e73a551d5d,<b>Having some big beliefs helps me sort out minor ones.,Highly disagree,3/94,Somewhat agree,3,1707968210627,1707968215811,\Somewhat agree\,\Somewhat agree\,\3\,1707968215021,1707968215021,4394,4394,5184,buq,qns-item-noham,3,30807,0.0-1.0-0.2,65cd869adf8f04f73b088964,AWAITING REVIEW,2024-02-15T03:35:54.693000Z,2024-02-15T03:48:27.342000Z,,2024-02-15T03:48:27.847219Z,753.0,CVPIIDEI,23,28,Female,Black,United States,United States,United States,English,No,Full-Time,Not Applicable
65c1874b3758b1e73a551d5d,<b>Political questions are usually pretty complicated.,Highly disagree,4/94,Highly agree,4,1707968215812,1707968222146,\Highly agree\,\Highly agree\,\4\,1707968221458,1707968221458,5646,5646,6334,buq,qns-item-noham,4,37142,0.0-1.0-0.3,65cd869adf8f04f73b088964,AWAITING REVIEW,2024-02-15T03:35:54.693000Z,2024-02-15T03:48:27.342000Z,,2024-02-15T03:48:27.847219Z,753.0,CVPIIDEI,23,28,Female,Black,United States,United States,United States,English,No,Full-Time,Not Applicable
65c1874b3758b1e73a551d5d,<b>Figuring out what?s important in life requires learning a lot of facts.,Highly disagree,5/94,Somewhat disagree,2,1707968222147,1707968229640,\Somewhat disagree\,\Somewhat disagree\,\2\,1707968228934,1707968228934,6787,6787,7493,buq,qns-item-noham,5,44636,0.0-1.0-0.4,65cd869adf8f04f73b088964,AWAITING REVIEW,2024-02-15T03:35:54.693000Z,2024-02-15T03:48:27.342000Z,,2024-02-15T03:48:27.847219Z,753.0,CVPIIDEI,23,28,Female,Black,United States,United States,United States,English,No,Full-Time,Not Applicable
65c1874b3758b1e73a551d5d,<b>It is difficult for me to remember the last time I was surprised by politics.,Highly disagree,6/94,Somewhat disagree,2,1707968229641,1707968237085,\Somewhat disagree\,\Somewhat disagree\,\2\,1707968235996,1707968235996,6355,6355,7444,buq,qns-item-noham,6,52081,0.0-1.0-0.5,65cd869adf8f04f73b088964,AWAITING REVIEW,2024-02-15T03:35:54.693000Z,2024-02-15T03:48:27.342000Z,,2024-02-15T03:48:27.847219Z,753.0,CVPIIDEI,23,28,Female,Black,United States,United States,United States,English,No,Full-Time,Not Applicable
65c1874b3758b1e73a551d5d,<b>People?s false beliefs are understandable.,Highly disagree,7/94,Somewhat agree,3,1707968237086,1707968242336,\Somewhat agree\,\Somewhat agree\,\3\,1707968241712,1707968241712,4626,4626,5250,buq,qns-item-noham,7,57333,0.0-1.0-0.6,65cd869adf8f04f73b088964,AWAITING REVIEW,2024-02-15T03:35:54.693000Z,2024-02-15T03:48:27.342000Z,,2024-02-15T03:48:27.847219Z,753.0,CVPIIDEI,23,28,Female,Black,United States,United States,United States,English,No,Full-Time,Not Applicable
65c1874b3758b1e73a551d5d,<b>I spend a lot of time trying to be informed about politics.,Highly disagree,8/94,Somewhat agree,3,1707968242338,1707968247340,\Somewhat agree\,\Somewhat agree\,\3\,1707968246150,1707968246150,3812,3812,5002,buq,qns-item-noham,8,62336,0.0-1.0-0.7,65cd869adf8f04f73b088964,AWAITING REVIEW,2024-02-15T03:35:54.693000Z,2024-02-15T03:48:27.342000Z,,2024-02-15T03:48:27.847219Z,753.0,CVPIIDEI,23,28,Female,Black,United States,United States,United States,English,No,Full-Time,Not Applicable
65c1874b3758b1e73a551d5d,<b>I think a lot about whether my beliefs are right.,Highly disagree,9/94,Somewhat agree,3,1707968247342,1707968252146,\Somewhat agree\,\Somewhat agree\,\3\,1707968251524,1707968251524,4182,4182,4804,buq,qns-item-noham,9,67142,0.0-1.0-0.8,65cd869adf8f04f73b088964,AWAITING REVIEW,2024-02-15T03:35:54.693000Z,2024-02-15T03:48:27.342000Z,,2024-02-15T03:48:27.847219Z,753.0,CVPIIDEI,23,28,Female,Black,United States,United States,United States,English,No,Full-Time,Not Applicable
65c1874b3758b1e73a551d5d,<b>Statistics can be pretty misleading sometimes.,Highly disagree,10/94,Somewhat disagree,2,1707968252147,1707968256425,\Somewhat disagree\,\Somewhat disagree\,\2\,1707968255782,1707968255782,3635,3635,4278,buq,qns-item-noham,10,71422,0.0-1.0-0.9,65cd869adf8f04f73b088964,AWAITING REVIEW,2024-02-15T03:35:54.693000Z,2024-02-15T03:48:27.342000Z,,2024-02-15T03:48:27.847219Z,753.0,CVPIIDEI,23,28,Female,Black,United States,United States,United States,English,No,Full-Time,Not Applicable
65c1874b3758b1e73a551d5d,<b>I have lots of beliefs that I?m only sort of sure about.,Highly disagree,11/94,Somewhat disagree,2,1707968256427,1707968265081,\Somewhat disagree\,\Somewhat disagree\,\2\,1707968264484,1707968264484,8057,8057,8654,buq,qns-item-noham,11,80078,0.0-1.0-0.10,65cd869adf8f04f73b088964,AWAITING REVIEW,2024-02-15T03:35:54.693000Z,2024-02-15T03:48:27.342000Z,,2024-02-15T03:48:27.847219Z,753.0,CVPIIDEI,23,28,Female,Black,United States,United States,United States,English,No,Full-Time,Not Applicable
65c1874b3758b1e73a551d5d,"<b>If I go to my favorite restaurant and the food is surprisingly bad, it reminds me there are many disappointments in life.",Highly disagree,12/94,Somewhat disagree,2,1707968265083,1707968275398,\Somewhat disagree\,\Somewhat disagree\,\2\,1707968274818,1707968274818,9735,9735,10315,buq,qns-item-noham,12,90394,0.0-1.0-0.11,65cd869adf8f04f73b088964,AWAITING REVIEW,2024-02-15T03:35:54.693000Z,2024-02-15T03:48:27.342000Z,,2024-02-15T03:48:27.847219Z,753.0,CVPIIDEI,23,28,Female,Black,United States,United States,United States,English,No,Full-Time,Not Applicable
65c1874b3758b1e73a551d5d,"<b>If you are paying attention, please select ?Somewhat agree?",Highly disagree,13/94,Somewhat agree,3,1707968275400,1707968280958,\Somewhat agree\,\Somewhat agree\,\3\,1707968279458,1707968279458,4058,4058,5558,buq,qns-item-noham,13,95954,0.0-1.0-0.12,65cd869adf8f04f73b088964,AWAITING REVIEW,2024-02-15T03:35:54.693000Z,2024-02-15T03:48:27.342000Z,,2024-02-15T03:48:27.847219Z,753.0,CVPIIDEI,23,28,Female,Black,United States,United States,United States,English,No,Full-Time,Not Applicable
65c1874b3758b1e73a551d5d,"<b>When I talk to others, I often worry I?ll convince them of something I didn?t mean to.",Highly disagree,14/94,Somewhat disagree,2,1707968280960,1707968286553,\Somewhat disagree\,\Somewhat disagree\,\2\,1707968285980,1707968285980,5020,5020,5593,buq,qns-item-noham,14,101549,0.0-1.0-0.13,65cd869adf8f04f73b088964,AWAITING REVIEW,2024-02-15T03:35:54.693000Z,2024-02-15T03:48:27.342000Z,,2024-02-15T03:48:27.847219Z,753.0,CVPIIDEI,23,28,Female,Black,United States,United States,United States,English,No,Full-Time,Not Applicable
65c1874b3758b1e73a551d5d,<b>I would need to learn something utterly shocking about my party in order to change my political views.,Highly disagree,15/94,Somewhat agree,3,1707968286554,1707968299323,\Somewhat agree\,\Somewhat agree\,\3\,1707968298500,1707968298500,11946,11946,12769,buq,qns-item-noham,15,114319,0.0-1.0-0.14,65cd869adf8f04f73b088964,AWAITING REVIEW,2024-02-15T03:35:54.693000Z,2024-02-15T03:48:27.342000Z,,2024-02-15T03:48:27.847219Z,753.0,CVPIIDEI,23,28,Female,Black,United States,United States,United States,English,No,Full-Time,Not Applicable
65c1874b3758b1e73a551d5d,"<b>When I have new experiences, I tend to think of them as unique.",Highly disagree,16/94,Highly agree,4,1707968299325,1707968304996,\Highly agree\,\Highly agree\,\4\,1707968304314,1707968304314,4989,4989,5671,buq,qns-item-noham,16,119992,0.0-1.0-0.15,65cd869adf8f04f73b088964,AWAITING REVIEW,2024-02-15T03:35:54.693000Z,2024-02-15T03:48:27.342000Z,,2024-02-15T03:48:27.847219Z,753.0,CVPIIDEI,23,28,Female,Black,United States,United States,United States,English,No,Full-Time,Not Applicable
65c1874b3758b1e73a551d5d,<b>I change my mind about specific policies pretty frequently.,Highly disagree,17/94,Somewhat disagree,2,1707968304998,1707968309870,\Somewhat disagree\,\Somewhat disagree\,\2\,1707968309302,1707968309302,4304,4304,4872,buq,qns-item-noham,17,124866,0.0-1.0-0.16,65cd869adf8f04f73b088964,AWAITING REVIEW,2024-02-15T03:35:54.693000Z,2024-02-15T03:48:27.342000Z,,2024-02-15T03:48:27.847219Z,753.0,CVPIIDEI,23,28,Female,Black,United States,United States,United States,English,No,Full-Time,Not Applicable
65c1874b3758b1e73a551d5d,"<b>If a politician in my political party supports something I disagree with, I give them the benefit of the doubt, as such issues often involve hidden complexities that aren?t obvious.   ",Highly disagree,18/94,Somewhat disagree,2,1707968309871,1707968327359,\Somewhat disagree\,\Somewhat disagree\,\2\,1707968326686,1707968326686,16815,16815,17488,buq,qns-item-noham,18,142355,0.0-1.0-0.17,65cd869adf8f04f73b088964,AWAITING REVIEW,2024-02-15T03:35:54.693000Z,2024-02-15T03:48:27.342000Z,,2024-02-15T03:48:27.847219Z,753.0,CVPIIDEI,23,28,Female,Black,United States,United States,United States,English,No,Full-Time,Not Applicable
65c1874b3758b1e73a551d5d,<b>People?s bad politics are usually motivated by hatefulness.,Highly disagree,19/94,Highly agree,4,1707968327361,1707968332606,\Highly agree\,\Highly agree\,\4\,1707968331868,1707968331868,4507,4507,5245,buq,qns-item-noham,19,147602,0.0-1.0-0.18,65cd869adf8f04f73b088964,AWAITING REVIEW,2024-02-15T03:35:54.693000Z,2024-02-15T03:48:27.342000Z,,2024-02-15T03:48:27.847219Z,753.0,CVPIIDEI,23,28,Female,Black,United States,United States,United States,English,No,Full-Time,Not Applicable
65c1874b3758b1e73a551d5d,<b>I think a lot about how to reconcile my beliefs with one another.,Highly disagree,20/94,Somewhat disagree,2,1707968332607,1707968337549,\Somewhat disagree\,\Somewhat disagree\,\2\,1707968337058,1707968337058,4451,4451,4942,buq,qns-item-noham,20,152545,0.0-1.0-0.19,65cd869adf8f04f73b088964,AWAITING REVIEW,2024-02-15T03:35:54.693000Z,2024-02-15T03:48:27.342000Z,,2024-02-15T03:48:27.847219Z,753.0,CVPIIDEI,23,28,Female,Black,United States,United States,United States,English,No,Full-Time,Not Applicable
65c1874b3758b1e73a551d5d,<b>I might have false beliefs about important topics.,Highly disagree,21/94,Somewhat disagree,2,1707968337551,1707968342189,\Somewhat disagree\,\Somewhat disagree\,\2\,1707968341502,1707968341502,3951,3951,4638,buq,qns-item-noham,21,157185,0.0-1.0-0.20,65cd869adf8f04f73b088964,AWAITING REVIEW,2024-02-15T03:35:54.693000Z,2024-02-15T03:48:27.342000Z,,2024-02-15T03:48:27.847219Z,753.0,CVPIIDEI,23,28,Female,Black,United States,United States,United States,English,No,Full-Time,Not Applicable
65c1874b3758b1e73a551d5d,"<b>If a good friend of mine does something unexpected that upsets me, I feel like I don?t know them anymore.",Highly disagree,22/94,Somewhat agree,3,1707968342190,1707968348580,\Somewhat agree\,\Somewhat agree\,\3\,1707968348046,1707968348046,5856,5856,6390,buq,qns-item-noham,22,163576,0.0-1.0-0.21,65cd869adf8f04f73b088964,AWAITING REVIEW,2024-02-15T03:35:54.693000Z,2024-02-15T03:48:27.342000Z,,2024-02-15T03:48:27.847219Z,753.0,CVPIIDEI,23,28,Female,Black,United States,United States,United States,English,No,Full-Time,Not Applicable
65c1874b3758b1e73a551d5d,<b>Other people?s beliefs are often incoherent.,Highly disagree,23/94,Somewhat agree,3,1707968348581,1707968355556,\Somewhat agree\,\Somewhat agree\,\3\,1707968351546,1707968351546,2965,2965,6975,buq,qns-item-noham,23,170552,0.0-1.0-0.22,65cd869adf8f04f73b088964,AWAITING REVIEW,2024-02-15T03:35:54.693000Z,2024-02-15T03:48:27.342000Z,,2024-02-15T03:48:27.847219Z,753.0,CVPIIDEI,23,28,Female,Black,United States,United States,United States,English,No,Full-Time,Not Applicable
65c1874b3758b1e73a551d5d,"<b>Every now and then, a new experience will unsettle beliefs I?ve had for a while.",Highly disagree,24/94,Somewhat agree,3,1707968355557,1707968365684,\Somewhat agree\,\Somewhat agree\,\3\,1707968365152,1707968365152,9595,9595,10127,buq,qns-item-noham,24,180680,0.0-1.0-0.23,65cd869adf8f04f73b088964,AWAITING REVIEW,2024-02-15T03:35:54.693000Z,2024-02-15T03:48:27.342000Z,,2024-02-15T03:48:27.847219Z,753.0,CVPIIDEI,23,28,Female,Black,United States,United States,United States,English,No,Full-Time,Not Applicable
65c1874b3758b1e73a551d5d,<b>Some policies I agree with in principle are so bad I don?t support them. ,Highly disagree,25/94,Somewhat disagree,2,1707968365685,1707968373607,\Somewhat disagree\,\Somewhat disagree\,\2\,1707968373101,1707968373101,7416,7416,7922,buq,qns-item-noham,25,188603,0.0-1.0-0.24,65cd869adf8f04f73b088964,AWAITING REVIEW,2024-02-15T03:35:54.693000Z,2024-02-15T03:48:27.342000Z,,2024-02-15T03:48:27.847219Z,753.0,CVPIIDEI,23,28,Female,Black,United States,United States,United States,English,No,Full-Time,Not Applicable
65c1874b3758b1e73a551d5d,<b>I?m pretty sure I?ve accidentally spread false information.,Highly disagree,26/94,Somewhat agree,3,1707968373609,1707968377469,\Somewhat agree\,\Somewhat agree\,\3\,1707968376800,1707968376800,3191,3191,3860,buq,qns-item-noham,26,192465,0.0-1.0-0.25,65cd869adf8f04f73b088964,AWAITING REVIEW,2024-02-15T03:35:54.693000Z,2024-02-15T03:48:27.342000Z,,2024-02-15T03:48:27.847219Z,753.0,CVPIIDEI,23,28,Female,Black,United States,United States,United States,English,No,Full-Time,Not Applicable
65c1874b3758b1e73a551d5d,"<b>If I go to my favorite restaurant and the food is unexpectedly bad, then they have changed owners.",Highly disagree,27/94,Somewhat disagree,2,1707968377470,1707968384427,\Somewhat disagree\,\Somewhat disagree\,\2\,1707968383463,1707968383463,5993,5993,6957,buq,qns-item-noham,27,199423,0.0-1.0-0.26,65cd869adf8f04f73b088964,AWAITING REVIEW,2024-02-15T03:35:54.693000Z,2024-02-15T03:48:27.342000Z,,2024-02-15T03:48:27.847219Z,753.0,CVPIIDEI,23,28,Female,Black,United States,United States,United States,English,No,Full-Time,Not Applicable
65c1874b3758b1e73a551d5d,"<b>In politics, it?s important to trust your friends and family.",Highly disagree,28/94,Somewhat disagree,2,1707968384428,1707968390722,\Somewhat disagree\,\Somewhat disagree\,\2\,1707968390166,1707968390166,5738,5738,6294,buq,qns-item-noham,28,205718,0.0-1.0-0.27,65cd869adf8f04f73b088964,AWAITING REVIEW,2024-02-15T03:35:54.693000Z,2024-02-15T03:48:27.342000Z,,2024-02-15T03:48:27.847219Z,753.0,CVPIIDEI,23,28,Female,Black,United States,United States,United States,English,No,Full-Time,Not Applicable
65c1874b3758b1e73a551d5d,<b>It?s OK to have some conflicting beliefs.,Highly disagree,29/94,Highly agree,4,1707968390723,1707968395469,\Highly agree\,\Highly agree\,\4\,1707968394828,1707968394828,4105,4105,4746,buq,qns-item-noham,29,210465,0.0-1.0-0.28,65cd869adf8f04f73b088964,AWAITING REVIEW,2024-02-15T03:35:54.693000Z,2024-02-15T03:48:27.342000Z,,2024-02-15T03:48:27.847219Z,753.0,CVPIIDEI,23,28,Female,Black,United States,United States,United States,English,No,Full-Time,Not Applicable
65c1874b3758b1e73a551d5d,<b>Listening to people I disagree with makes my opinions better.,Highly disagree,30/94,Highly agree,4,1707968395471,1707968399761,\Highly agree\,\Highly agree\,\4\,1707968397906,1707968397906,2435,2435,4290,buq,qns-item-noham,30,214757,0.0-1.0-0.29,65cd869adf8f04f73b088964,AWAITING REVIEW,2024-02-15T03:35:54.693000Z,2024-02-15T03:48:27.342000Z,,2024-02-15T03:48:27.847219Z,753.0,CVPIIDEI,23,28,Female,Black,United States,United States,United States,English,No,Full-Time,Not Applicable
65c1874b3758b1e73a551d5d,<b>My moral compass sometimes makes it harder to determine what?s true.,Highly disagree,31/94,Highly agree,4,1707968399762,1707968406430,\Highly agree\,\Highly agree\,\4\,1707968405475,1707968405475,5713,5713,6668,buq,qns-item-noham,31,221426,0.0-1.0-0.30,65cd869adf8f04f73b088964,AWAITING REVIEW,2024-02-15T03:35:54.693000Z,2024-02-15T03:48:27.342000Z,,2024-02-15T03:48:27.847219Z,753.0,CVPIIDEI,23,28,Female,Black,United States,United States,United States,English,No,Full-Time,Not Applicable
65c1874b3758b1e73a551d5d,<b>Evidence pointing in the wrong direction isn?t really evidence at all.,Highly disagree,32/94,Highly disagree,1,1707968406431,1707968415151,\Highly disagree\,\Highly disagree\,\1\,1707968414591,1707968414591,8160,8160,8720,buq,qns-item-noham,32,230147,0.0-1.0-0.31,65cd869adf8f04f73b088964,AWAITING REVIEW,2024-02-15T03:35:54.693000Z,2024-02-15T03:48:27.342000Z,,2024-02-15T03:48:27.847219Z,753.0,CVPIIDEI,23,28,Female,Black,United States,United States,United States,English,No,Full-Time,Not Applicable
65c1874b3758b1e73a551d5d,"<b>If the political party I support messes up, it makes me think politics is rotten.",Highly disagree,33/94,Somewhat agree,3,1707968415152,1707968422878,\Somewhat agree\,\Somewhat agree\,\3\,1707968421919,1707968421919,6767,6767,7726,buq,qns-item-noham,33,237874,0.0-1.0-0.32,65cd869adf8f04f73b088964,AWAITING REVIEW,2024-02-15T03:35:54.693000Z,2024-02-15T03:48:27.342000Z,,2024-02-15T03:48:27.847219Z,753.0,CVPIIDEI,23,28,Female,Black,United States,United States,United States,English,No,Full-Time,Not Applicable
65c1874b3758b1e73a551d5d,<b>Lots of important topics can only really be understood by some groups of people.,Highly disagree,34/94,Highly agree,4,1707968422880,1707968429474,\Highly agree\,\Highly agree\,\4\,1707968428837,1707968428837,5957,5957,6594,buq,qns-item-noham,34,244470,0.0-1.0-0.33,65cd869adf8f04f73b088964,AWAITING REVIEW,2024-02-15T03:35:54.693000Z,2024-02-15T03:48:27.342000Z,,2024-02-15T03:48:27.847219Z,753.0,CVPIIDEI,23,28,Female,Black,United States,United States,United States,English,No,Full-Time,Not Applicable
65c1874b3758b1e73a551d5d,<b>Having conflicting beliefs means you haven?t thought about them enough.,Highly disagree,35/94,Somewhat disagree,2,1707968429476,1707968433967,\Somewhat disagree\,\Somewhat disagree\,\2\,1707968433435,1707968433435,3959,3959,4491,buq,qns-item-noham,35,248963,0.0-1.0-0.34,65cd869adf8f04f73b088964,AWAITING REVIEW,2024-02-15T03:35:54.693000Z,2024-02-15T03:48:27.342000Z,,2024-02-15T03:48:27.847219Z,753.0,CVPIIDEI,23,28,Female,Black,United States,United States,United States,English,No,Full-Time,Not Applicable
65c1874b3758b1e73a551d5d,<b>I do not often change my political opinions.,Highly disagree,36/94,Somewhat agree,3,1707968433968,1707968436773,\Somewhat agree\,\Somewhat agree\,\3\,1707968436307,1707968436307,2339,2339,2805,buq,qns-item-noham,36,251769,0.0-1.0-0.35,65cd869adf8f04f73b088964,AWAITING REVIEW,2024-02-15T03:35:54.693000Z,2024-02-15T03:48:27.342000Z,,2024-02-15T03:48:27.847219Z,753.0,CVPIIDEI,23,28,Female,Black,United States,United States,United States,English,No,Full-Time,Not Applicable
65c1874b3758b1e73a551d5d,<b>It?s difficult to not have at least some conflicting beliefs.,Highly disagree,37/94,Highly agree,4,1707968436774,1707968441243,\Highly agree\,\Highly agree\,\4\,1707968440449,1707968440449,3675,3675,4469,buq,qns-item-noham,37,256239,0.0-1.0-0.36,65cd869adf8f04f73b088964,AWAITING REVIEW,2024-02-15T03:35:54.693000Z,2024-02-15T03:48:27.342000Z,,2024-02-15T03:48:27.847219Z,753.0,CVPIIDEI,23,28,Female,Black,United States,United States,United States,English,No,Full-Time,Not Applicable
65c1874b3758b1e73a551d5d,<b>Wishful thinking causes a lot of problems.,Highly disagree,38/94,Somewhat agree,3,1707968441244,1707968445223,\Somewhat agree\,\Somewhat agree\,\3\,1707968444635,1707968444635,3391,3391,3979,buq,qns-item-noham,38,260219,0.0-1.0-0.37,65cd869adf8f04f73b088964,AWAITING REVIEW,2024-02-15T03:35:54.693000Z,2024-02-15T03:48:27.342000Z,,2024-02-15T03:48:27.847219Z,753.0,CVPIIDEI,23,28,Female,Black,United States,United States,United States,English,No,Full-Time,Not Applicable
65c1874b3758b1e73a551d5d,<b>I judge a food item only once I try it many times.,Highly disagree,39/94,Somewhat agree,3,1707968445224,1707968453153,\Somewhat agree\,\Somewhat agree\,\3\,1707968452587,1707968452587,7363,7363,7929,buq,qns-item-noham,39,268149,0.0-1.0-0.38,65cd869adf8f04f73b088964,AWAITING REVIEW,2024-02-15T03:35:54.693000Z,2024-02-15T03:48:27.342000Z,,2024-02-15T03:48:27.847219Z,753.0,CVPIIDEI,23,28,Female,Black,United States,United States,United States,English,No,Full-Time,Not Applicable
65c1874b3758b1e73a551d5d,"<b>When a person holds conflicting beliefs, they should really try to figure out what?s wrong.",Highly disagree,40/94,Somewhat agree,3,1707968453154,1707968461114,\Somewhat agree\,\Somewhat agree\,\3\,1707968460424,1707968460424,7270,7270,7960,buq,qns-item-noham,40,276110,0.0-1.0-0.39,65cd869adf8f04f73b088964,AWAITING REVIEW,2024-02-15T03:35:54.693000Z,2024-02-15T03:48:27.342000Z,,2024-02-15T03:48:27.847219Z,753.0,CVPIIDEI,23,28,Female,Black,United States,United States,United States,English,No,Full-Time,Not Applicable
65c1874b3758b1e73a551d5d,<b>Knowing what?s important in life is easy.,Highly disagree,41/94,Somewhat agree,3,1707968461115,1707968464658,\Somewhat agree\,\Somewhat agree\,\3\,1707968464116,1707968464116,3001,3001,3543,buq,qns-item-noham,41,279654,0.0-1.0-0.40,65cd869adf8f04f73b088964,AWAITING REVIEW,2024-02-15T03:35:54.693000Z,2024-02-15T03:48:27.342000Z,,2024-02-15T03:48:27.847219Z,753.0,CVPIIDEI,23,28,Female,Black,United States,United States,United States,English,No,Full-Time,Not Applicable
65c1874b3758b1e73a551d5d,<b>I swim across the Atlantic Ocean to get to work every day.,Highly disagree,42/94,Highly disagree,1,1707968464660,1707968471563,\Highly disagree\,\Highly disagree\,\1\,1707968470313,1707968470313,5653,5653,6903,buq,qns-item-noham,42,286559,0.0-1.0-0.41,65cd869adf8f04f73b088964,AWAITING REVIEW,2024-02-15T03:35:54.693000Z,2024-02-15T03:48:27.342000Z,,2024-02-15T03:48:27.847219Z,753.0,CVPIIDEI,23,28,Female,Black,United States,United States,United States,English,No,Full-Time,Not Applicable
65c1874b3758b1e73a551d5d,"<b>Sometimes, you just have to ignore evidence that you know is wrong.",Highly disagree,43/94,Highly disagree,1,1707968471564,1707968476271,\Highly disagree\,\Highly disagree\,\1\,1707968475568,1707968475568,4004,4004,4707,buq,qns-item-noham,43,291267,0.0-1.0-0.42,65cd869adf8f04f73b088964,AWAITING REVIEW,2024-02-15T03:35:54.693000Z,2024-02-15T03:48:27.342000Z,,2024-02-15T03:48:27.847219Z,753.0,CVPIIDEI,23,28,Female,Black,United States,United States,United States,English,No,Full-Time,Not Applicable
65c1874b3758b1e73a551d5d,<b>I have had some false beliefs.,Highly disagree,44/94,Highly agree,4,1707968476272,1707968480532,\Highly agree\,\Highly agree\,\4\,1707968480000,1707968480000,3728,3728,4260,buq,qns-item-noham,44,295528,0.0-1.0-0.43,65cd869adf8f04f73b088964,AWAITING REVIEW,2024-02-15T03:35:54.693000Z,2024-02-15T03:48:27.342000Z,,2024-02-15T03:48:27.847219Z,753.0,CVPIIDEI,23,28,Female,Black,United States,United States,United States,English,No,Full-Time,Not Applicable
65c1874b3758b1e73a551d5d,"<b>If one friend does something that upsets me, I sometimes start to distrust people in general.",Highly disagree,45/94,Somewhat agree,3,1707968480534,1707968485778,\Somewhat agree\,\Somewhat agree\,\3\,1707968484871,1707968484871,4337,4337,5244,buq,qns-item-noham,45,300774,0.0-1.0-0.44,65cd869adf8f04f73b088964,AWAITING REVIEW,2024-02-15T03:35:54.693000Z,2024-02-15T03:48:27.342000Z,,2024-02-15T03:48:27.847219Z,753.0,CVPIIDEI,23,28,Female,Black,United States,United States,United States,English,No,Full-Time,Not Applicable
65c1874b3758b1e73a551d5d,<b>The facts about most important matters are easy to find.,Highly disagree,46/94,Somewhat agree,3,1707968485779,1707968491328,\Somewhat agree\,\Somewhat agree\,\3\,1707968490582,1707968490582,4803,4803,5549,buq,qns-item-noham,46,306324,0.0-1.0-0.45,65cd869adf8f04f73b088964,AWAITING REVIEW,2024-02-15T03:35:54.693000Z,2024-02-15T03:48:27.342000Z,,2024-02-15T03:48:27.847219Z,753.0,CVPIIDEI,23,28,Female,Black,United States,United States,United States,English,No,Full-Time,Not Applicable
65c1874b3758b1e73a551d5d,<b>It?s better to know what?s true than to know what?s moral.,Highly disagree,47/94,Somewhat agree,3,1707968491329,1707968502176,\Somewhat agree\,\Somewhat agree\,\3\,1707968501035,1707968501035,9706,9706,10847,buq,qns-item-noham,47,317172,0.0-1.0-0.46,65cd869adf8f04f73b088964,AWAITING REVIEW,2024-02-15T03:35:54.693000Z,2024-02-15T03:48:27.342000Z,,2024-02-15T03:48:27.847219Z,753.0,CVPIIDEI,23,28,Female,Black,United States,United States,United States,English,No,Full-Time,Not Applicable
65c1874b3758b1e73a551d5d,<b>I used to think the world was less complicated than I do now.,Highly disagree,48/94,Highly agree,4,1707968502177,1707968508272,\Highly agree\,\Highly agree\,\4\,1707968507603,1707968507603,5426,5426,6095,buq,qns-item-noham,48,323268,0.0-1.0-0.47,65cd869adf8f04f73b088964,AWAITING REVIEW,2024-02-15T03:35:54.693000Z,2024-02-15T03:48:27.342000Z,,2024-02-15T03:48:27.847219Z,753.0,CVPIIDEI,23,28,Female,Black,United States,United States,United States,English,No,Full-Time,Not Applicable
65c1874b3758b1e73a551d5d,<b>People are usually completely right or completely wrong.,Highly disagree,49/94,Somewhat disagree,2,1707968508273,1707968516939,\Somewhat agree\,\Somewhat disagree\,\3\,1707968513387,1707968516195,5114,7922,8666,buq,qns-item-noham,49,331935,0.0-1.0-0.48,65cd869adf8f04f73b088964,AWAITING REVIEW,2024-02-15T03:35:54.693000Z,2024-02-15T03:48:27.342000Z,,2024-02-15T03:48:27.847219Z,753.0,CVPIIDEI,23,28,Female,Black,United States,United States,United States,English,No,Full-Time,Not Applicable
65c1874b3758b1e73a551d5d,<b>I spend a lot of time considering alternatives to my beliefs.,Highly disagree,50/94,Somewhat agree,3,1707968516940,1707968523151,\Highly agree\,\Somewhat agree\,\4\,1707968519335,1707968522588,2395,5648,6211,buq,qns-item-noham,50,338147,0.0-1.0-0.49,65cd869adf8f04f73b088964,AWAITING REVIEW,2024-02-15T03:35:54.693000Z,2024-02-15T03:48:27.342000Z,,2024-02-15T03:48:27.847219Z,753.0,CVPIIDEI,23,28,Female,Black,United States,United States,United States,English,No,Full-Time,Not Applicable
65c1874b3758b1e73a551d5d,"<b>Political enemies need to be defeated, not convinced.",Highly disagree,51/94,Somewhat agree,3,1707968523152,1707968532302,\Somewhat agree\,\Somewhat agree\,\3\,1707968530953,1707968530953,7801,7801,9150,buq,qns-item-noham,51,347298,0.0-1.0-0.50,65cd869adf8f04f73b088964,AWAITING REVIEW,2024-02-15T03:35:54.693000Z,2024-02-15T03:48:27.342000Z,,2024-02-15T03:48:27.847219Z,753.0,CVPIIDEI,23,28,Female,Black,United States,United States,United States,English,No,Full-Time,Not Applicable
65c1874b3758b1e73a551d5d,<b>I form my political views only after meticulously gathering historical and present information about their policies.,Highly disagree,52/94,Somewhat agree,3,1707968532303,1707968538778,\Somewhat agree\,\Somewhat agree\,\3\,1707968537732,1707968537732,5429,5429,6475,buq,qns-item-noham,52,353775,0.0-1.0-0.51,65cd869adf8f04f73b088964,AWAITING REVIEW,2024-02-15T03:35:54.693000Z,2024-02-15T03:48:27.342000Z,,2024-02-15T03:48:27.847219Z,753.0,CVPIIDEI,23,28,Female,Black,United States,United States,United States,English,No,Full-Time,Not Applicable
65c1874b3758b1e73a551d5d,<b>It is difficult for me to remember the last time I was surprised by politics.,Highly disagree,53/94,Somewhat disagree,2,1707968538780,1707968551252,\Somewhat disagree\,\Somewhat disagree\,\2\,1707968542668,1707968542668,3888,3888,12472,buq,qns-item-noham,53,366248,0.0-1.0-0.52,65cd869adf8f04f73b088964,AWAITING REVIEW,2024-02-15T03:35:54.693000Z,2024-02-15T03:48:27.342000Z,,2024-02-15T03:48:27.847219Z,753.0,CVPIIDEI,23,28,Female,Black,United States,United States,United States,English,No,Full-Time,Not Applicable
65c1874b3758b1e73a551d5d,"<b>When I find out I?m wrong, I think a lot about my related beliefs.",Highly disagree,54/94,Somewhat agree,3,1707968551253,1707968558333,\Somewhat agree\,\Somewhat agree\,\3\,1707968557572,1707968557572,6319,6319,7080,buq,qns-item-noham,54,373329,0.0-1.0-0.53,65cd869adf8f04f73b088964,AWAITING REVIEW,2024-02-15T03:35:54.693000Z,2024-02-15T03:48:27.342000Z,,2024-02-15T03:48:27.847219Z,753.0,CVPIIDEI,23,28,Female,Black,United States,United States,United States,English,No,Full-Time,Not Applicable
65c1874b3758b1e73a551d5d,"<b>If the political party I support messes up, it makes me think you can?t trust anyone these days",Highly disagree,55/94,Somewhat agree,3,1707968558335,1707968564450,\Somewhat agree\,\Somewhat agree\,\3\,1707968563638,1707968563638,5303,5303,6115,buq,qns-item-noham,55,379446,0.0-1.0-0.54,65cd869adf8f04f73b088964,AWAITING REVIEW,2024-02-15T03:35:54.693000Z,2024-02-15T03:48:27.342000Z,,2024-02-15T03:48:27.847219Z,753.0,CVPIIDEI,23,28,Female,Black,United States,United States,United States,English,No,Full-Time,Not Applicable
65c1874b3758b1e73a551d5d,<b>People?s brains turn off when they talk about politics.,Highly disagree,56/94,Somewhat disagree,2,1707968564451,1707968570826,\Somewhat disagree\,\Somewhat disagree\,\2\,1707968570140,1707968570140,5689,5689,6375,buq,qns-item-noham,56,385822,0.0-1.0-0.55,65cd869adf8f04f73b088964,AWAITING REVIEW,2024-02-15T03:35:54.693000Z,2024-02-15T03:48:27.342000Z,,2024-02-15T03:48:27.847219Z,753.0,CVPIIDEI,23,28,Female,Black,United States,United States,United States,English,No,Full-Time,Not Applicable
65c1874b3758b1e73a551d5d,<b>People who are wrong are usually just ignoring the obvious.,Highly disagree,57/94,Somewhat agree,3,1707968570827,1707968574281,\Somewhat agree\,\Somewhat agree\,\3\,1707968573672,1707968573672,2845,2845,3454,buq,qns-item-noham,57,389277,0.0-1.0-0.56,65cd869adf8f04f73b088964,AWAITING REVIEW,2024-02-15T03:35:54.693000Z,2024-02-15T03:48:27.342000Z,,2024-02-15T03:48:27.847219Z,753.0,CVPIIDEI,23,28,Female,Black,United States,United States,United States,English,No,Full-Time,Not Applicable
65c1874b3758b1e73a551d5d,"<b>When forming my views on people, I rely more on what they are like now rather than rely on my past experience with them.",Highly disagree,58/94,Somewhat agree,3,1707968574282,1707968585659,\Somewhat agree\,\Somewhat agree\,\3\,1707968584704,1707968584704,10422,10422,11377,buq,qns-item-noham,58,400655,0.0-1.0-0.57,65cd869adf8f04f73b088964,AWAITING REVIEW,2024-02-15T03:35:54.693000Z,2024-02-15T03:48:27.342000Z,,2024-02-15T03:48:27.847219Z,753.0,CVPIIDEI,23,28,Female,Black,United States,United States,United States,English,No,Full-Time,Not Applicable
65c1874b3758b1e73a551d5d,"<b>When people contradict my beliefs, I usually know about their evidence already.",Highly disagree,59/94,Highly agree,4,1707968585660,1707968590912,\Highly agree\,\Highly agree\,\4\,1707968590357,1707968590357,4697,4697,5252,buq,qns-item-noham,59,405908,0.0-1.0-0.58,65cd869adf8f04f73b088964,AWAITING REVIEW,2024-02-15T03:35:54.693000Z,2024-02-15T03:48:27.342000Z,,2024-02-15T03:48:27.847219Z,753.0,CVPIIDEI,23,28,Female,Black,United States,United States,United States,English,No,Full-Time,Not Applicable
65c1874b3758b1e73a551d5d,<b>Figuring out what?s true and what?s false mainly requires a strong moral compass.,Highly disagree,60/94,Somewhat disagree,2,1707968590913,1707968601261,\Somewhat disagree\,\Somewhat disagree\,\2\,1707968598589,1707968598589,7676,7676,10348,buq,qns-item-noham,60,416257,0.0-1.0-0.59,65cd869adf8f04f73b088964,AWAITING REVIEW,2024-02-15T03:35:54.693000Z,2024-02-15T03:48:27.342000Z,,2024-02-15T03:48:27.847219Z,753.0,CVPIIDEI,23,28,Female,Black,United States,United States,United States,English,No,Full-Time,Not Applicable
65c1874b3758b1e73a551d5d,"<b>Usually I?m wrong about simple things, not complicated ones.",Highly disagree,61/94,Somewhat disagree,2,1707968601262,1707968607505,\Somewhat disagree\,\Somewhat disagree\,\2\,1707968605669,1707968605669,4407,4407,6243,buq,qns-item-noham,61,422501,0.0-1.0-0.60,65cd869adf8f04f73b088964,AWAITING REVIEW,2024-02-15T03:35:54.693000Z,2024-02-15T03:48:27.342000Z,,2024-02-15T03:48:27.847219Z,753.0,CVPIIDEI,23,28,Female,Black,United States,United States,United States,English,No,Full-Time,Not Applicable
65c1874b3758b1e73a551d5d,<b>Getting all the information I want about important things is hard.,Highly disagree,62/94,Highly agree,4,1707968607506,1707968614558,\Highly agree\,\Highly agree\,\4\,1707968613856,1707968613856,6350,6350,7052,buq,qns-item-noham,62,429554,0.0-1.0-0.61,65cd869adf8f04f73b088964,AWAITING REVIEW,2024-02-15T03:35:54.693000Z,2024-02-15T03:48:27.342000Z,,2024-02-15T03:48:27.847219Z,753.0,CVPIIDEI,23,28,Female,Black,United States,United States,United States,English,No,Full-Time,Not Applicable
65c1874b3758b1e73a551d5d,<b>Most false beliefs spread because people try to deceive one another.,Highly disagree,63/94,Highly agree,4,1707968614560,1707968620783,\Highly agree\,\Highly agree\,\4\,1707968620147,1707968620147,5587,5587,6223,buq,qns-item-noham,63,435779,0.0-1.0-0.62,65cd869adf8f04f73b088964,AWAITING REVIEW,2024-02-15T03:35:54.693000Z,2024-02-15T03:48:27.342000Z,,2024-02-15T03:48:27.847219Z,753.0,CVPIIDEI,23,28,Female,Black,United States,United States,United States,English,No,Full-Time,Not Applicable
65c1874b3758b1e73a551d5d,<b>I can usually find something to agree with in most people?s beliefs.,Highly disagree,64/94,Somewhat agree,3,1707968620784,1707968626229,\Somewhat agree\,\Somewhat agree\,\3\,1707968625553,1707968625553,4769,4769,5445,buq,qns-item-noham,64,441225,0.0-1.0-0.63,65cd869adf8f04f73b088964,AWAITING REVIEW,2024-02-15T03:35:54.693000Z,2024-02-15T03:48:27.342000Z,,2024-02-15T03:48:27.847219Z,753.0,CVPIIDEI,23,28,Female,Black,United States,United States,United States,English,No,Full-Time,Not Applicable
65c1874b3758b1e73a551d5d,<b>I only form my views of people once I get to know them very well.,Highly disagree,65/94,Somewhat disagree,2,1707968626230,1707968632259,\Somewhat disagree\,\Somewhat disagree\,\2\,1707968631175,1707968631175,4945,4945,6029,buq,qns-item-noham,65,447255,0.0-1.0-0.64,65cd869adf8f04f73b088964,AWAITING REVIEW,2024-02-15T03:35:54.693000Z,2024-02-15T03:48:27.342000Z,,2024-02-15T03:48:27.847219Z,753.0,CVPIIDEI,23,28,Female,Black,United States,United States,United States,English,No,Full-Time,Not Applicable
65c1874b3758b1e73a551d5d,"<b>When people tell me important things about the world, I usually believe them.",Highly disagree,66/94,Somewhat agree,3,1707968632260,1707968637017,\Somewhat agree\,\Somewhat agree\,\3\,1707968636023,1707968636023,3763,3763,4757,buq,qns-item-noham,66,452013,0.0-1.0-0.65,65cd869adf8f04f73b088964,AWAITING REVIEW,2024-02-15T03:35:54.693000Z,2024-02-15T03:48:27.342000Z,,2024-02-15T03:48:27.847219Z,753.0,CVPIIDEI,23,28,Female,Black,United States,United States,United States,English,No,Full-Time,Not Applicable
65c1874b3758b1e73a551d5d,"<b>If a friend does something that upsets me, it reminds me what an unpredictable place the world is.",Highly disagree,67/94,Somewhat agree,3,1707968637018,1707968641883,\Somewhat agree\,\Somewhat agree\,\3\,1707968641018,1707968641018,4000,4000,4865,buq,qns-item-noham,67,456879,0.0-1.0-0.66,65cd869adf8f04f73b088964,AWAITING REVIEW,2024-02-15T03:35:54.693000Z,2024-02-15T03:48:27.342000Z,,2024-02-15T03:48:27.847219Z,753.0,CVPIIDEI,23,28,Female,Black,United States,United States,United States,English,No,Full-Time,Not Applicable
65c1874b3758b1e73a551d5d,<b>People tend to believe whatever is good for their friends.,Highly disagree,68/94,Somewhat agree,3,1707968641885,1707968645993,\Somewhat agree\,\Somewhat agree\,\3\,1707968645221,1707968645221,3336,3336,4108,buq,qns-item-noham,68,460989,0.0-1.0-0.67,65cd869adf8f04f73b088964,AWAITING REVIEW,2024-02-15T03:35:54.693000Z,2024-02-15T03:48:27.342000Z,,2024-02-15T03:48:27.847219Z,753.0,CVPIIDEI,23,28,Female,Black,United States,United States,United States,English,No,Full-Time,Not Applicable
65c1874b3758b1e73a551d5d,<b>I used to be more certain my beliefs were true.,Highly disagree,69/94,Somewhat agree,3,1707968645995,1707968652997,\Somewhat agree\,\Somewhat agree\,\3\,1707968650021,1707968650021,4026,4026,7002,buq,qns-item-noham,69,467993,0.0-1.0-0.68,65cd869adf8f04f73b088964,AWAITING REVIEW,2024-02-15T03:35:54.693000Z,2024-02-15T03:48:27.342000Z,,2024-02-15T03:48:27.847219Z,753.0,CVPIIDEI,23,28,Female,Black,United States,United States,United States,English,No,Full-Time,Not Applicable
65c1874b3758b1e73a551d5d,<b>It?s often pretty easy to figure out whether something is true based on who said it.,Highly disagree,70/94,Somewhat agree,3,1707968652998,1707968659882,\Somewhat agree\,\Somewhat agree\,\3\,1707968658940,1707968658940,5942,5942,6884,buq,qns-item-noham,70,474878,0.0-1.0-0.69,65cd869adf8f04f73b088964,AWAITING REVIEW,2024-02-15T03:35:54.693000Z,2024-02-15T03:48:27.342000Z,,2024-02-15T03:48:27.847219Z,753.0,CVPIIDEI,23,28,Female,Black,United States,United States,United States,English,No,Full-Time,Not Applicable
65c1874b3758b1e73a551d5d,<b>I transform into a hummingbird every day.,Highly disagree,71/94,Highly disagree,1,1707968659883,1707968662738,\Highly disagree\,\Highly disagree\,\1\,1707968661641,1707968661641,1758,1758,2855,buq,qns-item-noham,71,477735,0.0-1.0-0.70,65cd869adf8f04f73b088964,AWAITING REVIEW,2024-02-15T03:35:54.693000Z,2024-02-15T03:48:27.342000Z,,2024-02-15T03:48:27.847219Z,753.0,CVPIIDEI,23,28,Female,Black,United States,United States,United States,English,No,Full-Time,Not Applicable
65c1874b3758b1e73a551d5d,<b>I think a lot about arguments against my views.,Highly disagree,72/94,Somewhat agree,3,1707968662740,1707968666850,\Somewhat agree\,\Somewhat agree\,\3\,1707968665926,1707968665926,3186,3186,4110,buq,qns-item-noham,72,481847,0.0-1.0-0.71,65cd869adf8f04f73b088964,AWAITING REVIEW,2024-02-15T03:35:54.693000Z,2024-02-15T03:48:27.342000Z,,2024-02-15T03:48:27.847219Z,753.0,CVPIIDEI,23,28,Female,Black,United States,United States,United States,English,No,Full-Time,Not Applicable
65c1874b3758b1e73a551d5d,<b>Personal experience is usually more important than facts and figures.,Highly disagree,73/94,Highly disagree,1,1707968666852,1707968673251,\Highly disagree\,\Highly disagree\,\1\,1707968671821,1707968671821,4969,4969,6399,buq,qns-item-noham,73,488247,0.0-1.0-0.72,65cd869adf8f04f73b088964,AWAITING REVIEW,2024-02-15T03:35:54.693000Z,2024-02-15T03:48:27.342000Z,,2024-02-15T03:48:27.847219Z,753.0,CVPIIDEI,23,28,Female,Black,United States,United States,United States,English,No,Full-Time,Not Applicable
65c1874b3758b1e73a551d5d,<b>I?ve been tricked before about important matters.,Highly disagree,74/94,Highly agree,4,1707968673252,1707968677326,\Highly agree\,\Highly agree\,\4\,1707968676655,1707968676655,3403,3403,4074,buq,qns-item-noham,74,492322,0.0-1.0-0.73,65cd869adf8f04f73b088964,AWAITING REVIEW,2024-02-15T03:35:54.693000Z,2024-02-15T03:48:27.342000Z,,2024-02-15T03:48:27.847219Z,753.0,CVPIIDEI,23,28,Female,Black,United States,United States,United States,English,No,Full-Time,Not Applicable
65c1874b3758b1e73a551d5d,<b>I would need to be totally wowed if I were to change my opinion of a restaurant I don?t like.,Highly disagree,75/94,Highly agree,4,1707968677327,1707968685850,\Highly agree\,\Highly agree\,\4\,1707968684993,1707968684993,7666,7666,8523,buq,qns-item-noham,75,500846,0.0-1.0-0.74,65cd869adf8f04f73b088964,AWAITING REVIEW,2024-02-15T03:35:54.693000Z,2024-02-15T03:48:27.342000Z,,2024-02-15T03:48:27.847219Z,753.0,CVPIIDEI,23,28,Female,Black,United States,United States,United States,English,No,Full-Time,Not Applicable
65c1874b3758b1e73a551d5d,<b>I care a lot about politics.,Highly disagree,76/94,Somewhat agree,3,1707968685852,1707968687960,\Somewhat agree\,\Somewhat agree\,\3\,1707968687348,1707968687348,1496,1496,2108,buq,qns-item-noham,76,502956,0.0-1.0-0.75,65cd869adf8f04f73b088964,AWAITING REVIEW,2024-02-15T03:35:54.693000Z,2024-02-15T03:48:27.342000Z,,2024-02-15T03:48:27.847219Z,753.0,CVPIIDEI,23,28,Female,Black,United States,United States,United States,English,No,Full-Time,Not Applicable
65c1874b3758b1e73a551d5d,<b>There are some topics I?ve been really wrong about.,Highly disagree,77/94,Somewhat agree,3,1707968687961,1707968692040,\Somewhat agree\,\Somewhat agree\,\3\,1707968691499,1707968691499,3538,3538,4079,buq,qns-item-noham,77,507036,0.0-1.0-0.76,65cd869adf8f04f73b088964,AWAITING REVIEW,2024-02-15T03:35:54.693000Z,2024-02-15T03:48:27.342000Z,,2024-02-15T03:48:27.847219Z,753.0,CVPIIDEI,23,28,Female,Black,United States,United States,United States,English,No,Full-Time,Not Applicable
65c1874b3758b1e73a551d5d,<b>Most beliefs can be supported with at least some evidence.,Highly disagree,78/94,Highly agree,4,1707968692041,1707968696519,\Highly agree\,\Highly agree\,\4\,1707968695059,1707968695059,3018,3018,4478,buq,qns-item-noham,78,511515,0.0-1.0-0.77,65cd869adf8f04f73b088964,AWAITING REVIEW,2024-02-15T03:35:54.693000Z,2024-02-15T03:48:27.342000Z,,2024-02-15T03:48:27.847219Z,753.0,CVPIIDEI,23,28,Female,Black,United States,United States,United States,English,No,Full-Time,Not Applicable
65c1874b3758b1e73a551d5d,<b>Other people make life out to be more complicated than it really is.,Highly disagree,79/94,Somewhat disagree,2,1707968696520,1707968705797,\Somewhat disagree\,\Somewhat disagree\,\2\,1707968704577,1707968704577,8057,8057,9277,buq,qns-item-noham,79,520793,0.0-1.0-0.78,65cd869adf8f04f73b088964,AWAITING REVIEW,2024-02-15T03:35:54.693000Z,2024-02-15T03:48:27.342000Z,,2024-02-15T03:48:27.847219Z,753.0,CVPIIDEI,23,28,Female,Black,United States,United States,United States,English,No,Full-Time,Not Applicable
65c1874b3758b1e73a551d5d,"<b>Policy details don?t matter much, just the big picture.",Highly disagree,80/94,Somewhat disagree,2,1707968705798,1707968710724,\Somewhat disagree\,\Somewhat disagree\,\2\,1707968709807,1707968709807,4009,4009,4926,buq,qns-item-noham,80,525720,0.0-1.0-0.79,65cd869adf8f04f73b088964,AWAITING REVIEW,2024-02-15T03:35:54.693000Z,2024-02-15T03:48:27.342000Z,,2024-02-15T03:48:27.847219Z,753.0,CVPIIDEI,23,28,Female,Black,United States,United States,United States,English,No,Full-Time,Not Applicable
65c1874b3758b1e73a551d5d,<b>I know my friends so well they can hardly ever surprise me.,Highly disagree,81/94,Somewhat disagree,2,1707968710725,1707968715118,\Somewhat disagree\,\Somewhat disagree\,\2\,1707968714538,1707968714538,3813,3813,4393,buq,qns-item-noham,81,530114,0.0-1.0-0.80,65cd869adf8f04f73b088964,AWAITING REVIEW,2024-02-15T03:35:54.693000Z,2024-02-15T03:48:27.342000Z,,2024-02-15T03:48:27.847219Z,753.0,CVPIIDEI,23,28,Female,Black,United States,United States,United States,English,No,Full-Time,Not Applicable
65c1874b3758b1e73a551d5d,<b>I do not often change my views on people.,Highly disagree,82/94,Somewhat agree,3,1707968715119,1707968717573,\Somewhat agree\,\Somewhat agree\,\3\,1707968717017,1707968717017,1898,1898,2454,buq,qns-item-noham,82,532569,0.0-1.0-0.81,65cd869adf8f04f73b088964,AWAITING REVIEW,2024-02-15T03:35:54.693000Z,2024-02-15T03:48:27.342000Z,,2024-02-15T03:48:27.847219Z,753.0,CVPIIDEI,23,28,Female,Black,United States,United States,United States,English,No,Full-Time,Not Applicable
65c1874b3758b1e73a551d5d,<b>I?m more certain about my beliefs than I used to be.,Highly disagree,83/94,Somewhat agree,3,1707968717574,1707968723020,\Somewhat agree\,\Somewhat agree\,\3\,1707968720037,1707968720037,2463,2463,5446,buq,qns-item-noham,83,538016,0.0-1.0-0.82,65cd869adf8f04f73b088964,AWAITING REVIEW,2024-02-15T03:35:54.693000Z,2024-02-15T03:48:27.342000Z,,2024-02-15T03:48:27.847219Z,753.0,CVPIIDEI,23,28,Female,Black,United States,United States,United States,English,No,Full-Time,Not Applicable
65c1874b3758b1e73a551d5d,<b>People often tell falsehoods unintentionally.,Highly disagree,84/94,Highly agree,4,1707968723022,1707968727407,\Highly agree\,\Highly agree\,\4\,1707968726708,1707968726708,3686,3686,4385,buq,qns-item-noham,84,542403,0.0-1.0-0.83,65cd869adf8f04f73b088964,AWAITING REVIEW,2024-02-15T03:35:54.693000Z,2024-02-15T03:48:27.342000Z,,2024-02-15T03:48:27.847219Z,753.0,CVPIIDEI,23,28,Female,Black,United States,United States,United States,English,No,Full-Time,Not Applicable
65c1874b3758b1e73a551d5d,<b>Most people don?t know much about most things.,Highly disagree,85/94,Somewhat agree,3,1707968727408,1707968732980,\Somewhat agree\,\Somewhat agree\,\3\,1707968732149,1707968732149,4741,4741,5572,buq,qns-item-noham,85,547976,0.0-1.0-0.84,65cd869adf8f04f73b088964,AWAITING REVIEW,2024-02-15T03:35:54.693000Z,2024-02-15T03:48:27.342000Z,,2024-02-15T03:48:27.847219Z,753.0,CVPIIDEI,23,28,Female,Black,United States,United States,United States,English,No,Full-Time,Not Applicable
65c1874b3758b1e73a551d5d,"<b>If I find out something new about someone, I easily change my views about them.",Highly disagree,86/94,Somewhat agree,3,1707968732981,1707968742055,\Somewhat agree\,\Somewhat agree\,\3\,1707968741327,1707968741327,8346,8346,9074,buq,qns-item-noham,86,557051,0.0-1.0-0.85,65cd869adf8f04f73b088964,AWAITING REVIEW,2024-02-15T03:35:54.693000Z,2024-02-15T03:48:27.342000Z,,2024-02-15T03:48:27.847219Z,753.0,CVPIIDEI,23,28,Female,Black,United States,United States,United States,English,No,Full-Time,Not Applicable
65c1874b3758b1e73a551d5d,<b>Having true beliefs is difficult.,Highly disagree,87/94,Highly agree,4,1707968742056,1707968745750,\Highly agree\,\Highly agree\,\4\,1707968744980,1707968744980,2924,2924,3694,buq,qns-item-noham,87,560746,0.0-1.0-0.86,65cd869adf8f04f73b088964,AWAITING REVIEW,2024-02-15T03:35:54.693000Z,2024-02-15T03:48:27.342000Z,,2024-02-15T03:48:27.847219Z,753.0,CVPIIDEI,23,28,Female,Black,United States,United States,United States,English,No,Full-Time,Not Applicable
65c1874b3758b1e73a551d5d,<b>I don?t try new foods since I know I won?t like them.,Highly disagree,88/94,Highly disagree,1,1707968745751,1707968749783,\Highly disagree\,\Highly disagree\,\1\,1707968749142,1707968749142,3391,3391,4032,buq,qns-item-noham,88,564779,0.0-1.0-0.87,65cd869adf8f04f73b088964,AWAITING REVIEW,2024-02-15T03:35:54.693000Z,2024-02-15T03:48:27.342000Z,,2024-02-15T03:48:27.847219Z,753.0,CVPIIDEI,23,28,Female,Black,United States,United States,United States,English,No,Full-Time,Not Applicable
65c1874b3758b1e73a551d5d,<b>Other people trick each other a lot.,Highly disagree,89/94,Somewhat disagree,2,1707968749784,1707968757225,\Somewhat disagree\,\Somewhat disagree\,\2\,1707968755926,1707968755926,6142,6142,7441,buq,qns-item-noham,89,572221,0.0-1.0-0.88,65cd869adf8f04f73b088964,AWAITING REVIEW,2024-02-15T03:35:54.693000Z,2024-02-15T03:48:27.342000Z,,2024-02-15T03:48:27.847219Z,753.0,CVPIIDEI,23,28,Female,Black,United States,United States,United States,English,No,Full-Time,Not Applicable
65c1874b3758b1e73a551d5d,<b>I would need to learn a lot about a person for my opinion of them to be swayed.,Highly disagree,90/94,Somewhat agree,3,1707968757226,1707968766144,\Somewhat agree\,\Somewhat agree\,\3\,1707968763410,1707968765508,6184,8282,8918,buq,qns-item-noham,90,581140,0.0-1.0-0.89,65cd869adf8f04f73b088964,AWAITING REVIEW,2024-02-15T03:35:54.693000Z,2024-02-15T03:48:27.342000Z,,2024-02-15T03:48:27.847219Z,753.0,CVPIIDEI,23,28,Female,Black,United States,United States,United States,English,No,Full-Time,Not Applicable
65c1874b3758b1e73a551d5d,<b>People can?t usually trick me when it comes to topics I care about.,Highly disagree,91/94,Highly agree,4,1707968766145,1707968771371,\Highly agree\,\Highly agree\,\4\,1707968770714,1707968770714,4569,4569,5226,buq,qns-item-noham,91,586367,0.0-1.0-0.90,65cd869adf8f04f73b088964,AWAITING REVIEW,2024-02-15T03:35:54.693000Z,2024-02-15T03:48:27.342000Z,,2024-02-15T03:48:27.847219Z,753.0,CVPIIDEI,23,28,Female,Black,United States,United States,United States,English,No,Full-Time,Not Applicable
65c1874b3758b1e73a551d5d,<b>I do not often change my views on food.,Highly disagree,92/94,Somewhat agree,3,1707968771373,1707968776818,\Somewhat agree\,\Somewhat agree\,\3\,1707968775196,1707968775196,3823,3823,5445,buq,qns-item-noham,92,591814,0.0-1.0-0.91,65cd869adf8f04f73b088964,AWAITING REVIEW,2024-02-15T03:35:54.693000Z,2024-02-15T03:48:27.342000Z,,2024-02-15T03:48:27.847219Z,753.0,CVPIIDEI,23,28,Female,Black,United States,United States,United States,English,No,Full-Time,Not Applicable
65c1874b3758b1e73a551d5d,<b>Specific policies are often very important to me.,Highly disagree,93/94,Somewhat disagree,2,1707968776820,1707968781906,\Somewhat disagree\,\Somewhat disagree\,\2\,1707968780753,1707968780753,3933,3933,5086,buq,qns-item-noham,93,596902,0.0-1.0-0.92,65cd869adf8f04f73b088964,AWAITING REVIEW,2024-02-15T03:35:54.693000Z,2024-02-15T03:48:27.342000Z,,2024-02-15T03:48:27.847219Z,753.0,CVPIIDEI,23,28,Female,Black,United States,United States,United States,English,No,Full-Time,Not Applicable
65c1874b3758b1e73a551d5d,<b>Most people are woefully under-informed.,Highly disagree,94/94,Somewhat agree,3,1707968781907,1707968785637,\Somewhat agree\,\Somewhat agree\,\3\,1707968784945,1707968784945,3038,3038,3730,buq,qns-item-noham,94,600633,0.0-1.0-0.93,65cd869adf8f04f73b088964,AWAITING REVIEW,2024-02-15T03:35:54.693000Z,2024-02-15T03:48:27.342000Z,,2024-02-15T03:48:27.847219Z,753.0,CVPIIDEI,23,28,Female,Black,United States,United States,United States,English,No,Full-Time,Not Applicable
65c1874b3758b1e73a551d5d,,,,,,,,,,,,,,,,,,,,,65cd869adf8f04f73b088964,AWAITING REVIEW,2024-02-15T03:35:54.693000Z,2024-02-15T03:48:27.342000Z,,2024-02-15T03:48:27.847219Z,753.0,CVPIIDEI,23,28,Female,Black,United States,United States,United States,English,No,Full-Time,Not Applicable
