PROLIFIC_PID,Question,qns_options,quest_num,answer,answer_num,question_load_timestamp,next_btn_timestamp,text_selected,final_text_selected,option_num_selected,preview_timestamps,final_text_selected_time_stamp,rt_first_option_click,rt_final_option_click,rt_submit_click,questionnaire,trial_type,trial_index,time_elapsed,internal_node_id,Demographic_Submission id,Demographic_Status,Demographic_Started at,Demographic_Completed at,Demographic_Reviewed at,Demographic_Archived at,Demographic_Time taken,Demographic_Completion code,Demographic_Total approvals,Demographic_Age,Demographic_Sex,Demographic_Ethnicity simplified,Demographic_Country of birth,Demographic_Country of residence,Demographic_Nationality,Demographic_Language,Demographic_Student status,Demographic_Employment status,Demographic_Custom study tncs accepted at
62dc4a5fef307ee53c61afcc,<b>Knowing what?s true and knowing what to do about it are usually basically the same.,Highly disagree,1/94,Somewhat agree,3,1707970009568,1707970016038,\Somewhat agree\,\Somewhat agree\,\3\,1707970015025,1707970015025,5457,5457,6470,buq,qns-item-noham,1,17345,0.0-1.0-0.0,65cd8b8155674c544e5d40f5,AWAITING REVIEW,2024-02-15T03:56:56.141000Z,2024-02-15T04:18:16.534000Z,,2024-02-15T04:18:17.507782Z,1281.0,CVPIIDEI,866,30,Male,Mixed,United States,United States,United States,English,Yes,Full-Time,Not Applicable
62dc4a5fef307ee53c61afcc,<b>Most people just believe whatever is convenient for them.,Highly disagree,2/94,Somewhat disagree,2,1707970016042,1707970021057,\Somewhat disagree\,\Somewhat disagree\,\2\,1707970020031,1707970020031,3989,3989,5015,buq,qns-item-noham,2,22363,0.0-1.0-0.1,65cd8b8155674c544e5d40f5,AWAITING REVIEW,2024-02-15T03:56:56.141000Z,2024-02-15T04:18:16.534000Z,,2024-02-15T04:18:17.507782Z,1281.0,CVPIIDEI,866,30,Male,Mixed,United States,United States,United States,English,Yes,Full-Time,Not Applicable
62dc4a5fef307ee53c61afcc,<b>Having some big beliefs helps me sort out minor ones.,Highly disagree,3/94,Highly disagree,1,1707970021058,1707970029513,\Highly disagree\,\Highly disagree\,\1\,1707970028749,1707970028749,7691,7691,8455,buq,qns-item-noham,3,30819,0.0-1.0-0.2,65cd8b8155674c544e5d40f5,AWAITING REVIEW,2024-02-15T03:56:56.141000Z,2024-02-15T04:18:16.534000Z,,2024-02-15T04:18:17.507782Z,1281.0,CVPIIDEI,866,30,Male,Mixed,United States,United States,United States,English,Yes,Full-Time,Not Applicable
62dc4a5fef307ee53c61afcc,<b>Political questions are usually pretty complicated.,Highly disagree,4/94,Somewhat agree,3,1707970029515,1707970034039,\Somewhat agree\,\Somewhat agree\,\3\,1707970033347,1707970033347,3832,3832,4524,buq,qns-item-noham,4,35345,0.0-1.0-0.3,65cd8b8155674c544e5d40f5,AWAITING REVIEW,2024-02-15T03:56:56.141000Z,2024-02-15T04:18:16.534000Z,,2024-02-15T04:18:17.507782Z,1281.0,CVPIIDEI,866,30,Male,Mixed,United States,United States,United States,English,Yes,Full-Time,Not Applicable
62dc4a5fef307ee53c61afcc,<b>Figuring out what?s important in life requires learning a lot of facts.,Highly disagree,5/94,Somewhat agree,3,1707970034040,1707970043979,\Somewhat agree\,\Somewhat agree\,\3\,1707970039171,1707970039171,5131,5131,9939,buq,qns-item-noham,5,45285,0.0-1.0-0.4,65cd8b8155674c544e5d40f5,AWAITING REVIEW,2024-02-15T03:56:56.141000Z,2024-02-15T04:18:16.534000Z,,2024-02-15T04:18:17.507782Z,1281.0,CVPIIDEI,866,30,Male,Mixed,United States,United States,United States,English,Yes,Full-Time,Not Applicable
62dc4a5fef307ee53c61afcc,<b>It is difficult for me to remember the last time I was surprised by politics.,Highly disagree,6/94,Somewhat disagree,2,1707970043980,1707970049914,\Somewhat disagree\,\Somewhat disagree\,\2\,1707970049070,1707970049070,5090,5090,5934,buq,qns-item-noham,6,51220,0.0-1.0-0.5,65cd8b8155674c544e5d40f5,AWAITING REVIEW,2024-02-15T03:56:56.141000Z,2024-02-15T04:18:16.534000Z,,2024-02-15T04:18:17.507782Z,1281.0,CVPIIDEI,866,30,Male,Mixed,United States,United States,United States,English,Yes,Full-Time,Not Applicable
62dc4a5fef307ee53c61afcc,<b>People?s false beliefs are understandable.,Highly disagree,7/94,Somewhat disagree,2,1707970049915,1707970076042,\Somewhat disagree\,\Somewhat disagree\,\2\,1707970075363,1707970075363,25448,25448,26127,buq,qns-item-noham,7,77348,0.0-1.0-0.6,65cd8b8155674c544e5d40f5,AWAITING REVIEW,2024-02-15T03:56:56.141000Z,2024-02-15T04:18:16.534000Z,,2024-02-15T04:18:17.507782Z,1281.0,CVPIIDEI,866,30,Male,Mixed,United States,United States,United States,English,Yes,Full-Time,Not Applicable
62dc4a5fef307ee53c61afcc,<b>I spend a lot of time trying to be informed about politics.,Highly disagree,8/94,Somewhat agree,3,1707970076043,1707970083941,\Somewhat agree\,\Somewhat agree\,\3\,1707970081066,1707970081066,5023,5023,7898,buq,qns-item-noham,8,85247,0.0-1.0-0.7,65cd8b8155674c544e5d40f5,AWAITING REVIEW,2024-02-15T03:56:56.141000Z,2024-02-15T04:18:16.534000Z,,2024-02-15T04:18:17.507782Z,1281.0,CVPIIDEI,866,30,Male,Mixed,United States,United States,United States,English,Yes,Full-Time,Not Applicable
62dc4a5fef307ee53c61afcc,<b>I think a lot about whether my beliefs are right.,Highly disagree,9/94,Somewhat agree,3,1707970083942,1707970093558,\Somewhat agree\,\Somewhat agree\,\3\,1707970090869,1707970090869,6927,6927,9616,buq,qns-item-noham,9,94864,0.0-1.0-0.8,65cd8b8155674c544e5d40f5,AWAITING REVIEW,2024-02-15T03:56:56.141000Z,2024-02-15T04:18:16.534000Z,,2024-02-15T04:18:17.507782Z,1281.0,CVPIIDEI,866,30,Male,Mixed,United States,United States,United States,English,Yes,Full-Time,Not Applicable
62dc4a5fef307ee53c61afcc,<b>Statistics can be pretty misleading sometimes.,Highly disagree,10/94,Somewhat agree,3,1707970093559,1707970098232,\Somewhat agree\,\Somewhat agree\,\3\,1707970097237,1707970097237,3678,3678,4673,buq,qns-item-noham,10,99538,0.0-1.0-0.9,65cd8b8155674c544e5d40f5,AWAITING REVIEW,2024-02-15T03:56:56.141000Z,2024-02-15T04:18:16.534000Z,,2024-02-15T04:18:17.507782Z,1281.0,CVPIIDEI,866,30,Male,Mixed,United States,United States,United States,English,Yes,Full-Time,Not Applicable
62dc4a5fef307ee53c61afcc,<b>I have lots of beliefs that I?m only sort of sure about.,Highly disagree,11/94,Highly agree,4,1707970098233,1707970103364,\Highly agree\,\Highly agree\,\4\,1707970102600,1707970102600,4367,4367,5131,buq,qns-item-noham,11,104670,0.0-1.0-0.10,65cd8b8155674c544e5d40f5,AWAITING REVIEW,2024-02-15T03:56:56.141000Z,2024-02-15T04:18:16.534000Z,,2024-02-15T04:18:17.507782Z,1281.0,CVPIIDEI,866,30,Male,Mixed,United States,United States,United States,English,Yes,Full-Time,Not Applicable
62dc4a5fef307ee53c61afcc,"<b>If I go to my favorite restaurant and the food is surprisingly bad, it reminds me there are many disappointments in life.",Highly disagree,12/94,Somewhat agree,3,1707970103365,1707970111416,\Somewhat agree\,\Somewhat agree\,\3\,1707970110725,1707970110725,7360,7360,8051,buq,qns-item-noham,12,112722,0.0-1.0-0.11,65cd8b8155674c544e5d40f5,AWAITING REVIEW,2024-02-15T03:56:56.141000Z,2024-02-15T04:18:16.534000Z,,2024-02-15T04:18:17.507782Z,1281.0,CVPIIDEI,866,30,Male,Mixed,United States,United States,United States,English,Yes,Full-Time,Not Applicable
62dc4a5fef307ee53c61afcc,"<b>If you are paying attention, please select ?Somewhat agree?",Highly disagree,13/94,Somewhat agree,3,1707970111417,1707970116180,\Somewhat agree\,\Somewhat agree\,\3\,1707970115481,1707970115481,4064,4064,4763,buq,qns-item-noham,13,117486,0.0-1.0-0.12,65cd8b8155674c544e5d40f5,AWAITING REVIEW,2024-02-15T03:56:56.141000Z,2024-02-15T04:18:16.534000Z,,2024-02-15T04:18:17.507782Z,1281.0,CVPIIDEI,866,30,Male,Mixed,United States,United States,United States,English,Yes,Full-Time,Not Applicable
62dc4a5fef307ee53c61afcc,"<b>When I talk to others, I often worry I?ll convince them of something I didn?t mean to.",Highly disagree,14/94,Somewhat disagree,2,1707970116181,1707970125699,\Somewhat agree\,\Somewhat disagree\,\3\,1707970124248,1707970124764,8067,8583,9518,buq,qns-item-noham,14,127005,0.0-1.0-0.13,65cd8b8155674c544e5d40f5,AWAITING REVIEW,2024-02-15T03:56:56.141000Z,2024-02-15T04:18:16.534000Z,,2024-02-15T04:18:17.507782Z,1281.0,CVPIIDEI,866,30,Male,Mixed,United States,United States,United States,English,Yes,Full-Time,Not Applicable
62dc4a5fef307ee53c61afcc,<b>I would need to learn something utterly shocking about my party in order to change my political views.,Highly disagree,15/94,Highly agree,4,1707970125700,1707970132455,\Highly agree\,\Highly agree\,\4\,1707970131649,1707970131649,5949,5949,6755,buq,qns-item-noham,15,133761,0.0-1.0-0.14,65cd8b8155674c544e5d40f5,AWAITING REVIEW,2024-02-15T03:56:56.141000Z,2024-02-15T04:18:16.534000Z,,2024-02-15T04:18:17.507782Z,1281.0,CVPIIDEI,866,30,Male,Mixed,United States,United States,United States,English,Yes,Full-Time,Not Applicable
62dc4a5fef307ee53c61afcc,"<b>When I have new experiences, I tend to think of them as unique.",Highly disagree,16/94,Somewhat agree,3,1707970132456,1707970136998,\Somewhat agree\,\Somewhat agree\,\3\,1707970136153,1707970136153,3697,3697,4542,buq,qns-item-noham,16,138305,0.0-1.0-0.15,65cd8b8155674c544e5d40f5,AWAITING REVIEW,2024-02-15T03:56:56.141000Z,2024-02-15T04:18:16.534000Z,,2024-02-15T04:18:17.507782Z,1281.0,CVPIIDEI,866,30,Male,Mixed,United States,United States,United States,English,Yes,Full-Time,Not Applicable
62dc4a5fef307ee53c61afcc,<b>I change my mind about specific policies pretty frequently.,Highly disagree,17/94,Somewhat disagree,2,1707970136999,1707970200993,\Somewhat disagree\,\Somewhat disagree\,\2\,1707970200265,1707970200265,63266,63266,63994,buq,qns-item-noham,17,202299,0.0-1.0-0.16,65cd8b8155674c544e5d40f5,AWAITING REVIEW,2024-02-15T03:56:56.141000Z,2024-02-15T04:18:16.534000Z,,2024-02-15T04:18:17.507782Z,1281.0,CVPIIDEI,866,30,Male,Mixed,United States,United States,United States,English,Yes,Full-Time,Not Applicable
62dc4a5fef307ee53c61afcc,"<b>If a politician in my political party supports something I disagree with, I give them the benefit of the doubt, as such issues often involve hidden complexities that aren?t obvious.   ",Highly disagree,18/94,Somewhat agree,3,1707970200994,1707970207980,\Somewhat agree\,\Somewhat agree\,\3\,1707970205385,1707970205385,4391,4391,6986,buq,qns-item-noham,18,209286,0.0-1.0-0.17,65cd8b8155674c544e5d40f5,AWAITING REVIEW,2024-02-15T03:56:56.141000Z,2024-02-15T04:18:16.534000Z,,2024-02-15T04:18:17.507782Z,1281.0,CVPIIDEI,866,30,Male,Mixed,United States,United States,United States,English,Yes,Full-Time,Not Applicable
62dc4a5fef307ee53c61afcc,<b>People?s bad politics are usually motivated by hatefulness.,Highly disagree,19/94,Somewhat agree,3,1707970207981,1707970212024,\Somewhat agree\,\Somewhat agree\,\3\,1707970211321,1707970211321,3340,3340,4043,buq,qns-item-noham,19,213330,0.0-1.0-0.18,65cd8b8155674c544e5d40f5,AWAITING REVIEW,2024-02-15T03:56:56.141000Z,2024-02-15T04:18:16.534000Z,,2024-02-15T04:18:17.507782Z,1281.0,CVPIIDEI,866,30,Male,Mixed,United States,United States,United States,English,Yes,Full-Time,Not Applicable
62dc4a5fef307ee53c61afcc,<b>I think a lot about how to reconcile my beliefs with one another.,Highly disagree,20/94,Somewhat agree,3,1707970212025,1707970217760,\Somewhat agree\,\Somewhat agree\,\3\,1707970217057,1707970217057,5032,5032,5735,buq,qns-item-noham,20,219066,0.0-1.0-0.19,65cd8b8155674c544e5d40f5,AWAITING REVIEW,2024-02-15T03:56:56.141000Z,2024-02-15T04:18:16.534000Z,,2024-02-15T04:18:17.507782Z,1281.0,CVPIIDEI,866,30,Male,Mixed,United States,United States,United States,English,Yes,Full-Time,Not Applicable
62dc4a5fef307ee53c61afcc,<b>I might have false beliefs about important topics.,Highly disagree,21/94,Somewhat disagree,2,1707970217761,1707970221413,\Somewhat disagree\,\Somewhat disagree\,\2\,1707970220349,1707970220349,2588,2588,3652,buq,qns-item-noham,21,222719,0.0-1.0-0.20,65cd8b8155674c544e5d40f5,AWAITING REVIEW,2024-02-15T03:56:56.141000Z,2024-02-15T04:18:16.534000Z,,2024-02-15T04:18:17.507782Z,1281.0,CVPIIDEI,866,30,Male,Mixed,United States,United States,United States,English,Yes,Full-Time,Not Applicable
62dc4a5fef307ee53c61afcc,"<b>If a good friend of mine does something unexpected that upsets me, I feel like I don?t know them anymore.",Highly disagree,22/94,Somewhat agree,3,1707970221414,1707970226913,\Somewhat disagree\,\Somewhat agree\,\2\,1707970225149,1707970226300,3735,4886,5499,buq,qns-item-noham,22,228219,0.0-1.0-0.21,65cd8b8155674c544e5d40f5,AWAITING REVIEW,2024-02-15T03:56:56.141000Z,2024-02-15T04:18:16.534000Z,,2024-02-15T04:18:17.507782Z,1281.0,CVPIIDEI,866,30,Male,Mixed,United States,United States,United States,English,Yes,Full-Time,Not Applicable
62dc4a5fef307ee53c61afcc,<b>Other people?s beliefs are often incoherent.,Highly disagree,23/94,Highly agree,4,1707970226914,1707970230633,\Highly agree\,\Highly agree\,\4\,1707970229923,1707970229923,3009,3009,3719,buq,qns-item-noham,23,231939,0.0-1.0-0.22,65cd8b8155674c544e5d40f5,AWAITING REVIEW,2024-02-15T03:56:56.141000Z,2024-02-15T04:18:16.534000Z,,2024-02-15T04:18:17.507782Z,1281.0,CVPIIDEI,866,30,Male,Mixed,United States,United States,United States,English,Yes,Full-Time,Not Applicable
62dc4a5fef307ee53c61afcc,"<b>Every now and then, a new experience will unsettle beliefs I?ve had for a while.",Highly disagree,24/94,Somewhat agree,3,1707970230634,1707970235250,\Somewhat agree\,\Somewhat agree\,\3\,1707970234282,1707970234282,3648,3648,4616,buq,qns-item-noham,24,236556,0.0-1.0-0.23,65cd8b8155674c544e5d40f5,AWAITING REVIEW,2024-02-15T03:56:56.141000Z,2024-02-15T04:18:16.534000Z,,2024-02-15T04:18:17.507782Z,1281.0,CVPIIDEI,866,30,Male,Mixed,United States,United States,United States,English,Yes,Full-Time,Not Applicable
62dc4a5fef307ee53c61afcc,<b>Some policies I agree with in principle are so bad I don?t support them. ,Highly disagree,25/94,Somewhat disagree,2,1707970235251,1707970240905,\Somewhat disagree\,\Somewhat disagree\,\2\,1707970239721,1707970239721,4470,4470,5654,buq,qns-item-noham,25,242211,0.0-1.0-0.24,65cd8b8155674c544e5d40f5,AWAITING REVIEW,2024-02-15T03:56:56.141000Z,2024-02-15T04:18:16.534000Z,,2024-02-15T04:18:17.507782Z,1281.0,CVPIIDEI,866,30,Male,Mixed,United States,United States,United States,English,Yes,Full-Time,Not Applicable
62dc4a5fef307ee53c61afcc,<b>I?m pretty sure I?ve accidentally spread false information.,Highly disagree,26/94,Somewhat agree,3,1707970240906,1707970244865,\Somewhat agree\,\Somewhat agree\,\3\,1707970244001,1707970244001,3095,3095,3959,buq,qns-item-noham,26,246171,0.0-1.0-0.25,65cd8b8155674c544e5d40f5,AWAITING REVIEW,2024-02-15T03:56:56.141000Z,2024-02-15T04:18:16.534000Z,,2024-02-15T04:18:17.507782Z,1281.0,CVPIIDEI,866,30,Male,Mixed,United States,United States,United States,English,Yes,Full-Time,Not Applicable
62dc4a5fef307ee53c61afcc,"<b>If I go to my favorite restaurant and the food is unexpectedly bad, then they have changed owners.",Highly disagree,27/94,Somewhat disagree,2,1707970244866,1707970252030,\Somewhat disagree\,\Somewhat disagree\,\2\,1707970251205,1707970251205,6339,6339,7164,buq,qns-item-noham,27,253336,0.0-1.0-0.26,65cd8b8155674c544e5d40f5,AWAITING REVIEW,2024-02-15T03:56:56.141000Z,2024-02-15T04:18:16.534000Z,,2024-02-15T04:18:17.507782Z,1281.0,CVPIIDEI,866,30,Male,Mixed,United States,United States,United States,English,Yes,Full-Time,Not Applicable
62dc4a5fef307ee53c61afcc,"<b>In politics, it?s important to trust your friends and family.",Highly disagree,28/94,Somewhat agree,3,1707970252031,1707970254805,\Somewhat agree\,\Somewhat agree\,\3\,1707970254141,1707970254141,2110,2110,2774,buq,qns-item-noham,28,256111,0.0-1.0-0.27,65cd8b8155674c544e5d40f5,AWAITING REVIEW,2024-02-15T03:56:56.141000Z,2024-02-15T04:18:16.534000Z,,2024-02-15T04:18:17.507782Z,1281.0,CVPIIDEI,866,30,Male,Mixed,United States,United States,United States,English,Yes,Full-Time,Not Applicable
62dc4a5fef307ee53c61afcc,<b>It?s OK to have some conflicting beliefs.,Highly disagree,29/94,Somewhat agree,3,1707970254806,1707970258709,\Somewhat agree\,\Somewhat agree\,\3\,1707970256963,1707970256963,2157,2157,3903,buq,qns-item-noham,29,260015,0.0-1.0-0.28,65cd8b8155674c544e5d40f5,AWAITING REVIEW,2024-02-15T03:56:56.141000Z,2024-02-15T04:18:16.534000Z,,2024-02-15T04:18:17.507782Z,1281.0,CVPIIDEI,866,30,Male,Mixed,United States,United States,United States,English,Yes,Full-Time,Not Applicable
62dc4a5fef307ee53c61afcc,<b>Listening to people I disagree with makes my opinions better.,Highly disagree,30/94,Somewhat agree,3,1707970258710,1707970266460,\Somewhat agree\,\Somewhat agree\,\3\,1707970264868,1707970264868,6158,6158,7750,buq,qns-item-noham,30,267766,0.0-1.0-0.29,65cd8b8155674c544e5d40f5,AWAITING REVIEW,2024-02-15T03:56:56.141000Z,2024-02-15T04:18:16.534000Z,,2024-02-15T04:18:17.507782Z,1281.0,CVPIIDEI,866,30,Male,Mixed,United States,United States,United States,English,Yes,Full-Time,Not Applicable
62dc4a5fef307ee53c61afcc,<b>My moral compass sometimes makes it harder to determine what?s true.,Highly disagree,31/94,Somewhat disagree,2,1707970266461,1707970271634,\Somewhat disagree\,\Somewhat disagree\,\2\,1707970270732,1707970270732,4271,4271,5173,buq,qns-item-noham,31,272940,0.0-1.0-0.30,65cd8b8155674c544e5d40f5,AWAITING REVIEW,2024-02-15T03:56:56.141000Z,2024-02-15T04:18:16.534000Z,,2024-02-15T04:18:17.507782Z,1281.0,CVPIIDEI,866,30,Male,Mixed,United States,United States,United States,English,Yes,Full-Time,Not Applicable
62dc4a5fef307ee53c61afcc,<b>Evidence pointing in the wrong direction isn?t really evidence at all.,Highly disagree,32/94,Somewhat disagree,2,1707970271635,1707970279363,\Somewhat disagree\,\Somewhat disagree\,\2\,1707970278709,1707970278709,7074,7074,7728,buq,qns-item-noham,32,280669,0.0-1.0-0.31,65cd8b8155674c544e5d40f5,AWAITING REVIEW,2024-02-15T03:56:56.141000Z,2024-02-15T04:18:16.534000Z,,2024-02-15T04:18:17.507782Z,1281.0,CVPIIDEI,866,30,Male,Mixed,United States,United States,United States,English,Yes,Full-Time,Not Applicable
62dc4a5fef307ee53c61afcc,"<b>If the political party I support messes up, it makes me think politics is rotten.",Highly disagree,33/94,Somewhat agree,3,1707970279364,1707970284964,\Somewhat disagree\,\Somewhat agree\,\2\,1707970283215,1707970284369,3851,5005,5600,buq,qns-item-noham,33,286270,0.0-1.0-0.32,65cd8b8155674c544e5d40f5,AWAITING REVIEW,2024-02-15T03:56:56.141000Z,2024-02-15T04:18:16.534000Z,,2024-02-15T04:18:17.507782Z,1281.0,CVPIIDEI,866,30,Male,Mixed,United States,United States,United States,English,Yes,Full-Time,Not Applicable
62dc4a5fef307ee53c61afcc,<b>Lots of important topics can only really be understood by some groups of people.,Highly disagree,34/94,Somewhat agree,3,1707970284965,1707970289803,\Somewhat agree\,\Somewhat agree\,\3\,1707970288725,1707970288725,3760,3760,4838,buq,qns-item-noham,34,291109,0.0-1.0-0.33,65cd8b8155674c544e5d40f5,AWAITING REVIEW,2024-02-15T03:56:56.141000Z,2024-02-15T04:18:16.534000Z,,2024-02-15T04:18:17.507782Z,1281.0,CVPIIDEI,866,30,Male,Mixed,United States,United States,United States,English,Yes,Full-Time,Not Applicable
62dc4a5fef307ee53c61afcc,<b>Having conflicting beliefs means you haven?t thought about them enough.,Highly disagree,35/94,Somewhat agree,3,1707970289804,1707970297343,\Somewhat agree\,\Somewhat agree\,\3\,1707970295520,1707970295520,5716,5716,7539,buq,qns-item-noham,35,298649,0.0-1.0-0.34,65cd8b8155674c544e5d40f5,AWAITING REVIEW,2024-02-15T03:56:56.141000Z,2024-02-15T04:18:16.534000Z,,2024-02-15T04:18:17.507782Z,1281.0,CVPIIDEI,866,30,Male,Mixed,United States,United States,United States,English,Yes,Full-Time,Not Applicable
62dc4a5fef307ee53c61afcc,<b>I do not often change my political opinions.,Highly disagree,36/94,Highly agree,4,1707970297344,1707970301721,\Highly agree\,\Highly agree\,\4\,1707970300794,1707970300794,3450,3450,4377,buq,qns-item-noham,36,303027,0.0-1.0-0.35,65cd8b8155674c544e5d40f5,AWAITING REVIEW,2024-02-15T03:56:56.141000Z,2024-02-15T04:18:16.534000Z,,2024-02-15T04:18:17.507782Z,1281.0,CVPIIDEI,866,30,Male,Mixed,United States,United States,United States,English,Yes,Full-Time,Not Applicable
62dc4a5fef307ee53c61afcc,<b>It?s difficult to not have at least some conflicting beliefs.,Highly disagree,37/94,Somewhat agree,3,1707970301722,1707970306626,\Somewhat agree\,\Somewhat agree\,\3\,1707970303535,1707970303535,1813,1813,4904,buq,qns-item-noham,37,307932,0.0-1.0-0.36,65cd8b8155674c544e5d40f5,AWAITING REVIEW,2024-02-15T03:56:56.141000Z,2024-02-15T04:18:16.534000Z,,2024-02-15T04:18:17.507782Z,1281.0,CVPIIDEI,866,30,Male,Mixed,United States,United States,United States,English,Yes,Full-Time,Not Applicable
62dc4a5fef307ee53c61afcc,<b>Wishful thinking causes a lot of problems.,Highly disagree,38/94,Somewhat agree,3,1707970306627,1707970310746,\Somewhat agree\,\Somewhat agree\,\3\,1707970309686,1707970309686,3059,3059,4119,buq,qns-item-noham,38,312052,0.0-1.0-0.37,65cd8b8155674c544e5d40f5,AWAITING REVIEW,2024-02-15T03:56:56.141000Z,2024-02-15T04:18:16.534000Z,,2024-02-15T04:18:17.507782Z,1281.0,CVPIIDEI,866,30,Male,Mixed,United States,United States,United States,English,Yes,Full-Time,Not Applicable
62dc4a5fef307ee53c61afcc,<b>I judge a food item only once I try it many times.,Highly disagree,39/94,Somewhat disagree,2,1707970310747,1707970315920,\Somewhat disagree\,\Somewhat disagree\,\2\,1707970315205,1707970315205,4458,4458,5173,buq,qns-item-noham,39,317226,0.0-1.0-0.38,65cd8b8155674c544e5d40f5,AWAITING REVIEW,2024-02-15T03:56:56.141000Z,2024-02-15T04:18:16.534000Z,,2024-02-15T04:18:17.507782Z,1281.0,CVPIIDEI,866,30,Male,Mixed,United States,United States,United States,English,Yes,Full-Time,Not Applicable
62dc4a5fef307ee53c61afcc,"<b>When a person holds conflicting beliefs, they should really try to figure out what?s wrong.",Highly disagree,40/94,Somewhat agree,3,1707970315921,1707970320197,\Somewhat agree\,\Somewhat agree\,\3\,1707970319417,1707970319417,3496,3496,4276,buq,qns-item-noham,40,321503,0.0-1.0-0.39,65cd8b8155674c544e5d40f5,AWAITING REVIEW,2024-02-15T03:56:56.141000Z,2024-02-15T04:18:16.534000Z,,2024-02-15T04:18:17.507782Z,1281.0,CVPIIDEI,866,30,Male,Mixed,United States,United States,United States,English,Yes,Full-Time,Not Applicable
62dc4a5fef307ee53c61afcc,<b>Knowing what?s important in life is easy.,Highly disagree,41/94,Somewhat agree,3,1707970320198,1707970324001,\Somewhat agree\,\Somewhat agree\,\3\,1707970321957,1707970321957,1759,1759,3803,buq,qns-item-noham,41,325307,0.0-1.0-0.40,65cd8b8155674c544e5d40f5,AWAITING REVIEW,2024-02-15T03:56:56.141000Z,2024-02-15T04:18:16.534000Z,,2024-02-15T04:18:17.507782Z,1281.0,CVPIIDEI,866,30,Male,Mixed,United States,United States,United States,English,Yes,Full-Time,Not Applicable
62dc4a5fef307ee53c61afcc,<b>I swim across the Atlantic Ocean to get to work every day.,Highly disagree,42/94,Highly disagree,1,1707970324002,1707970329575,\Highly disagree\,\Highly disagree\,\1\,1707970328435,1707970328435,4433,4433,5573,buq,qns-item-noham,42,330881,0.0-1.0-0.41,65cd8b8155674c544e5d40f5,AWAITING REVIEW,2024-02-15T03:56:56.141000Z,2024-02-15T04:18:16.534000Z,,2024-02-15T04:18:17.507782Z,1281.0,CVPIIDEI,866,30,Male,Mixed,United States,United States,United States,English,Yes,Full-Time,Not Applicable
62dc4a5fef307ee53c61afcc,"<b>Sometimes, you just have to ignore evidence that you know is wrong.",Highly disagree,43/94,Somewhat agree,3,1707970329576,1707970334112,\Somewhat agree\,\Somewhat agree\,\3\,1707970333175,1707970333175,3599,3599,4536,buq,qns-item-noham,43,335418,0.0-1.0-0.42,65cd8b8155674c544e5d40f5,AWAITING REVIEW,2024-02-15T03:56:56.141000Z,2024-02-15T04:18:16.534000Z,,2024-02-15T04:18:17.507782Z,1281.0,CVPIIDEI,866,30,Male,Mixed,United States,United States,United States,English,Yes,Full-Time,Not Applicable
62dc4a5fef307ee53c61afcc,<b>I have had some false beliefs.,Highly disagree,44/94,Somewhat agree,3,1707970334113,1707970339496,\Somewhat agree\,\Somewhat agree\,\3\,1707970337507,1707970337507,3394,3394,5383,buq,qns-item-noham,44,340802,0.0-1.0-0.43,65cd8b8155674c544e5d40f5,AWAITING REVIEW,2024-02-15T03:56:56.141000Z,2024-02-15T04:18:16.534000Z,,2024-02-15T04:18:17.507782Z,1281.0,CVPIIDEI,866,30,Male,Mixed,United States,United States,United States,English,Yes,Full-Time,Not Applicable
62dc4a5fef307ee53c61afcc,"<b>If one friend does something that upsets me, I sometimes start to distrust people in general.",Highly disagree,45/94,Somewhat agree,3,1707970339497,1707970350440,\Somewhat agree\,\Somewhat agree\,\3\,1707970349887,1707970349887,10390,10390,10943,buq,qns-item-noham,45,351746,0.0-1.0-0.44,65cd8b8155674c544e5d40f5,AWAITING REVIEW,2024-02-15T03:56:56.141000Z,2024-02-15T04:18:16.534000Z,,2024-02-15T04:18:17.507782Z,1281.0,CVPIIDEI,866,30,Male,Mixed,United States,United States,United States,English,Yes,Full-Time,Not Applicable
62dc4a5fef307ee53c61afcc,<b>The facts about most important matters are easy to find.,Highly disagree,46/94,Somewhat agree,3,1707970350441,1707970355056,\Somewhat agree\,\Somewhat agree\,\3\,1707970354380,1707970354380,3939,3939,4615,buq,qns-item-noham,46,356362,0.0-1.0-0.45,65cd8b8155674c544e5d40f5,AWAITING REVIEW,2024-02-15T03:56:56.141000Z,2024-02-15T04:18:16.534000Z,,2024-02-15T04:18:17.507782Z,1281.0,CVPIIDEI,866,30,Male,Mixed,United States,United States,United States,English,Yes,Full-Time,Not Applicable
62dc4a5fef307ee53c61afcc,<b>It?s better to know what?s true than to know what?s moral.,Highly disagree,47/94,Highly agree,4,1707970355057,1707970366850,\Somewhat disagree\,\Highly agree\,\2\,1707970363966,1707970366008,8909,10951,11793,buq,qns-item-noham,47,368156,0.0-1.0-0.46,65cd8b8155674c544e5d40f5,AWAITING REVIEW,2024-02-15T03:56:56.141000Z,2024-02-15T04:18:16.534000Z,,2024-02-15T04:18:17.507782Z,1281.0,CVPIIDEI,866,30,Male,Mixed,United States,United States,United States,English,Yes,Full-Time,Not Applicable
62dc4a5fef307ee53c61afcc,<b>I used to think the world was less complicated than I do now.,Highly disagree,48/94,Somewhat agree,3,1707970366851,1707970371152,\Somewhat disagree\,\Somewhat agree\,\2\,1707970369198,1707970370424,2347,3573,4301,buq,qns-item-noham,48,372458,0.0-1.0-0.47,65cd8b8155674c544e5d40f5,AWAITING REVIEW,2024-02-15T03:56:56.141000Z,2024-02-15T04:18:16.534000Z,,2024-02-15T04:18:17.507782Z,1281.0,CVPIIDEI,866,30,Male,Mixed,United States,United States,United States,English,Yes,Full-Time,Not Applicable
62dc4a5fef307ee53c61afcc,<b>People are usually completely right or completely wrong.,Highly disagree,49/94,Somewhat agree,3,1707970371153,1707970387866,\Somewhat agree\,\Somewhat agree\,\3\,1707970383657,1707970383657,12504,12504,16713,buq,qns-item-noham,49,389172,0.0-1.0-0.48,65cd8b8155674c544e5d40f5,AWAITING REVIEW,2024-02-15T03:56:56.141000Z,2024-02-15T04:18:16.534000Z,,2024-02-15T04:18:17.507782Z,1281.0,CVPIIDEI,866,30,Male,Mixed,United States,United States,United States,English,Yes,Full-Time,Not Applicable
62dc4a5fef307ee53c61afcc,<b>I spend a lot of time considering alternatives to my beliefs.,Highly disagree,50/94,Highly agree,4,1707970387867,1707970396309,\Highly agree\,\Highly agree\,\4\,1707970395698,1707970395698,7831,7831,8442,buq,qns-item-noham,50,397615,0.0-1.0-0.49,65cd8b8155674c544e5d40f5,AWAITING REVIEW,2024-02-15T03:56:56.141000Z,2024-02-15T04:18:16.534000Z,,2024-02-15T04:18:17.507782Z,1281.0,CVPIIDEI,866,30,Male,Mixed,United States,United States,United States,English,Yes,Full-Time,Not Applicable
62dc4a5fef307ee53c61afcc,"<b>Political enemies need to be defeated, not convinced.",Highly disagree,51/94,Somewhat agree,3,1707970396310,1707970399012,\Somewhat agree\,\Somewhat agree\,\3\,1707970398327,1707970398327,2017,2017,2702,buq,qns-item-noham,51,400318,0.0-1.0-0.50,65cd8b8155674c544e5d40f5,AWAITING REVIEW,2024-02-15T03:56:56.141000Z,2024-02-15T04:18:16.534000Z,,2024-02-15T04:18:17.507782Z,1281.0,CVPIIDEI,866,30,Male,Mixed,United States,United States,United States,English,Yes,Full-Time,Not Applicable
62dc4a5fef307ee53c61afcc,<b>I form my political views only after meticulously gathering historical and present information about their policies.,Highly disagree,52/94,Somewhat agree,3,1707970399013,1707970434922,\Somewhat agree\,\Somewhat agree\,\3\,1707970434284,1707970434284,35271,35271,35909,buq,qns-item-noham,52,436228,0.0-1.0-0.51,65cd8b8155674c544e5d40f5,AWAITING REVIEW,2024-02-15T03:56:56.141000Z,2024-02-15T04:18:16.534000Z,,2024-02-15T04:18:17.507782Z,1281.0,CVPIIDEI,866,30,Male,Mixed,United States,United States,United States,English,Yes,Full-Time,Not Applicable
62dc4a5fef307ee53c61afcc,<b>It is difficult for me to remember the last time I was surprised by politics.,Highly disagree,53/94,Somewhat disagree,2,1707970434923,1707970439948,\Somewhat disagree\,\Somewhat disagree\,\2\,1707970439065,1707970439065,4142,4142,5025,buq,qns-item-noham,53,441254,0.0-1.0-0.52,65cd8b8155674c544e5d40f5,AWAITING REVIEW,2024-02-15T03:56:56.141000Z,2024-02-15T04:18:16.534000Z,,2024-02-15T04:18:17.507782Z,1281.0,CVPIIDEI,866,30,Male,Mixed,United States,United States,United States,English,Yes,Full-Time,Not Applicable
62dc4a5fef307ee53c61afcc,"<b>When I find out I?m wrong, I think a lot about my related beliefs.",Highly disagree,54/94,Somewhat agree,3,1707970439949,1707970443768,\Somewhat agree\,\Somewhat agree\,\3\,1707970443139,1707970443139,3190,3190,3819,buq,qns-item-noham,54,445074,0.0-1.0-0.53,65cd8b8155674c544e5d40f5,AWAITING REVIEW,2024-02-15T03:56:56.141000Z,2024-02-15T04:18:16.534000Z,,2024-02-15T04:18:17.507782Z,1281.0,CVPIIDEI,866,30,Male,Mixed,United States,United States,United States,English,Yes,Full-Time,Not Applicable
62dc4a5fef307ee53c61afcc,"<b>If the political party I support messes up, it makes me think you can?t trust anyone these days",Highly disagree,55/94,Somewhat agree,3,1707970443769,1707970460120,\Somewhat agree\,\Somewhat agree\,\3\,1707970459486,1707970459486,15717,15717,16351,buq,qns-item-noham,55,461426,0.0-1.0-0.54,65cd8b8155674c544e5d40f5,AWAITING REVIEW,2024-02-15T03:56:56.141000Z,2024-02-15T04:18:16.534000Z,,2024-02-15T04:18:17.507782Z,1281.0,CVPIIDEI,866,30,Male,Mixed,United States,United States,United States,English,Yes,Full-Time,Not Applicable
62dc4a5fef307ee53c61afcc,<b>People?s brains turn off when they talk about politics.,Highly disagree,56/94,Somewhat disagree,2,1707970460121,1707970464728,\Somewhat disagree\,\Somewhat disagree\,\2\,1707970464093,1707970464093,3972,3972,4607,buq,qns-item-noham,56,466034,0.0-1.0-0.55,65cd8b8155674c544e5d40f5,AWAITING REVIEW,2024-02-15T03:56:56.141000Z,2024-02-15T04:18:16.534000Z,,2024-02-15T04:18:17.507782Z,1281.0,CVPIIDEI,866,30,Male,Mixed,United States,United States,United States,English,Yes,Full-Time,Not Applicable
62dc4a5fef307ee53c61afcc,<b>People who are wrong are usually just ignoring the obvious.,Highly disagree,57/94,Somewhat agree,3,1707970464729,1707970471817,\Somewhat agree\,\Somewhat agree\,\3\,1707970470777,1707970470777,6048,6048,7088,buq,qns-item-noham,57,473123,0.0-1.0-0.56,65cd8b8155674c544e5d40f5,AWAITING REVIEW,2024-02-15T03:56:56.141000Z,2024-02-15T04:18:16.534000Z,,2024-02-15T04:18:17.507782Z,1281.0,CVPIIDEI,866,30,Male,Mixed,United States,United States,United States,English,Yes,Full-Time,Not Applicable
62dc4a5fef307ee53c61afcc,"<b>When forming my views on people, I rely more on what they are like now rather than rely on my past experience with them.",Highly disagree,58/94,Somewhat disagree,2,1707970471818,1707970478511,\Somewhat disagree\,\Somewhat disagree\,\2\,1707970473670,1707970473670,1852,1852,6693,buq,qns-item-noham,58,479817,0.0-1.0-0.57,65cd8b8155674c544e5d40f5,AWAITING REVIEW,2024-02-15T03:56:56.141000Z,2024-02-15T04:18:16.534000Z,,2024-02-15T04:18:17.507782Z,1281.0,CVPIIDEI,866,30,Male,Mixed,United States,United States,United States,English,Yes,Full-Time,Not Applicable
62dc4a5fef307ee53c61afcc,"<b>When people contradict my beliefs, I usually know about their evidence already.",Highly disagree,59/94,Somewhat agree,3,1707970478512,1707970485940,\Somewhat agree\,\Somewhat agree\,\3\,1707970484407,1707970484407,5895,5895,7428,buq,qns-item-noham,59,487246,0.0-1.0-0.58,65cd8b8155674c544e5d40f5,AWAITING REVIEW,2024-02-15T03:56:56.141000Z,2024-02-15T04:18:16.534000Z,,2024-02-15T04:18:17.507782Z,1281.0,CVPIIDEI,866,30,Male,Mixed,United States,United States,United States,English,Yes,Full-Time,Not Applicable
62dc4a5fef307ee53c61afcc,<b>Figuring out what?s true and what?s false mainly requires a strong moral compass.,Highly disagree,60/94,Somewhat agree,3,1707970485941,1707970494283,\Somewhat agree\,\Somewhat agree\,\3\,1707970492742,1707970492742,6801,6801,8342,buq,qns-item-noham,60,495589,0.0-1.0-0.59,65cd8b8155674c544e5d40f5,AWAITING REVIEW,2024-02-15T03:56:56.141000Z,2024-02-15T04:18:16.534000Z,,2024-02-15T04:18:17.507782Z,1281.0,CVPIIDEI,866,30,Male,Mixed,United States,United States,United States,English,Yes,Full-Time,Not Applicable
62dc4a5fef307ee53c61afcc,"<b>Usually I?m wrong about simple things, not complicated ones.",Highly disagree,61/94,Somewhat disagree,2,1707970494284,1707970501239,\Somewhat disagree\,\Somewhat disagree\,\2\,1707970500607,1707970500607,6323,6323,6955,buq,qns-item-noham,61,502545,0.0-1.0-0.60,65cd8b8155674c544e5d40f5,AWAITING REVIEW,2024-02-15T03:56:56.141000Z,2024-02-15T04:18:16.534000Z,,2024-02-15T04:18:17.507782Z,1281.0,CVPIIDEI,866,30,Male,Mixed,United States,United States,United States,English,Yes,Full-Time,Not Applicable
62dc4a5fef307ee53c61afcc,<b>Getting all the information I want about important things is hard.,Highly disagree,62/94,Somewhat agree,3,1707970501240,1707970505043,\Somewhat agree\,\Somewhat agree\,\3\,1707970504005,1707970504005,2765,2765,3803,buq,qns-item-noham,62,506349,0.0-1.0-0.61,65cd8b8155674c544e5d40f5,AWAITING REVIEW,2024-02-15T03:56:56.141000Z,2024-02-15T04:18:16.534000Z,,2024-02-15T04:18:17.507782Z,1281.0,CVPIIDEI,866,30,Male,Mixed,United States,United States,United States,English,Yes,Full-Time,Not Applicable
62dc4a5fef307ee53c61afcc,<b>Most false beliefs spread because people try to deceive one another.,Highly disagree,63/94,Somewhat agree,3,1707970505044,1707970510813,\Somewhat disagree\,\Somewhat agree\,\2\,1707970507957,1707970510232,2913,5188,5769,buq,qns-item-noham,63,512119,0.0-1.0-0.62,65cd8b8155674c544e5d40f5,AWAITING REVIEW,2024-02-15T03:56:56.141000Z,2024-02-15T04:18:16.534000Z,,2024-02-15T04:18:17.507782Z,1281.0,CVPIIDEI,866,30,Male,Mixed,United States,United States,United States,English,Yes,Full-Time,Not Applicable
62dc4a5fef307ee53c61afcc,<b>I can usually find something to agree with in most people?s beliefs.,Highly disagree,64/94,Somewhat agree,3,1707970510814,1707970515389,\Somewhat agree\,\Somewhat agree\,\3\,1707970514527,1707970514527,3713,3713,4575,buq,qns-item-noham,64,516695,0.0-1.0-0.63,65cd8b8155674c544e5d40f5,AWAITING REVIEW,2024-02-15T03:56:56.141000Z,2024-02-15T04:18:16.534000Z,,2024-02-15T04:18:17.507782Z,1281.0,CVPIIDEI,866,30,Male,Mixed,United States,United States,United States,English,Yes,Full-Time,Not Applicable
62dc4a5fef307ee53c61afcc,<b>I only form my views of people once I get to know them very well.,Highly disagree,65/94,Somewhat agree,3,1707970515390,1707970520847,\Somewhat agree\,\Somewhat agree\,\3\,1707970519789,1707970519789,4399,4399,5457,buq,qns-item-noham,65,522153,0.0-1.0-0.64,65cd8b8155674c544e5d40f5,AWAITING REVIEW,2024-02-15T03:56:56.141000Z,2024-02-15T04:18:16.534000Z,,2024-02-15T04:18:17.507782Z,1281.0,CVPIIDEI,866,30,Male,Mixed,United States,United States,United States,English,Yes,Full-Time,Not Applicable
62dc4a5fef307ee53c61afcc,"<b>When people tell me important things about the world, I usually believe them.",Highly disagree,66/94,Somewhat agree,3,1707970520848,1707970525060,\Somewhat agree\,\Somewhat agree\,\3\,1707970524172,1707970524172,3324,3324,4212,buq,qns-item-noham,66,526366,0.0-1.0-0.65,65cd8b8155674c544e5d40f5,AWAITING REVIEW,2024-02-15T03:56:56.141000Z,2024-02-15T04:18:16.534000Z,,2024-02-15T04:18:17.507782Z,1281.0,CVPIIDEI,866,30,Male,Mixed,United States,United States,United States,English,Yes,Full-Time,Not Applicable
62dc4a5fef307ee53c61afcc,"<b>If a friend does something that upsets me, it reminds me what an unpredictable place the world is.",Highly disagree,67/94,Somewhat disagree,2,1707970525061,1707970533594,\Somewhat disagree\,\Somewhat disagree\,\2\,1707970530610,1707970532940,5549,7879,8533,buq,qns-item-noham,67,534900,0.0-1.0-0.66,65cd8b8155674c544e5d40f5,AWAITING REVIEW,2024-02-15T03:56:56.141000Z,2024-02-15T04:18:16.534000Z,,2024-02-15T04:18:17.507782Z,1281.0,CVPIIDEI,866,30,Male,Mixed,United States,United States,United States,English,Yes,Full-Time,Not Applicable
62dc4a5fef307ee53c61afcc,<b>People tend to believe whatever is good for their friends.,Highly disagree,68/94,Somewhat disagree,2,1707970533595,1707970537912,\Somewhat disagree\,\Somewhat disagree\,\2\,1707970537285,1707970537285,3690,3690,4317,buq,qns-item-noham,68,539218,0.0-1.0-0.67,65cd8b8155674c544e5d40f5,AWAITING REVIEW,2024-02-15T03:56:56.141000Z,2024-02-15T04:18:16.534000Z,,2024-02-15T04:18:17.507782Z,1281.0,CVPIIDEI,866,30,Male,Mixed,United States,United States,United States,English,Yes,Full-Time,Not Applicable
62dc4a5fef307ee53c61afcc,<b>I used to be more certain my beliefs were true.,Highly disagree,69/94,Somewhat agree,3,1707970537913,1707970541716,\Somewhat agree\,\Somewhat agree\,\3\,1707970540821,1707970540821,2908,2908,3803,buq,qns-item-noham,69,543022,0.0-1.0-0.68,65cd8b8155674c544e5d40f5,AWAITING REVIEW,2024-02-15T03:56:56.141000Z,2024-02-15T04:18:16.534000Z,,2024-02-15T04:18:17.507782Z,1281.0,CVPIIDEI,866,30,Male,Mixed,United States,United States,United States,English,Yes,Full-Time,Not Applicable
62dc4a5fef307ee53c61afcc,<b>It?s often pretty easy to figure out whether something is true based on who said it.,Highly disagree,70/94,Somewhat agree,3,1707970541717,1707970546865,\Somewhat agree\,\Somewhat agree\,\3\,1707970545935,1707970545935,4218,4218,5148,buq,qns-item-noham,70,548171,0.0-1.0-0.69,65cd8b8155674c544e5d40f5,AWAITING REVIEW,2024-02-15T03:56:56.141000Z,2024-02-15T04:18:16.534000Z,,2024-02-15T04:18:17.507782Z,1281.0,CVPIIDEI,866,30,Male,Mixed,United States,United States,United States,English,Yes,Full-Time,Not Applicable
62dc4a5fef307ee53c61afcc,<b>I transform into a hummingbird every day.,Highly disagree,71/94,Highly disagree,1,1707970546866,1707970553997,\Highly disagree\,\Highly disagree\,\1\,1707970553143,1707970553143,6277,6277,7131,buq,qns-item-noham,71,555303,0.0-1.0-0.70,65cd8b8155674c544e5d40f5,AWAITING REVIEW,2024-02-15T03:56:56.141000Z,2024-02-15T04:18:16.534000Z,,2024-02-15T04:18:17.507782Z,1281.0,CVPIIDEI,866,30,Male,Mixed,United States,United States,United States,English,Yes,Full-Time,Not Applicable
62dc4a5fef307ee53c61afcc,<b>I think a lot about arguments against my views.,Highly disagree,72/94,Somewhat agree,3,1707970553998,1707970557392,\Somewhat agree\,\Somewhat agree\,\3\,1707970556387,1707970556387,2389,2389,3394,buq,qns-item-noham,72,558698,0.0-1.0-0.71,65cd8b8155674c544e5d40f5,AWAITING REVIEW,2024-02-15T03:56:56.141000Z,2024-02-15T04:18:16.534000Z,,2024-02-15T04:18:17.507782Z,1281.0,CVPIIDEI,866,30,Male,Mixed,United States,United States,United States,English,Yes,Full-Time,Not Applicable
62dc4a5fef307ee53c61afcc,<b>Personal experience is usually more important than facts and figures.,Highly disagree,73/94,Somewhat disagree,2,1707970557393,1707970561107,\Somewhat disagree\,\Somewhat disagree\,\2\,1707970559563,1707970559563,2170,2170,3714,buq,qns-item-noham,73,562413,0.0-1.0-0.72,65cd8b8155674c544e5d40f5,AWAITING REVIEW,2024-02-15T03:56:56.141000Z,2024-02-15T04:18:16.534000Z,,2024-02-15T04:18:17.507782Z,1281.0,CVPIIDEI,866,30,Male,Mixed,United States,United States,United States,English,Yes,Full-Time,Not Applicable
62dc4a5fef307ee53c61afcc,<b>I?ve been tricked before about important matters.,Highly disagree,74/94,Somewhat agree,3,1707970561108,1707970564551,\Somewhat agree\,\Somewhat agree\,\3\,1707970563769,1707970563769,2661,2661,3443,buq,qns-item-noham,74,565857,0.0-1.0-0.73,65cd8b8155674c544e5d40f5,AWAITING REVIEW,2024-02-15T03:56:56.141000Z,2024-02-15T04:18:16.534000Z,,2024-02-15T04:18:17.507782Z,1281.0,CVPIIDEI,866,30,Male,Mixed,United States,United States,United States,English,Yes,Full-Time,Not Applicable
62dc4a5fef307ee53c61afcc,<b>I would need to be totally wowed if I were to change my opinion of a restaurant I don?t like.,Highly disagree,75/94,Somewhat agree,3,1707970564552,1707970567819,\Somewhat agree\,\Somewhat agree\,\3\,1707970567020,1707970567020,2468,2468,3267,buq,qns-item-noham,75,569125,0.0-1.0-0.74,65cd8b8155674c544e5d40f5,AWAITING REVIEW,2024-02-15T03:56:56.141000Z,2024-02-15T04:18:16.534000Z,,2024-02-15T04:18:17.507782Z,1281.0,CVPIIDEI,866,30,Male,Mixed,United States,United States,United States,English,Yes,Full-Time,Not Applicable
62dc4a5fef307ee53c61afcc,<b>I care a lot about politics.,Highly disagree,76/94,Somewhat agree,3,1707970567820,1707970570603,\Somewhat agree\,\Somewhat agree\,\3\,1707970569836,1707970569836,2016,2016,2783,buq,qns-item-noham,76,571909,0.0-1.0-0.75,65cd8b8155674c544e5d40f5,AWAITING REVIEW,2024-02-15T03:56:56.141000Z,2024-02-15T04:18:16.534000Z,,2024-02-15T04:18:17.507782Z,1281.0,CVPIIDEI,866,30,Male,Mixed,United States,United States,United States,English,Yes,Full-Time,Not Applicable
62dc4a5fef307ee53c61afcc,<b>There are some topics I?ve been really wrong about.,Highly disagree,77/94,Somewhat disagree,2,1707970570604,1707970574599,\Somewhat disagree\,\Somewhat disagree\,\2\,1707970573699,1707970573699,3095,3095,3995,buq,qns-item-noham,77,575905,0.0-1.0-0.76,65cd8b8155674c544e5d40f5,AWAITING REVIEW,2024-02-15T03:56:56.141000Z,2024-02-15T04:18:16.534000Z,,2024-02-15T04:18:17.507782Z,1281.0,CVPIIDEI,866,30,Male,Mixed,United States,United States,United States,English,Yes,Full-Time,Not Applicable
62dc4a5fef307ee53c61afcc,<b>Most beliefs can be supported with at least some evidence.,Highly disagree,78/94,Somewhat agree,3,1707970574600,1707970579425,\Somewhat agree\,\Somewhat agree\,\3\,1707970578743,1707970578743,4143,4143,4825,buq,qns-item-noham,78,580731,0.0-1.0-0.77,65cd8b8155674c544e5d40f5,AWAITING REVIEW,2024-02-15T03:56:56.141000Z,2024-02-15T04:18:16.534000Z,,2024-02-15T04:18:17.507782Z,1281.0,CVPIIDEI,866,30,Male,Mixed,United States,United States,United States,English,Yes,Full-Time,Not Applicable
62dc4a5fef307ee53c61afcc,<b>Other people make life out to be more complicated than it really is.,Highly disagree,79/94,Somewhat disagree,2,1707970579426,1707970583473,\Somewhat disagree\,\Somewhat disagree\,\2\,1707970582841,1707970582841,3415,3415,4047,buq,qns-item-noham,79,584779,0.0-1.0-0.78,65cd8b8155674c544e5d40f5,AWAITING REVIEW,2024-02-15T03:56:56.141000Z,2024-02-15T04:18:16.534000Z,,2024-02-15T04:18:17.507782Z,1281.0,CVPIIDEI,866,30,Male,Mixed,United States,United States,United States,English,Yes,Full-Time,Not Applicable
62dc4a5fef307ee53c61afcc,"<b>Policy details don?t matter much, just the big picture.",Highly disagree,80/94,Somewhat disagree,2,1707970583473,1707970588845,\Somewhat disagree\,\Somewhat disagree\,\2\,1707970587724,1707970587724,4251,4251,5372,buq,qns-item-noham,80,590151,0.0-1.0-0.79,65cd8b8155674c544e5d40f5,AWAITING REVIEW,2024-02-15T03:56:56.141000Z,2024-02-15T04:18:16.534000Z,,2024-02-15T04:18:17.507782Z,1281.0,CVPIIDEI,866,30,Male,Mixed,United States,United States,United States,English,Yes,Full-Time,Not Applicable
62dc4a5fef307ee53c61afcc,<b>I know my friends so well they can hardly ever surprise me.,Highly disagree,81/94,Somewhat disagree,2,1707970588846,1707970593030,\Somewhat disagree\,\Somewhat disagree\,\2\,1707970591517,1707970591517,2671,2671,4184,buq,qns-item-noham,81,594336,0.0-1.0-0.80,65cd8b8155674c544e5d40f5,AWAITING REVIEW,2024-02-15T03:56:56.141000Z,2024-02-15T04:18:16.534000Z,,2024-02-15T04:18:17.507782Z,1281.0,CVPIIDEI,866,30,Male,Mixed,United States,United States,United States,English,Yes,Full-Time,Not Applicable
62dc4a5fef307ee53c61afcc,<b>I do not often change my views on people.,Highly disagree,82/94,Somewhat agree,3,1707970593031,1707970596883,\Somewhat agree\,\Somewhat agree\,\3\,1707970595862,1707970595862,2831,2831,3852,buq,qns-item-noham,82,598189,0.0-1.0-0.81,65cd8b8155674c544e5d40f5,AWAITING REVIEW,2024-02-15T03:56:56.141000Z,2024-02-15T04:18:16.534000Z,,2024-02-15T04:18:17.507782Z,1281.0,CVPIIDEI,866,30,Male,Mixed,United States,United States,United States,English,Yes,Full-Time,Not Applicable
62dc4a5fef307ee53c61afcc,<b>I?m more certain about my beliefs than I used to be.,Highly disagree,83/94,Somewhat disagree,2,1707970596885,1707970600492,\Somewhat disagree\,\Somewhat disagree\,\2\,1707970599526,1707970599526,2641,2641,3607,buq,qns-item-noham,83,601798,0.0-1.0-0.82,65cd8b8155674c544e5d40f5,AWAITING REVIEW,2024-02-15T03:56:56.141000Z,2024-02-15T04:18:16.534000Z,,2024-02-15T04:18:17.507782Z,1281.0,CVPIIDEI,866,30,Male,Mixed,United States,United States,United States,English,Yes,Full-Time,Not Applicable
62dc4a5fef307ee53c61afcc,<b>People often tell falsehoods unintentionally.,Highly disagree,84/94,Somewhat agree,3,1707970600493,1707970603681,\Somewhat agree\,\Somewhat agree\,\3\,1707970602683,1707970602683,2190,2190,3188,buq,qns-item-noham,84,604987,0.0-1.0-0.83,65cd8b8155674c544e5d40f5,AWAITING REVIEW,2024-02-15T03:56:56.141000Z,2024-02-15T04:18:16.534000Z,,2024-02-15T04:18:17.507782Z,1281.0,CVPIIDEI,866,30,Male,Mixed,United States,United States,United States,English,Yes,Full-Time,Not Applicable
62dc4a5fef307ee53c61afcc,<b>Most people don?t know much about most things.,Highly disagree,85/94,Somewhat agree,3,1707970603681,1707970606855,\Somewhat agree\,\Somewhat agree\,\3\,1707970606067,1707970606067,2386,2386,3174,buq,qns-item-noham,85,608161,0.0-1.0-0.84,65cd8b8155674c544e5d40f5,AWAITING REVIEW,2024-02-15T03:56:56.141000Z,2024-02-15T04:18:16.534000Z,,2024-02-15T04:18:17.507782Z,1281.0,CVPIIDEI,866,30,Male,Mixed,United States,United States,United States,English,Yes,Full-Time,Not Applicable
62dc4a5fef307ee53c61afcc,"<b>If I find out something new about someone, I easily change my views about them.",Highly disagree,86/94,Somewhat agree,3,1707970606856,1707970614508,\Somewhat agree\,\Somewhat agree\,\3\,1707970612804,1707970612804,5948,5948,7652,buq,qns-item-noham,86,615814,0.0-1.0-0.85,65cd8b8155674c544e5d40f5,AWAITING REVIEW,2024-02-15T03:56:56.141000Z,2024-02-15T04:18:16.534000Z,,2024-02-15T04:18:17.507782Z,1281.0,CVPIIDEI,866,30,Male,Mixed,United States,United States,United States,English,Yes,Full-Time,Not Applicable
62dc4a5fef307ee53c61afcc,<b>Having true beliefs is difficult.,Highly disagree,87/94,Somewhat disagree,2,1707970614509,1707970617842,\Somewhat disagree\,\Somewhat disagree\,\2\,1707970617151,1707970617151,2642,2642,3333,buq,qns-item-noham,87,619148,0.0-1.0-0.86,65cd8b8155674c544e5d40f5,AWAITING REVIEW,2024-02-15T03:56:56.141000Z,2024-02-15T04:18:16.534000Z,,2024-02-15T04:18:17.507782Z,1281.0,CVPIIDEI,866,30,Male,Mixed,United States,United States,United States,English,Yes,Full-Time,Not Applicable
62dc4a5fef307ee53c61afcc,<b>I don?t try new foods since I know I won?t like them.,Highly disagree,88/94,Highly disagree,1,1707970617843,1707970623295,\Somewhat disagree\,\Highly disagree\,\2\,1707970620502,1707970622232,2659,4389,5452,buq,qns-item-noham,88,624601,0.0-1.0-0.87,65cd8b8155674c544e5d40f5,AWAITING REVIEW,2024-02-15T03:56:56.141000Z,2024-02-15T04:18:16.534000Z,,2024-02-15T04:18:17.507782Z,1281.0,CVPIIDEI,866,30,Male,Mixed,United States,United States,United States,English,Yes,Full-Time,Not Applicable
62dc4a5fef307ee53c61afcc,<b>Other people trick each other a lot.,Highly disagree,89/94,Somewhat agree,3,1707970623296,1707970629764,\Somewhat agree\,\Somewhat agree\,\3\,1707970628857,1707970628857,5561,5561,6468,buq,qns-item-noham,89,631070,0.0-1.0-0.88,65cd8b8155674c544e5d40f5,AWAITING REVIEW,2024-02-15T03:56:56.141000Z,2024-02-15T04:18:16.534000Z,,2024-02-15T04:18:17.507782Z,1281.0,CVPIIDEI,866,30,Male,Mixed,United States,United States,United States,English,Yes,Full-Time,Not Applicable
62dc4a5fef307ee53c61afcc,<b>I would need to learn a lot about a person for my opinion of them to be swayed.,Highly disagree,90/94,Somewhat agree,3,1707970629765,1707970632362,\Somewhat agree\,\Somewhat agree\,\3\,1707970631481,1707970631481,1716,1716,2597,buq,qns-item-noham,90,633668,0.0-1.0-0.89,65cd8b8155674c544e5d40f5,AWAITING REVIEW,2024-02-15T03:56:56.141000Z,2024-02-15T04:18:16.534000Z,,2024-02-15T04:18:17.507782Z,1281.0,CVPIIDEI,866,30,Male,Mixed,United States,United States,United States,English,Yes,Full-Time,Not Applicable
62dc4a5fef307ee53c61afcc,<b>People can?t usually trick me when it comes to topics I care about.,Highly disagree,91/94,Somewhat disagree,2,1707970632363,1707970634909,\Somewhat disagree\,\Somewhat disagree\,\2\,1707970633534,1707970633534,1171,1171,2546,buq,qns-item-noham,91,636215,0.0-1.0-0.90,65cd8b8155674c544e5d40f5,AWAITING REVIEW,2024-02-15T03:56:56.141000Z,2024-02-15T04:18:16.534000Z,,2024-02-15T04:18:17.507782Z,1281.0,CVPIIDEI,866,30,Male,Mixed,United States,United States,United States,English,Yes,Full-Time,Not Applicable
62dc4a5fef307ee53c61afcc,<b>I do not often change my views on food.,Highly disagree,92/94,Highly disagree,1,1707970634910,1707970638185,\Highly disagree\,\Highly disagree\,\1\,1707970637356,1707970637356,2446,2446,3275,buq,qns-item-noham,92,639491,0.0-1.0-0.91,65cd8b8155674c544e5d40f5,AWAITING REVIEW,2024-02-15T03:56:56.141000Z,2024-02-15T04:18:16.534000Z,,2024-02-15T04:18:17.507782Z,1281.0,CVPIIDEI,866,30,Male,Mixed,United States,United States,United States,English,Yes,Full-Time,Not Applicable
62dc4a5fef307ee53c61afcc,<b>Specific policies are often very important to me.,Highly disagree,93/94,Somewhat agree,3,1707970638187,1707970641223,\Somewhat agree\,\Somewhat agree\,\3\,1707970640593,1707970640593,2406,2406,3036,buq,qns-item-noham,93,642529,0.0-1.0-0.92,65cd8b8155674c544e5d40f5,AWAITING REVIEW,2024-02-15T03:56:56.141000Z,2024-02-15T04:18:16.534000Z,,2024-02-15T04:18:17.507782Z,1281.0,CVPIIDEI,866,30,Male,Mixed,United States,United States,United States,English,Yes,Full-Time,Not Applicable
62dc4a5fef307ee53c61afcc,<b>Most people are woefully under-informed.,Highly disagree,94/94,Highly agree,4,1707970641224,1707970646243,\Somewhat disagree\,\Highly agree\,\2\,1707970642539,1707970645340,1315,4116,5019,buq,qns-item-noham,94,647549,0.0-1.0-0.93,65cd8b8155674c544e5d40f5,AWAITING REVIEW,2024-02-15T03:56:56.141000Z,2024-02-15T04:18:16.534000Z,,2024-02-15T04:18:17.507782Z,1281.0,CVPIIDEI,866,30,Male,Mixed,United States,United States,United States,English,Yes,Full-Time,Not Applicable
62dc4a5fef307ee53c61afcc,,,,,,,,,,,,,,,,,,,,,65cd8b8155674c544e5d40f5,AWAITING REVIEW,2024-02-15T03:56:56.141000Z,2024-02-15T04:18:16.534000Z,,2024-02-15T04:18:17.507782Z,1281.0,CVPIIDEI,866,30,Male,Mixed,United States,United States,United States,English,Yes,Full-Time,Not Applicable
