PROLIFIC_PID,Question,qns_options,quest_num,answer,answer_num,question_load_timestamp,next_btn_timestamp,text_selected,final_text_selected,option_num_selected,preview_timestamps,final_text_selected_time_stamp,rt_first_option_click,rt_final_option_click,rt_submit_click,questionnaire,trial_type,trial_index,time_elapsed,internal_node_id,Demographic_Submission id,Demographic_Status,Demographic_Started at,Demographic_Completed at,Demographic_Reviewed at,Demographic_Archived at,Demographic_Time taken,Demographic_Completion code,Demographic_Total approvals,Demographic_Age,Demographic_Sex,Demographic_Ethnicity simplified,Demographic_Country of birth,Demographic_Country of residence,Demographic_Nationality,Demographic_Language,Demographic_Student status,Demographic_Employment status,Demographic_Custom study tncs accepted at
65cbbc191dca4c00d532d743,<b>Knowing what?s true and knowing what to do about it are usually basically the same.,Highly disagree,1/94,Highly disagree,1,1707967654794,1707967670014,\Highly disagree\,\Highly disagree\,\1\,1707967668648,1707967668648,13854,13854,15220,buq,qns-item-noham,1,25207,0.0-1.0-0.0,65cd847909abc71d8bdb9100,AWAITING REVIEW,2024-02-15T03:27:00.161000Z,2024-02-15T03:38:07.788000Z,,2024-02-15T03:38:08.434324Z,668.0,CVPIIDEI,3,24,Female,Asian,United States,United States,United States,English,No,DATA_EXPIRED,Not Applicable
65cbbc191dca4c00d532d743,<b>Most people just believe whatever is convenient for them.,Highly disagree,2/94,Somewhat agree,3,1707967670016,1707967673567,\Somewhat agree\,\Somewhat agree\,\3\,1707967672697,1707967672697,2681,2681,3551,buq,qns-item-noham,2,28760,0.0-1.0-0.1,65cd847909abc71d8bdb9100,AWAITING REVIEW,2024-02-15T03:27:00.161000Z,2024-02-15T03:38:07.788000Z,,2024-02-15T03:38:08.434324Z,668.0,CVPIIDEI,3,24,Female,Asian,United States,United States,United States,English,No,DATA_EXPIRED,Not Applicable
65cbbc191dca4c00d532d743,<b>Having some big beliefs helps me sort out minor ones.,Highly disagree,3/94,Somewhat agree,3,1707967673570,1707967681183,\Somewhat agree\,\Somewhat agree\,\3\,1707967680366,1707967680366,6796,6796,7613,buq,qns-item-noham,3,36376,0.0-1.0-0.2,65cd847909abc71d8bdb9100,AWAITING REVIEW,2024-02-15T03:27:00.161000Z,2024-02-15T03:38:07.788000Z,,2024-02-15T03:38:08.434324Z,668.0,CVPIIDEI,3,24,Female,Asian,United States,United States,United States,English,No,DATA_EXPIRED,Not Applicable
65cbbc191dca4c00d532d743,<b>Political questions are usually pretty complicated.,Highly disagree,4/94,Somewhat agree,3,1707967681184,1707967684700,\Somewhat agree\,\Somewhat agree\,\3\,1707967683812,1707967683812,2628,2628,3516,buq,qns-item-noham,4,39893,0.0-1.0-0.3,65cd847909abc71d8bdb9100,AWAITING REVIEW,2024-02-15T03:27:00.161000Z,2024-02-15T03:38:07.788000Z,,2024-02-15T03:38:08.434324Z,668.0,CVPIIDEI,3,24,Female,Asian,United States,United States,United States,English,No,DATA_EXPIRED,Not Applicable
65cbbc191dca4c00d532d743,<b>Figuring out what?s important in life requires learning a lot of facts.,Highly disagree,5/94,Somewhat agree,3,1707967684701,1707967689150,\Somewhat agree\,\Somewhat agree\,\3\,1707967688229,1707967688229,3528,3528,4449,buq,qns-item-noham,5,44343,0.0-1.0-0.4,65cd847909abc71d8bdb9100,AWAITING REVIEW,2024-02-15T03:27:00.161000Z,2024-02-15T03:38:07.788000Z,,2024-02-15T03:38:08.434324Z,668.0,CVPIIDEI,3,24,Female,Asian,United States,United States,United States,English,No,DATA_EXPIRED,Not Applicable
65cbbc191dca4c00d532d743,<b>It is difficult for me to remember the last time I was surprised by politics.,Highly disagree,6/94,Somewhat disagree,2,1707967689151,1707967694650,\Somewhat disagree\,\Somewhat disagree\,\2\,1707967693780,1707967693780,4629,4629,5499,buq,qns-item-noham,6,49843,0.0-1.0-0.5,65cd847909abc71d8bdb9100,AWAITING REVIEW,2024-02-15T03:27:00.161000Z,2024-02-15T03:38:07.788000Z,,2024-02-15T03:38:08.434324Z,668.0,CVPIIDEI,3,24,Female,Asian,United States,United States,United States,English,No,DATA_EXPIRED,Not Applicable
65cbbc191dca4c00d532d743,<b>People?s false beliefs are understandable.,Highly disagree,7/94,Somewhat agree,3,1707967694652,1707967698016,\Somewhat agree\,\Somewhat agree\,\3\,1707967697135,1707967697135,2483,2483,3364,buq,qns-item-noham,7,53209,0.0-1.0-0.6,65cd847909abc71d8bdb9100,AWAITING REVIEW,2024-02-15T03:27:00.161000Z,2024-02-15T03:38:07.788000Z,,2024-02-15T03:38:08.434324Z,668.0,CVPIIDEI,3,24,Female,Asian,United States,United States,United States,English,No,DATA_EXPIRED,Not Applicable
65cbbc191dca4c00d532d743,<b>I spend a lot of time trying to be informed about politics.,Highly disagree,8/94,Somewhat disagree,2,1707967698017,1707967702061,\Somewhat agree\,\Somewhat disagree\,\3\,1707967700544,1707967701316,2527,3299,4044,buq,qns-item-noham,8,57254,0.0-1.0-0.7,65cd847909abc71d8bdb9100,AWAITING REVIEW,2024-02-15T03:27:00.161000Z,2024-02-15T03:38:07.788000Z,,2024-02-15T03:38:08.434324Z,668.0,CVPIIDEI,3,24,Female,Asian,United States,United States,United States,English,No,DATA_EXPIRED,Not Applicable
65cbbc191dca4c00d532d743,<b>I think a lot about whether my beliefs are right.,Highly disagree,9/94,Somewhat agree,3,1707967702063,1707967707298,\Somewhat agree\,\Somewhat agree\,\3\,1707967706546,1707967706546,4483,4483,5235,buq,qns-item-noham,9,62491,0.0-1.0-0.8,65cd847909abc71d8bdb9100,AWAITING REVIEW,2024-02-15T03:27:00.161000Z,2024-02-15T03:38:07.788000Z,,2024-02-15T03:38:08.434324Z,668.0,CVPIIDEI,3,24,Female,Asian,United States,United States,United States,English,No,DATA_EXPIRED,Not Applicable
65cbbc191dca4c00d532d743,<b>Statistics can be pretty misleading sometimes.,Highly disagree,10/94,Somewhat agree,3,1707967707300,1707967725361,\Somewhat agree\,\Somewhat agree\,\3\,1707967721909,1707967721909,14609,14609,18061,buq,qns-item-noham,10,80554,0.0-1.0-0.9,65cd847909abc71d8bdb9100,AWAITING REVIEW,2024-02-15T03:27:00.161000Z,2024-02-15T03:38:07.788000Z,,2024-02-15T03:38:08.434324Z,668.0,CVPIIDEI,3,24,Female,Asian,United States,United States,United States,English,No,DATA_EXPIRED,Not Applicable
65cbbc191dca4c00d532d743,<b>I have lots of beliefs that I?m only sort of sure about.,Highly disagree,11/94,Somewhat agree,3,1707967725363,1707967732259,\Somewhat agree\,\Somewhat agree\,\3\,1707967731092,1707967731092,5729,5729,6896,buq,qns-item-noham,11,87452,0.0-1.0-0.10,65cd847909abc71d8bdb9100,AWAITING REVIEW,2024-02-15T03:27:00.161000Z,2024-02-15T03:38:07.788000Z,,2024-02-15T03:38:08.434324Z,668.0,CVPIIDEI,3,24,Female,Asian,United States,United States,United States,English,No,DATA_EXPIRED,Not Applicable
65cbbc191dca4c00d532d743,"<b>If I go to my favorite restaurant and the food is surprisingly bad, it reminds me there are many disappointments in life.",Highly disagree,12/94,Somewhat disagree,2,1707967732261,1707967738625,\Somewhat disagree\,\Somewhat disagree\,\2\,1707967737843,1707967737843,5582,5582,6364,buq,qns-item-noham,12,93818,0.0-1.0-0.11,65cd847909abc71d8bdb9100,AWAITING REVIEW,2024-02-15T03:27:00.161000Z,2024-02-15T03:38:07.788000Z,,2024-02-15T03:38:08.434324Z,668.0,CVPIIDEI,3,24,Female,Asian,United States,United States,United States,English,No,DATA_EXPIRED,Not Applicable
65cbbc191dca4c00d532d743,"<b>If you are paying attention, please select ?Somewhat agree?",Highly disagree,13/94,Somewhat agree,3,1707967738626,1707967741743,\Somewhat agree\,\Somewhat agree\,\3\,1707967740778,1707967740778,2152,2152,3117,buq,qns-item-noham,13,96936,0.0-1.0-0.12,65cd847909abc71d8bdb9100,AWAITING REVIEW,2024-02-15T03:27:00.161000Z,2024-02-15T03:38:07.788000Z,,2024-02-15T03:38:08.434324Z,668.0,CVPIIDEI,3,24,Female,Asian,United States,United States,United States,English,No,DATA_EXPIRED,Not Applicable
65cbbc191dca4c00d532d743,"<b>When I talk to others, I often worry I?ll convince them of something I didn?t mean to.",Highly disagree,14/94,Somewhat disagree,2,1707967741745,1707967757507,\Somewhat disagree\,\Somewhat disagree\,\2\,1707967756626,1707967756626,14881,14881,15762,buq,qns-item-noham,14,112700,0.0-1.0-0.13,65cd847909abc71d8bdb9100,AWAITING REVIEW,2024-02-15T03:27:00.161000Z,2024-02-15T03:38:07.788000Z,,2024-02-15T03:38:08.434324Z,668.0,CVPIIDEI,3,24,Female,Asian,United States,United States,United States,English,No,DATA_EXPIRED,Not Applicable
65cbbc191dca4c00d532d743,<b>I would need to learn something utterly shocking about my party in order to change my political views.,Highly disagree,15/94,Somewhat disagree,2,1707967757508,1707967764041,\Somewhat disagree\,\Somewhat disagree\,\2\,1707967762776,1707967762776,5268,5268,6533,buq,qns-item-noham,15,119235,0.0-1.0-0.14,65cd847909abc71d8bdb9100,AWAITING REVIEW,2024-02-15T03:27:00.161000Z,2024-02-15T03:38:07.788000Z,,2024-02-15T03:38:08.434324Z,668.0,CVPIIDEI,3,24,Female,Asian,United States,United States,United States,English,No,DATA_EXPIRED,Not Applicable
65cbbc191dca4c00d532d743,"<b>When I have new experiences, I tend to think of them as unique.",Highly disagree,16/94,Somewhat agree,3,1707967764044,1707967771814,\Somewhat agree\,\Somewhat agree\,\3\,1707967770676,1707967770676,6632,6632,7770,buq,qns-item-noham,16,127007,0.0-1.0-0.15,65cd847909abc71d8bdb9100,AWAITING REVIEW,2024-02-15T03:27:00.161000Z,2024-02-15T03:38:07.788000Z,,2024-02-15T03:38:08.434324Z,668.0,CVPIIDEI,3,24,Female,Asian,United States,United States,United States,English,No,DATA_EXPIRED,Not Applicable
65cbbc191dca4c00d532d743,<b>I change my mind about specific policies pretty frequently.,Highly disagree,17/94,Somewhat disagree,2,1707967771815,1707967777311,\Somewhat disagree\,\Somewhat disagree\,\2\,1707967776391,1707967776391,4576,4576,5496,buq,qns-item-noham,17,132504,0.0-1.0-0.16,65cd847909abc71d8bdb9100,AWAITING REVIEW,2024-02-15T03:27:00.161000Z,2024-02-15T03:38:07.788000Z,,2024-02-15T03:38:08.434324Z,668.0,CVPIIDEI,3,24,Female,Asian,United States,United States,United States,English,No,DATA_EXPIRED,Not Applicable
65cbbc191dca4c00d532d743,"<b>If a politician in my political party supports something I disagree with, I give them the benefit of the doubt, as such issues often involve hidden complexities that aren?t obvious.   ",Highly disagree,18/94,Somewhat disagree,2,1707967777313,1707967787672,\Somewhat disagree\,\Somewhat disagree\,\2\,1707967786358,1707967786358,9045,9045,10359,buq,qns-item-noham,18,142866,0.0-1.0-0.17,65cd847909abc71d8bdb9100,AWAITING REVIEW,2024-02-15T03:27:00.161000Z,2024-02-15T03:38:07.788000Z,,2024-02-15T03:38:08.434324Z,668.0,CVPIIDEI,3,24,Female,Asian,United States,United States,United States,English,No,DATA_EXPIRED,Not Applicable
65cbbc191dca4c00d532d743,<b>People?s bad politics are usually motivated by hatefulness.,Highly disagree,19/94,Somewhat agree,3,1707967787675,1707967791442,\Somewhat agree\,\Somewhat agree\,\3\,1707967790440,1707967790440,2765,2765,3767,buq,qns-item-noham,19,146635,0.0-1.0-0.18,65cd847909abc71d8bdb9100,AWAITING REVIEW,2024-02-15T03:27:00.161000Z,2024-02-15T03:38:07.788000Z,,2024-02-15T03:38:08.434324Z,668.0,CVPIIDEI,3,24,Female,Asian,United States,United States,United States,English,No,DATA_EXPIRED,Not Applicable
65cbbc191dca4c00d532d743,<b>I think a lot about how to reconcile my beliefs with one another.,Highly disagree,20/94,Somewhat agree,3,1707967791444,1707967798059,\Somewhat disagree\,\Somewhat agree\,\2\,1707967795740,1707967796724,4296,5280,6615,buq,qns-item-noham,20,153252,0.0-1.0-0.19,65cd847909abc71d8bdb9100,AWAITING REVIEW,2024-02-15T03:27:00.161000Z,2024-02-15T03:38:07.788000Z,,2024-02-15T03:38:08.434324Z,668.0,CVPIIDEI,3,24,Female,Asian,United States,United States,United States,English,No,DATA_EXPIRED,Not Applicable
65cbbc191dca4c00d532d743,<b>I might have false beliefs about important topics.,Highly disagree,21/94,Somewhat agree,3,1707967798060,1707967801827,\Somewhat agree\,\Somewhat agree\,\3\,1707967800975,1707967800975,2915,2915,3767,buq,qns-item-noham,21,157020,0.0-1.0-0.20,65cd847909abc71d8bdb9100,AWAITING REVIEW,2024-02-15T03:27:00.161000Z,2024-02-15T03:38:07.788000Z,,2024-02-15T03:38:08.434324Z,668.0,CVPIIDEI,3,24,Female,Asian,United States,United States,United States,English,No,DATA_EXPIRED,Not Applicable
65cbbc191dca4c00d532d743,"<b>If a good friend of mine does something unexpected that upsets me, I feel like I don?t know them anymore.",Highly disagree,22/94,Somewhat disagree,2,1707967801829,1707967809455,\Somewhat disagree\,\Somewhat disagree\,\2\,1707967805723,1707967805723,3894,3894,7626,buq,qns-item-noham,22,164648,0.0-1.0-0.21,65cd847909abc71d8bdb9100,AWAITING REVIEW,2024-02-15T03:27:00.161000Z,2024-02-15T03:38:07.788000Z,,2024-02-15T03:38:08.434324Z,668.0,CVPIIDEI,3,24,Female,Asian,United States,United States,United States,English,No,DATA_EXPIRED,Not Applicable
65cbbc191dca4c00d532d743,<b>Other people?s beliefs are often incoherent.,Highly disagree,23/94,Somewhat disagree,2,1707967809457,1707967813513,\Somewhat disagree\,\Somewhat disagree\,\2\,1707967812255,1707967812643,2798,3186,4056,buq,qns-item-noham,23,168707,0.0-1.0-0.22,65cd847909abc71d8bdb9100,AWAITING REVIEW,2024-02-15T03:27:00.161000Z,2024-02-15T03:38:07.788000Z,,2024-02-15T03:38:08.434324Z,668.0,CVPIIDEI,3,24,Female,Asian,United States,United States,United States,English,No,DATA_EXPIRED,Not Applicable
65cbbc191dca4c00d532d743,"<b>Every now and then, a new experience will unsettle beliefs I?ve had for a while.",Highly disagree,24/94,Somewhat agree,3,1707967813516,1707967819308,\Somewhat disagree\,\Somewhat agree\,\2\,1707967817644,1707967818375,4128,4859,5792,buq,qns-item-noham,24,174501,0.0-1.0-0.23,65cd847909abc71d8bdb9100,AWAITING REVIEW,2024-02-15T03:27:00.161000Z,2024-02-15T03:38:07.788000Z,,2024-02-15T03:38:08.434324Z,668.0,CVPIIDEI,3,24,Female,Asian,United States,United States,United States,English,No,DATA_EXPIRED,Not Applicable
65cbbc191dca4c00d532d743,<b>Some policies I agree with in principle are so bad I don?t support them. ,Highly disagree,25/94,Somewhat agree,3,1707967819310,1707967827272,\Somewhat disagree\,\Somewhat agree\,\2\,1707967824937,1707967825792,5627,6482,7962,buq,qns-item-noham,25,182465,0.0-1.0-0.24,65cd847909abc71d8bdb9100,AWAITING REVIEW,2024-02-15T03:27:00.161000Z,2024-02-15T03:38:07.788000Z,,2024-02-15T03:38:08.434324Z,668.0,CVPIIDEI,3,24,Female,Asian,United States,United States,United States,English,No,DATA_EXPIRED,Not Applicable
65cbbc191dca4c00d532d743,<b>I?m pretty sure I?ve accidentally spread false information.,Highly disagree,26/94,Somewhat agree,3,1707967827274,1707967830494,\Somewhat agree\,\Somewhat agree\,\3\,1707967829321,1707967829321,2047,2047,3220,buq,qns-item-noham,26,185687,0.0-1.0-0.25,65cd847909abc71d8bdb9100,AWAITING REVIEW,2024-02-15T03:27:00.161000Z,2024-02-15T03:38:07.788000Z,,2024-02-15T03:38:08.434324Z,668.0,CVPIIDEI,3,24,Female,Asian,United States,United States,United States,English,No,DATA_EXPIRED,Not Applicable
65cbbc191dca4c00d532d743,"<b>If I go to my favorite restaurant and the food is unexpectedly bad, then they have changed owners.",Highly disagree,27/94,Somewhat disagree,2,1707967830495,1707967836824,\Somewhat disagree\,\Somewhat disagree\,\2\,1707967835456,1707967835456,4961,4961,6329,buq,qns-item-noham,27,192017,0.0-1.0-0.26,65cd847909abc71d8bdb9100,AWAITING REVIEW,2024-02-15T03:27:00.161000Z,2024-02-15T03:38:07.788000Z,,2024-02-15T03:38:08.434324Z,668.0,CVPIIDEI,3,24,Female,Asian,United States,United States,United States,English,No,DATA_EXPIRED,Not Applicable
65cbbc191dca4c00d532d743,"<b>In politics, it?s important to trust your friends and family.",Highly disagree,28/94,Somewhat agree,3,1707967836826,1707967845004,\Somewhat disagree\,\Somewhat agree\,\2\,1707967840921,1707967844105,4095,7279,8178,buq,qns-item-noham,28,200197,0.0-1.0-0.27,65cd847909abc71d8bdb9100,AWAITING REVIEW,2024-02-15T03:27:00.161000Z,2024-02-15T03:38:07.788000Z,,2024-02-15T03:38:08.434324Z,668.0,CVPIIDEI,3,24,Female,Asian,United States,United States,United States,English,No,DATA_EXPIRED,Not Applicable
65cbbc191dca4c00d532d743,<b>It?s OK to have some conflicting beliefs.,Highly disagree,29/94,Somewhat agree,3,1707967845006,1707967848140,\Somewhat agree\,\Somewhat agree\,\3\,1707967847416,1707967847416,2410,2410,3134,buq,qns-item-noham,29,203333,0.0-1.0-0.28,65cd847909abc71d8bdb9100,AWAITING REVIEW,2024-02-15T03:27:00.161000Z,2024-02-15T03:38:07.788000Z,,2024-02-15T03:38:08.434324Z,668.0,CVPIIDEI,3,24,Female,Asian,United States,United States,United States,English,No,DATA_EXPIRED,Not Applicable
65cbbc191dca4c00d532d743,<b>Listening to people I disagree with makes my opinions better.,Highly disagree,30/94,Somewhat disagree,2,1707967848142,1707967855308,\Somewhat disagree\,\Somewhat disagree\,\2\,1707967854537,1707967854537,6395,6395,7166,buq,qns-item-noham,30,210502,0.0-1.0-0.29,65cd847909abc71d8bdb9100,AWAITING REVIEW,2024-02-15T03:27:00.161000Z,2024-02-15T03:38:07.788000Z,,2024-02-15T03:38:08.434324Z,668.0,CVPIIDEI,3,24,Female,Asian,United States,United States,United States,English,No,DATA_EXPIRED,Not Applicable
65cbbc191dca4c00d532d743,<b>My moral compass sometimes makes it harder to determine what?s true.,Highly disagree,31/94,Somewhat agree,3,1707967855310,1707967876419,\Somewhat agree\,\Somewhat agree\,\3\,1707967874525,1707967874525,19215,19215,21109,buq,qns-item-noham,31,231612,0.0-1.0-0.30,65cd847909abc71d8bdb9100,AWAITING REVIEW,2024-02-15T03:27:00.161000Z,2024-02-15T03:38:07.788000Z,,2024-02-15T03:38:08.434324Z,668.0,CVPIIDEI,3,24,Female,Asian,United States,United States,United States,English,No,DATA_EXPIRED,Not Applicable
65cbbc191dca4c00d532d743,<b>Evidence pointing in the wrong direction isn?t really evidence at all.,Highly disagree,32/94,Somewhat agree,3,1707967876422,1707967881521,\Somewhat disagree\,\Somewhat agree\,\2\,1707967878868,1707967880652,2446,4230,5099,buq,qns-item-noham,32,236714,0.0-1.0-0.31,65cd847909abc71d8bdb9100,AWAITING REVIEW,2024-02-15T03:27:00.161000Z,2024-02-15T03:38:07.788000Z,,2024-02-15T03:38:08.434324Z,668.0,CVPIIDEI,3,24,Female,Asian,United States,United States,United States,English,No,DATA_EXPIRED,Not Applicable
65cbbc191dca4c00d532d743,"<b>If the political party I support messes up, it makes me think politics is rotten.",Highly disagree,33/94,Somewhat disagree,2,1707967881522,1707967889172,\Somewhat disagree\,\Somewhat disagree\,\2\,1707967887952,1707967887952,6430,6430,7650,buq,qns-item-noham,33,244365,0.0-1.0-0.32,65cd847909abc71d8bdb9100,AWAITING REVIEW,2024-02-15T03:27:00.161000Z,2024-02-15T03:38:07.788000Z,,2024-02-15T03:38:08.434324Z,668.0,CVPIIDEI,3,24,Female,Asian,United States,United States,United States,English,No,DATA_EXPIRED,Not Applicable
65cbbc191dca4c00d532d743,<b>Lots of important topics can only really be understood by some groups of people.,Highly disagree,34/94,Somewhat disagree,2,1707967889173,1707967897635,\Somewhat agree\,\Somewhat disagree\,\3\,1707967894301,1707967896666,5128,7493,8462,buq,qns-item-noham,34,252828,0.0-1.0-0.33,65cd847909abc71d8bdb9100,AWAITING REVIEW,2024-02-15T03:27:00.161000Z,2024-02-15T03:38:07.788000Z,,2024-02-15T03:38:08.434324Z,668.0,CVPIIDEI,3,24,Female,Asian,United States,United States,United States,English,No,DATA_EXPIRED,Not Applicable
65cbbc191dca4c00d532d743,<b>Having conflicting beliefs means you haven?t thought about them enough.,Highly disagree,35/94,Somewhat disagree,2,1707967897638,1707967901705,\Somewhat disagree\,\Somewhat disagree\,\2\,1707967900852,1707967900852,3214,3214,4067,buq,qns-item-noham,35,256898,0.0-1.0-0.34,65cd847909abc71d8bdb9100,AWAITING REVIEW,2024-02-15T03:27:00.161000Z,2024-02-15T03:38:07.788000Z,,2024-02-15T03:38:08.434324Z,668.0,CVPIIDEI,3,24,Female,Asian,United States,United States,United States,English,No,DATA_EXPIRED,Not Applicable
65cbbc191dca4c00d532d743,<b>I do not often change my political opinions.,Highly disagree,36/94,Somewhat agree,3,1707967901706,1707967909103,\Somewhat disagree\,\Somewhat agree\,\2\,1707967907184,1707967908285,5478,6579,7397,buq,qns-item-noham,36,264296,0.0-1.0-0.35,65cd847909abc71d8bdb9100,AWAITING REVIEW,2024-02-15T03:27:00.161000Z,2024-02-15T03:38:07.788000Z,,2024-02-15T03:38:08.434324Z,668.0,CVPIIDEI,3,24,Female,Asian,United States,United States,United States,English,No,DATA_EXPIRED,Not Applicable
65cbbc191dca4c00d532d743,<b>It?s difficult to not have at least some conflicting beliefs.,Highly disagree,37/94,Somewhat disagree,2,1707967909105,1707967914938,\Somewhat disagree\,\Somewhat disagree\,\2\,1707967914052,1707967914052,4947,4947,5833,buq,qns-item-noham,37,270131,0.0-1.0-0.36,65cd847909abc71d8bdb9100,AWAITING REVIEW,2024-02-15T03:27:00.161000Z,2024-02-15T03:38:07.788000Z,,2024-02-15T03:38:08.434324Z,668.0,CVPIIDEI,3,24,Female,Asian,United States,United States,United States,English,No,DATA_EXPIRED,Not Applicable
65cbbc191dca4c00d532d743,<b>Wishful thinking causes a lot of problems.,Highly disagree,38/94,Somewhat agree,3,1707967914939,1707967920569,\Somewhat disagree\,\Somewhat agree\,\2\,1707967918817,1707967919570,3878,4631,5630,buq,qns-item-noham,38,275762,0.0-1.0-0.37,65cd847909abc71d8bdb9100,AWAITING REVIEW,2024-02-15T03:27:00.161000Z,2024-02-15T03:38:07.788000Z,,2024-02-15T03:38:08.434324Z,668.0,CVPIIDEI,3,24,Female,Asian,United States,United States,United States,English,No,DATA_EXPIRED,Not Applicable
65cbbc191dca4c00d532d743,<b>I judge a food item only once I try it many times.,Highly disagree,39/94,Highly disagree,1,1707967920571,1707967930250,\Highly disagree\,\Highly disagree\,\1\,1707967929417,1707967929417,8846,8846,9679,buq,qns-item-noham,39,285443,0.0-1.0-0.38,65cd847909abc71d8bdb9100,AWAITING REVIEW,2024-02-15T03:27:00.161000Z,2024-02-15T03:38:07.788000Z,,2024-02-15T03:38:08.434324Z,668.0,CVPIIDEI,3,24,Female,Asian,United States,United States,United States,English,No,DATA_EXPIRED,Not Applicable
65cbbc191dca4c00d532d743,"<b>When a person holds conflicting beliefs, they should really try to figure out what?s wrong.",Highly disagree,40/94,Somewhat agree,3,1707967930252,1707967941017,\Somewhat agree\,\Somewhat agree\,\3\,1707967940149,1707967940149,9897,9897,10765,buq,qns-item-noham,40,296210,0.0-1.0-0.39,65cd847909abc71d8bdb9100,AWAITING REVIEW,2024-02-15T03:27:00.161000Z,2024-02-15T03:38:07.788000Z,,2024-02-15T03:38:08.434324Z,668.0,CVPIIDEI,3,24,Female,Asian,United States,United States,United States,English,No,DATA_EXPIRED,Not Applicable
65cbbc191dca4c00d532d743,<b>Knowing what?s important in life is easy.,Highly disagree,41/94,Somewhat disagree,2,1707967941018,1707967945266,\Somewhat disagree\,\Somewhat disagree\,\2\,1707967943863,1707967943863,2845,2845,4248,buq,qns-item-noham,41,300459,0.0-1.0-0.40,65cd847909abc71d8bdb9100,AWAITING REVIEW,2024-02-15T03:27:00.161000Z,2024-02-15T03:38:07.788000Z,,2024-02-15T03:38:08.434324Z,668.0,CVPIIDEI,3,24,Female,Asian,United States,United States,United States,English,No,DATA_EXPIRED,Not Applicable
65cbbc191dca4c00d532d743,<b>I swim across the Atlantic Ocean to get to work every day.,Highly disagree,42/94,Highly disagree,1,1707967945269,1707967950665,\Highly disagree\,\Highly disagree\,\1\,1707967948499,1707967948499,3230,3230,5396,buq,qns-item-noham,42,305858,0.0-1.0-0.41,65cd847909abc71d8bdb9100,AWAITING REVIEW,2024-02-15T03:27:00.161000Z,2024-02-15T03:38:07.788000Z,,2024-02-15T03:38:08.434324Z,668.0,CVPIIDEI,3,24,Female,Asian,United States,United States,United States,English,No,DATA_EXPIRED,Not Applicable
65cbbc191dca4c00d532d743,"<b>Sometimes, you just have to ignore evidence that you know is wrong.",Highly disagree,43/94,Somewhat disagree,2,1707967950668,1707967961582,\Somewhat agree\,\Somewhat disagree\,\3\,1707967957997,1707967960298,7329,9630,10914,buq,qns-item-noham,43,316776,0.0-1.0-0.42,65cd847909abc71d8bdb9100,AWAITING REVIEW,2024-02-15T03:27:00.161000Z,2024-02-15T03:38:07.788000Z,,2024-02-15T03:38:08.434324Z,668.0,CVPIIDEI,3,24,Female,Asian,United States,United States,United States,English,No,DATA_EXPIRED,Not Applicable
65cbbc191dca4c00d532d743,<b>I have had some false beliefs.,Highly disagree,44/94,Somewhat agree,3,1707967961585,1707967964583,\Somewhat agree\,\Somewhat agree\,\3\,1707967963648,1707967963648,2063,2063,2998,buq,qns-item-noham,44,319776,0.0-1.0-0.43,65cd847909abc71d8bdb9100,AWAITING REVIEW,2024-02-15T03:27:00.161000Z,2024-02-15T03:38:07.788000Z,,2024-02-15T03:38:08.434324Z,668.0,CVPIIDEI,3,24,Female,Asian,United States,United States,United States,English,No,DATA_EXPIRED,Not Applicable
65cbbc191dca4c00d532d743,"<b>If one friend does something that upsets me, I sometimes start to distrust people in general.",Highly disagree,45/94,Somewhat disagree,2,1707967964584,1707967970000,\Somewhat disagree\,\Somewhat disagree\,\2\,1707967968864,1707967968864,4280,4280,5416,buq,qns-item-noham,45,325193,0.0-1.0-0.44,65cd847909abc71d8bdb9100,AWAITING REVIEW,2024-02-15T03:27:00.161000Z,2024-02-15T03:38:07.788000Z,,2024-02-15T03:38:08.434324Z,668.0,CVPIIDEI,3,24,Female,Asian,United States,United States,United States,English,No,DATA_EXPIRED,Not Applicable
65cbbc191dca4c00d532d743,<b>The facts about most important matters are easy to find.,Highly disagree,46/94,Somewhat agree,3,1707967970002,1707967975233,\Somewhat agree\,\Somewhat agree\,\3\,1707967973599,1707967973599,3597,3597,5231,buq,qns-item-noham,46,330426,0.0-1.0-0.45,65cd847909abc71d8bdb9100,AWAITING REVIEW,2024-02-15T03:27:00.161000Z,2024-02-15T03:38:07.788000Z,,2024-02-15T03:38:08.434324Z,668.0,CVPIIDEI,3,24,Female,Asian,United States,United States,United States,English,No,DATA_EXPIRED,Not Applicable
65cbbc191dca4c00d532d743,<b>It?s better to know what?s true than to know what?s moral.,Highly disagree,47/94,Somewhat disagree,2,1707967975235,1707967980134,\Somewhat disagree\,\Somewhat disagree\,\2\,1707967979114,1707967979114,3879,3879,4899,buq,qns-item-noham,47,335327,0.0-1.0-0.46,65cd847909abc71d8bdb9100,AWAITING REVIEW,2024-02-15T03:27:00.161000Z,2024-02-15T03:38:07.788000Z,,2024-02-15T03:38:08.434324Z,668.0,CVPIIDEI,3,24,Female,Asian,United States,United States,United States,English,No,DATA_EXPIRED,Not Applicable
65cbbc191dca4c00d532d743,<b>I used to think the world was less complicated than I do now.,Highly disagree,48/94,Highly agree,4,1707967980135,1707967986057,\Highly agree\,\Highly agree\,\4\,1707967984913,1707967984913,4778,4778,5922,buq,qns-item-noham,48,341250,0.0-1.0-0.47,65cd847909abc71d8bdb9100,AWAITING REVIEW,2024-02-15T03:27:00.161000Z,2024-02-15T03:38:07.788000Z,,2024-02-15T03:38:08.434324Z,668.0,CVPIIDEI,3,24,Female,Asian,United States,United States,United States,English,No,DATA_EXPIRED,Not Applicable
65cbbc191dca4c00d532d743,<b>People are usually completely right or completely wrong.,Highly disagree,49/94,Somewhat disagree,2,1707967986059,1707967990114,\Somewhat disagree\,\Somewhat disagree\,\2\,1707967988912,1707967988912,2853,2853,4055,buq,qns-item-noham,49,345307,0.0-1.0-0.48,65cd847909abc71d8bdb9100,AWAITING REVIEW,2024-02-15T03:27:00.161000Z,2024-02-15T03:38:07.788000Z,,2024-02-15T03:38:08.434324Z,668.0,CVPIIDEI,3,24,Female,Asian,United States,United States,United States,English,No,DATA_EXPIRED,Not Applicable
65cbbc191dca4c00d532d743,<b>I spend a lot of time considering alternatives to my beliefs.,Highly disagree,50/94,Somewhat disagree,2,1707967990116,1707967994314,\Somewhat disagree\,\Somewhat disagree\,\2\,1707967993610,1707967993610,3494,3494,4198,buq,qns-item-noham,50,349507,0.0-1.0-0.49,65cd847909abc71d8bdb9100,AWAITING REVIEW,2024-02-15T03:27:00.161000Z,2024-02-15T03:38:07.788000Z,,2024-02-15T03:38:08.434324Z,668.0,CVPIIDEI,3,24,Female,Asian,United States,United States,United States,English,No,DATA_EXPIRED,Not Applicable
65cbbc191dca4c00d532d743,"<b>Political enemies need to be defeated, not convinced.",Highly disagree,51/94,Somewhat disagree,2,1707967994316,1707967998183,\Somewhat disagree\,\Somewhat disagree\,\2\,1707967997346,1707967997346,3030,3030,3867,buq,qns-item-noham,51,353376,0.0-1.0-0.50,65cd847909abc71d8bdb9100,AWAITING REVIEW,2024-02-15T03:27:00.161000Z,2024-02-15T03:38:07.788000Z,,2024-02-15T03:38:08.434324Z,668.0,CVPIIDEI,3,24,Female,Asian,United States,United States,United States,English,No,DATA_EXPIRED,Not Applicable
65cbbc191dca4c00d532d743,<b>I form my political views only after meticulously gathering historical and present information about their policies.,Highly disagree,52/94,Somewhat agree,3,1707967998185,1707968005229,\Somewhat agree\,\Somewhat agree\,\3\,1707968004128,1707968004128,5943,5943,7044,buq,qns-item-noham,52,360422,0.0-1.0-0.51,65cd847909abc71d8bdb9100,AWAITING REVIEW,2024-02-15T03:27:00.161000Z,2024-02-15T03:38:07.788000Z,,2024-02-15T03:38:08.434324Z,668.0,CVPIIDEI,3,24,Female,Asian,United States,United States,United States,English,No,DATA_EXPIRED,Not Applicable
65cbbc191dca4c00d532d743,<b>It is difficult for me to remember the last time I was surprised by politics.,Highly disagree,53/94,Somewhat disagree,2,1707968005231,1707968011147,\Somewhat agree\,\Somewhat disagree\,\3\,1707968009728,1707968010382,4497,5151,5916,buq,qns-item-noham,53,366340,0.0-1.0-0.52,65cd847909abc71d8bdb9100,AWAITING REVIEW,2024-02-15T03:27:00.161000Z,2024-02-15T03:38:07.788000Z,,2024-02-15T03:38:08.434324Z,668.0,CVPIIDEI,3,24,Female,Asian,United States,United States,United States,English,No,DATA_EXPIRED,Not Applicable
65cbbc191dca4c00d532d743,"<b>When I find out I?m wrong, I think a lot about my related beliefs.",Highly disagree,54/94,Somewhat disagree,2,1707968011149,1707968017432,\Somewhat disagree\,\Somewhat disagree\,\2\,1707968016745,1707968016745,5596,5596,6283,buq,qns-item-noham,54,372625,0.0-1.0-0.53,65cd847909abc71d8bdb9100,AWAITING REVIEW,2024-02-15T03:27:00.161000Z,2024-02-15T03:38:07.788000Z,,2024-02-15T03:38:08.434324Z,668.0,CVPIIDEI,3,24,Female,Asian,United States,United States,United States,English,No,DATA_EXPIRED,Not Applicable
65cbbc191dca4c00d532d743,"<b>If the political party I support messes up, it makes me think you can?t trust anyone these days",Highly disagree,55/94,Somewhat disagree,2,1707968017433,1707968021697,\Somewhat disagree\,\Somewhat disagree\,\2\,1707968021013,1707968021013,3580,3580,4264,buq,qns-item-noham,55,376890,0.0-1.0-0.54,65cd847909abc71d8bdb9100,AWAITING REVIEW,2024-02-15T03:27:00.161000Z,2024-02-15T03:38:07.788000Z,,2024-02-15T03:38:08.434324Z,668.0,CVPIIDEI,3,24,Female,Asian,United States,United States,United States,English,No,DATA_EXPIRED,Not Applicable
65cbbc191dca4c00d532d743,<b>People?s brains turn off when they talk about politics.,Highly disagree,56/94,Somewhat agree,3,1707968021698,1707968027828,\Somewhat agree\,\Somewhat agree\,\3\,1707968026960,1707968026960,5262,5262,6130,buq,qns-item-noham,56,383021,0.0-1.0-0.55,65cd847909abc71d8bdb9100,AWAITING REVIEW,2024-02-15T03:27:00.161000Z,2024-02-15T03:38:07.788000Z,,2024-02-15T03:38:08.434324Z,668.0,CVPIIDEI,3,24,Female,Asian,United States,United States,United States,English,No,DATA_EXPIRED,Not Applicable
65cbbc191dca4c00d532d743,<b>People who are wrong are usually just ignoring the obvious.,Highly disagree,57/94,Somewhat disagree,2,1707968027829,1707968033358,\Somewhat disagree\,\Somewhat disagree\,\2\,1707968032161,1707968032161,4332,4332,5529,buq,qns-item-noham,57,388552,0.0-1.0-0.56,65cd847909abc71d8bdb9100,AWAITING REVIEW,2024-02-15T03:27:00.161000Z,2024-02-15T03:38:07.788000Z,,2024-02-15T03:38:08.434324Z,668.0,CVPIIDEI,3,24,Female,Asian,United States,United States,United States,English,No,DATA_EXPIRED,Not Applicable
65cbbc191dca4c00d532d743,"<b>When forming my views on people, I rely more on what they are like now rather than rely on my past experience with them.",Highly disagree,58/94,Somewhat disagree,2,1707968033361,1707968046316,\Somewhat disagree\,\Somewhat disagree\,\2\,1707968045141,1707968045141,11780,11780,12955,buq,qns-item-noham,58,401509,0.0-1.0-0.57,65cd847909abc71d8bdb9100,AWAITING REVIEW,2024-02-15T03:27:00.161000Z,2024-02-15T03:38:07.788000Z,,2024-02-15T03:38:08.434324Z,668.0,CVPIIDEI,3,24,Female,Asian,United States,United States,United States,English,No,DATA_EXPIRED,Not Applicable
65cbbc191dca4c00d532d743,"<b>When people contradict my beliefs, I usually know about their evidence already.",Highly disagree,59/94,Somewhat disagree,2,1707968046319,1707968058477,\Somewhat disagree\,\Somewhat disagree\,\2\,1707968057510,1707968057510,11191,11191,12158,buq,qns-item-noham,59,413671,0.0-1.0-0.58,65cd847909abc71d8bdb9100,AWAITING REVIEW,2024-02-15T03:27:00.161000Z,2024-02-15T03:38:07.788000Z,,2024-02-15T03:38:08.434324Z,668.0,CVPIIDEI,3,24,Female,Asian,United States,United States,United States,English,No,DATA_EXPIRED,Not Applicable
65cbbc191dca4c00d532d743,<b>Figuring out what?s true and what?s false mainly requires a strong moral compass.,Highly disagree,60/94,Somewhat agree,3,1707968058479,1707968069392,\Somewhat agree\,\Somewhat agree\,\3\,1707968068327,1707968068545,9848,10066,10913,buq,qns-item-noham,60,424585,0.0-1.0-0.59,65cd847909abc71d8bdb9100,AWAITING REVIEW,2024-02-15T03:27:00.161000Z,2024-02-15T03:38:07.788000Z,,2024-02-15T03:38:08.434324Z,668.0,CVPIIDEI,3,24,Female,Asian,United States,United States,United States,English,No,DATA_EXPIRED,Not Applicable
65cbbc191dca4c00d532d743,"<b>Usually I?m wrong about simple things, not complicated ones.",Highly disagree,61/94,Somewhat disagree,2,1707968069394,1707968072760,\Somewhat disagree\,\Somewhat disagree\,\2\,1707968071392,1707968071392,1998,1998,3366,buq,qns-item-noham,61,427953,0.0-1.0-0.60,65cd847909abc71d8bdb9100,AWAITING REVIEW,2024-02-15T03:27:00.161000Z,2024-02-15T03:38:07.788000Z,,2024-02-15T03:38:08.434324Z,668.0,CVPIIDEI,3,24,Female,Asian,United States,United States,United States,English,No,DATA_EXPIRED,Not Applicable
65cbbc191dca4c00d532d743,<b>Getting all the information I want about important things is hard.,Highly disagree,62/94,Somewhat disagree,2,1707968072762,1707968076912,\Somewhat disagree\,\Somewhat disagree\,\2\,1707968075992,1707968075992,3230,3230,4150,buq,qns-item-noham,62,432105,0.0-1.0-0.61,65cd847909abc71d8bdb9100,AWAITING REVIEW,2024-02-15T03:27:00.161000Z,2024-02-15T03:38:07.788000Z,,2024-02-15T03:38:08.434324Z,668.0,CVPIIDEI,3,24,Female,Asian,United States,United States,United States,English,No,DATA_EXPIRED,Not Applicable
65cbbc191dca4c00d532d743,<b>Most false beliefs spread because people try to deceive one another.,Highly disagree,63/94,Somewhat disagree,2,1707968076913,1707968085008,\Somewhat agree\,\Somewhat disagree\,\3\,1707968082026,1707968082977,5113,6064,8095,buq,qns-item-noham,63,440201,0.0-1.0-0.62,65cd847909abc71d8bdb9100,AWAITING REVIEW,2024-02-15T03:27:00.161000Z,2024-02-15T03:38:07.788000Z,,2024-02-15T03:38:08.434324Z,668.0,CVPIIDEI,3,24,Female,Asian,United States,United States,United States,English,No,DATA_EXPIRED,Not Applicable
65cbbc191dca4c00d532d743,<b>I can usually find something to agree with in most people?s beliefs.,Highly disagree,64/94,Somewhat agree,3,1707968085009,1707968090332,\Somewhat agree\,\Somewhat agree\,\3\,1707968089158,1707968089158,4149,4149,5323,buq,qns-item-noham,64,445526,0.0-1.0-0.63,65cd847909abc71d8bdb9100,AWAITING REVIEW,2024-02-15T03:27:00.161000Z,2024-02-15T03:38:07.788000Z,,2024-02-15T03:38:08.434324Z,668.0,CVPIIDEI,3,24,Female,Asian,United States,United States,United States,English,No,DATA_EXPIRED,Not Applicable
65cbbc191dca4c00d532d743,<b>I only form my views of people once I get to know them very well.,Highly disagree,65/94,Somewhat disagree,2,1707968090335,1707968095996,\Somewhat agree\,\Somewhat disagree\,\3\,1707968093207,1707968095207,2872,4872,5661,buq,qns-item-noham,65,451189,0.0-1.0-0.64,65cd847909abc71d8bdb9100,AWAITING REVIEW,2024-02-15T03:27:00.161000Z,2024-02-15T03:38:07.788000Z,,2024-02-15T03:38:08.434324Z,668.0,CVPIIDEI,3,24,Female,Asian,United States,United States,United States,English,No,DATA_EXPIRED,Not Applicable
65cbbc191dca4c00d532d743,"<b>When people tell me important things about the world, I usually believe them.",Highly disagree,66/94,Somewhat agree,3,1707968095998,1707968101561,\Somewhat agree\,\Somewhat agree\,\3\,1707968100807,1707968100807,4809,4809,5563,buq,qns-item-noham,66,456754,0.0-1.0-0.65,65cd847909abc71d8bdb9100,AWAITING REVIEW,2024-02-15T03:27:00.161000Z,2024-02-15T03:38:07.788000Z,,2024-02-15T03:38:08.434324Z,668.0,CVPIIDEI,3,24,Female,Asian,United States,United States,United States,English,No,DATA_EXPIRED,Not Applicable
65cbbc191dca4c00d532d743,"<b>If a friend does something that upsets me, it reminds me what an unpredictable place the world is.",Highly disagree,67/94,Somewhat disagree,2,1707968101562,1707968106842,\Somewhat disagree\,\Somewhat disagree\,\2\,1707968105525,1707968105525,3963,3963,5280,buq,qns-item-noham,67,462035,0.0-1.0-0.66,65cd847909abc71d8bdb9100,AWAITING REVIEW,2024-02-15T03:27:00.161000Z,2024-02-15T03:38:07.788000Z,,2024-02-15T03:38:08.434324Z,668.0,CVPIIDEI,3,24,Female,Asian,United States,United States,United States,English,No,DATA_EXPIRED,Not Applicable
65cbbc191dca4c00d532d743,<b>People tend to believe whatever is good for their friends.,Highly disagree,68/94,Somewhat agree,3,1707968106844,1707968111739,\Somewhat agree\,\Somewhat agree\,\3\,1707968110290,1707968110290,3446,3446,4895,buq,qns-item-noham,68,466932,0.0-1.0-0.67,65cd847909abc71d8bdb9100,AWAITING REVIEW,2024-02-15T03:27:00.161000Z,2024-02-15T03:38:07.788000Z,,2024-02-15T03:38:08.434324Z,668.0,CVPIIDEI,3,24,Female,Asian,United States,United States,United States,English,No,DATA_EXPIRED,Not Applicable
65cbbc191dca4c00d532d743,<b>I used to be more certain my beliefs were true.,Highly disagree,69/94,Somewhat agree,3,1707968111741,1707968122456,\Somewhat disagree\,\Somewhat agree\,\2\,1707968119168,1707968121772,7427,10031,10715,buq,qns-item-noham,69,477649,0.0-1.0-0.68,65cd847909abc71d8bdb9100,AWAITING REVIEW,2024-02-15T03:27:00.161000Z,2024-02-15T03:38:07.788000Z,,2024-02-15T03:38:08.434324Z,668.0,CVPIIDEI,3,24,Female,Asian,United States,United States,United States,English,No,DATA_EXPIRED,Not Applicable
65cbbc191dca4c00d532d743,<b>It?s often pretty easy to figure out whether something is true based on who said it.,Highly disagree,70/94,Somewhat disagree,2,1707968122457,1707968130212,\Somewhat disagree\,\Somewhat disagree\,\2\,1707968128524,1707968128524,6067,6067,7755,buq,qns-item-noham,70,485405,0.0-1.0-0.69,65cd847909abc71d8bdb9100,AWAITING REVIEW,2024-02-15T03:27:00.161000Z,2024-02-15T03:38:07.788000Z,,2024-02-15T03:38:08.434324Z,668.0,CVPIIDEI,3,24,Female,Asian,United States,United States,United States,English,No,DATA_EXPIRED,Not Applicable
65cbbc191dca4c00d532d743,<b>I transform into a hummingbird every day.,Highly disagree,71/94,Highly disagree,1,1707968130214,1707968134374,\Highly disagree\,\Highly disagree\,\1\,1707968133255,1707968133255,3041,3041,4160,buq,qns-item-noham,71,489567,0.0-1.0-0.70,65cd847909abc71d8bdb9100,AWAITING REVIEW,2024-02-15T03:27:00.161000Z,2024-02-15T03:38:07.788000Z,,2024-02-15T03:38:08.434324Z,668.0,CVPIIDEI,3,24,Female,Asian,United States,United States,United States,English,No,DATA_EXPIRED,Not Applicable
65cbbc191dca4c00d532d743,<b>I think a lot about arguments against my views.,Highly disagree,72/94,Somewhat disagree,2,1707968134376,1707968140075,\Somewhat disagree\,\Somewhat disagree\,\2\,1707968139004,1707968139004,4628,4628,5699,buq,qns-item-noham,72,495268,0.0-1.0-0.71,65cd847909abc71d8bdb9100,AWAITING REVIEW,2024-02-15T03:27:00.161000Z,2024-02-15T03:38:07.788000Z,,2024-02-15T03:38:08.434324Z,668.0,CVPIIDEI,3,24,Female,Asian,United States,United States,United States,English,No,DATA_EXPIRED,Not Applicable
65cbbc191dca4c00d532d743,<b>Personal experience is usually more important than facts and figures.,Highly disagree,73/94,Somewhat disagree,2,1707968140076,1707968145474,\Somewhat agree\,\Somewhat disagree\,\3\,1707968142689,1707968144454,2613,4378,5398,buq,qns-item-noham,73,500667,0.0-1.0-0.72,65cd847909abc71d8bdb9100,AWAITING REVIEW,2024-02-15T03:27:00.161000Z,2024-02-15T03:38:07.788000Z,,2024-02-15T03:38:08.434324Z,668.0,CVPIIDEI,3,24,Female,Asian,United States,United States,United States,English,No,DATA_EXPIRED,Not Applicable
65cbbc191dca4c00d532d743,<b>I?ve been tricked before about important matters.,Highly disagree,74/94,Somewhat agree,3,1707968145475,1707968149555,\Somewhat agree\,\Somewhat agree\,\3\,1707968147454,1707968147454,1979,1979,4080,buq,qns-item-noham,74,504748,0.0-1.0-0.73,65cd847909abc71d8bdb9100,AWAITING REVIEW,2024-02-15T03:27:00.161000Z,2024-02-15T03:38:07.788000Z,,2024-02-15T03:38:08.434324Z,668.0,CVPIIDEI,3,24,Female,Asian,United States,United States,United States,English,No,DATA_EXPIRED,Not Applicable
65cbbc191dca4c00d532d743,<b>I would need to be totally wowed if I were to change my opinion of a restaurant I don?t like.,Highly disagree,75/94,Somewhat disagree,2,1707968149557,1707968154557,\Somewhat disagree\,\Somewhat disagree\,\2\,1707968153354,1707968153354,3797,3797,5000,buq,qns-item-noham,75,509750,0.0-1.0-0.74,65cd847909abc71d8bdb9100,AWAITING REVIEW,2024-02-15T03:27:00.161000Z,2024-02-15T03:38:07.788000Z,,2024-02-15T03:38:08.434324Z,668.0,CVPIIDEI,3,24,Female,Asian,United States,United States,United States,English,No,DATA_EXPIRED,Not Applicable
65cbbc191dca4c00d532d743,<b>I care a lot about politics.,Highly disagree,76/94,Somewhat disagree,2,1707968154559,1707968158092,\Somewhat disagree\,\Somewhat disagree\,\2\,1707968157139,1707968157139,2580,2580,3533,buq,qns-item-noham,76,513285,0.0-1.0-0.75,65cd847909abc71d8bdb9100,AWAITING REVIEW,2024-02-15T03:27:00.161000Z,2024-02-15T03:38:07.788000Z,,2024-02-15T03:38:08.434324Z,668.0,CVPIIDEI,3,24,Female,Asian,United States,United States,United States,English,No,DATA_EXPIRED,Not Applicable
65cbbc191dca4c00d532d743,<b>There are some topics I?ve been really wrong about.,Highly disagree,77/94,Somewhat agree,3,1707968158093,1707968165386,\Somewhat agree\,\Somewhat agree\,\3\,1707968164453,1707968164453,6360,6360,7293,buq,qns-item-noham,77,520579,0.0-1.0-0.76,65cd847909abc71d8bdb9100,AWAITING REVIEW,2024-02-15T03:27:00.161000Z,2024-02-15T03:38:07.788000Z,,2024-02-15T03:38:08.434324Z,668.0,CVPIIDEI,3,24,Female,Asian,United States,United States,United States,English,No,DATA_EXPIRED,Not Applicable
65cbbc191dca4c00d532d743,<b>Most beliefs can be supported with at least some evidence.,Highly disagree,78/94,Somewhat agree,3,1707968165387,1707968172319,\Somewhat agree\,\Somewhat agree\,\3\,1707968171436,1707968171436,6049,6049,6932,buq,qns-item-noham,78,527512,0.0-1.0-0.77,65cd847909abc71d8bdb9100,AWAITING REVIEW,2024-02-15T03:27:00.161000Z,2024-02-15T03:38:07.788000Z,,2024-02-15T03:38:08.434324Z,668.0,CVPIIDEI,3,24,Female,Asian,United States,United States,United States,English,No,DATA_EXPIRED,Not Applicable
65cbbc191dca4c00d532d743,<b>Other people make life out to be more complicated than it really is.,Highly disagree,79/94,Somewhat disagree,2,1707968172320,1707968177067,\Somewhat disagree\,\Somewhat disagree\,\2\,1707968175470,1707968175470,3150,3150,4747,buq,qns-item-noham,79,532261,0.0-1.0-0.78,65cd847909abc71d8bdb9100,AWAITING REVIEW,2024-02-15T03:27:00.161000Z,2024-02-15T03:38:07.788000Z,,2024-02-15T03:38:08.434324Z,668.0,CVPIIDEI,3,24,Female,Asian,United States,United States,United States,English,No,DATA_EXPIRED,Not Applicable
65cbbc191dca4c00d532d743,"<b>Policy details don?t matter much, just the big picture.",Highly disagree,80/94,Somewhat disagree,2,1707968177068,1707968184604,\Somewhat disagree\,\Somewhat disagree\,\2\,1707968182952,1707968182952,5884,5884,7536,buq,qns-item-noham,80,539797,0.0-1.0-0.79,65cd847909abc71d8bdb9100,AWAITING REVIEW,2024-02-15T03:27:00.161000Z,2024-02-15T03:38:07.788000Z,,2024-02-15T03:38:08.434324Z,668.0,CVPIIDEI,3,24,Female,Asian,United States,United States,United States,English,No,DATA_EXPIRED,Not Applicable
65cbbc191dca4c00d532d743,<b>I know my friends so well they can hardly ever surprise me.,Highly disagree,81/94,Somewhat disagree,2,1707968184606,1707968188153,\Somewhat disagree\,\Somewhat disagree\,\2\,1707968187353,1707968187353,2747,2747,3547,buq,qns-item-noham,81,543346,0.0-1.0-0.80,65cd847909abc71d8bdb9100,AWAITING REVIEW,2024-02-15T03:27:00.161000Z,2024-02-15T03:38:07.788000Z,,2024-02-15T03:38:08.434324Z,668.0,CVPIIDEI,3,24,Female,Asian,United States,United States,United States,English,No,DATA_EXPIRED,Not Applicable
65cbbc191dca4c00d532d743,<b>I do not often change my views on people.,Highly disagree,82/94,Somewhat disagree,2,1707968188154,1707968191188,\Somewhat disagree\,\Somewhat disagree\,\2\,1707968190526,1707968190526,2372,2372,3034,buq,qns-item-noham,82,546381,0.0-1.0-0.81,65cd847909abc71d8bdb9100,AWAITING REVIEW,2024-02-15T03:27:00.161000Z,2024-02-15T03:38:07.788000Z,,2024-02-15T03:38:08.434324Z,668.0,CVPIIDEI,3,24,Female,Asian,United States,United States,United States,English,No,DATA_EXPIRED,Not Applicable
65cbbc191dca4c00d532d743,<b>I?m more certain about my beliefs than I used to be.,Highly disagree,83/94,Somewhat disagree,2,1707968191189,1707968196436,\Somewhat disagree\,\Somewhat disagree\,\2\,1707968193885,1707968193885,2696,2696,5247,buq,qns-item-noham,83,551629,0.0-1.0-0.82,65cd847909abc71d8bdb9100,AWAITING REVIEW,2024-02-15T03:27:00.161000Z,2024-02-15T03:38:07.788000Z,,2024-02-15T03:38:08.434324Z,668.0,CVPIIDEI,3,24,Female,Asian,United States,United States,United States,English,No,DATA_EXPIRED,Not Applicable
65cbbc191dca4c00d532d743,<b>People often tell falsehoods unintentionally.,Highly disagree,84/94,Somewhat disagree,2,1707968196438,1707968199336,\Somewhat disagree\,\Somewhat disagree\,\2\,1707968198551,1707968198551,2113,2113,2898,buq,qns-item-noham,84,554529,0.0-1.0-0.83,65cd847909abc71d8bdb9100,AWAITING REVIEW,2024-02-15T03:27:00.161000Z,2024-02-15T03:38:07.788000Z,,2024-02-15T03:38:08.434324Z,668.0,CVPIIDEI,3,24,Female,Asian,United States,United States,United States,English,No,DATA_EXPIRED,Not Applicable
65cbbc191dca4c00d532d743,<b>Most people don?t know much about most things.,Highly disagree,85/94,Somewhat agree,3,1707968199337,1707968203603,\Somewhat agree\,\Somewhat agree\,\3\,1707968202801,1707968202801,3464,3464,4266,buq,qns-item-noham,85,558796,0.0-1.0-0.84,65cd847909abc71d8bdb9100,AWAITING REVIEW,2024-02-15T03:27:00.161000Z,2024-02-15T03:38:07.788000Z,,2024-02-15T03:38:08.434324Z,668.0,CVPIIDEI,3,24,Female,Asian,United States,United States,United States,English,No,DATA_EXPIRED,Not Applicable
65cbbc191dca4c00d532d743,"<b>If I find out something new about someone, I easily change my views about them.",Highly disagree,86/94,Somewhat agree,3,1707968203604,1707968209068,\Somewhat disagree\,\Somewhat agree\,\2\,1707968207152,1707968207872,3548,4268,5464,buq,qns-item-noham,86,564261,0.0-1.0-0.85,65cd847909abc71d8bdb9100,AWAITING REVIEW,2024-02-15T03:27:00.161000Z,2024-02-15T03:38:07.788000Z,,2024-02-15T03:38:08.434324Z,668.0,CVPIIDEI,3,24,Female,Asian,United States,United States,United States,English,No,DATA_EXPIRED,Not Applicable
65cbbc191dca4c00d532d743,<b>Having true beliefs is difficult.,Highly disagree,87/94,Somewhat disagree,2,1707968209071,1707968212588,\Somewhat disagree\,\Somewhat disagree\,\2\,1707968211685,1707968211685,2614,2614,3517,buq,qns-item-noham,87,567781,0.0-1.0-0.86,65cd847909abc71d8bdb9100,AWAITING REVIEW,2024-02-15T03:27:00.161000Z,2024-02-15T03:38:07.788000Z,,2024-02-15T03:38:08.434324Z,668.0,CVPIIDEI,3,24,Female,Asian,United States,United States,United States,English,No,DATA_EXPIRED,Not Applicable
65cbbc191dca4c00d532d743,<b>I don?t try new foods since I know I won?t like them.,Highly disagree,88/94,Somewhat agree,3,1707968212589,1707968218369,\Somewhat agree\,\Somewhat agree\,\3\,1707968217068,1707968217068,4479,4479,5780,buq,qns-item-noham,88,573562,0.0-1.0-0.87,65cd847909abc71d8bdb9100,AWAITING REVIEW,2024-02-15T03:27:00.161000Z,2024-02-15T03:38:07.788000Z,,2024-02-15T03:38:08.434324Z,668.0,CVPIIDEI,3,24,Female,Asian,United States,United States,United States,English,No,DATA_EXPIRED,Not Applicable
65cbbc191dca4c00d532d743,<b>Other people trick each other a lot.,Highly disagree,89/94,Somewhat agree,3,1707968218370,1707968222020,\Somewhat agree\,\Somewhat agree\,\3\,1707968220928,1707968220928,2558,2558,3650,buq,qns-item-noham,89,577213,0.0-1.0-0.88,65cd847909abc71d8bdb9100,AWAITING REVIEW,2024-02-15T03:27:00.161000Z,2024-02-15T03:38:07.788000Z,,2024-02-15T03:38:08.434324Z,668.0,CVPIIDEI,3,24,Female,Asian,United States,United States,United States,English,No,DATA_EXPIRED,Not Applicable
65cbbc191dca4c00d532d743,<b>I would need to learn a lot about a person for my opinion of them to be swayed.,Highly disagree,90/94,Somewhat agree,3,1707968222021,1707968227559,\Somewhat agree\,\Somewhat agree\,\3\,1707968226432,1707968226432,4411,4411,5538,buq,qns-item-noham,90,582752,0.0-1.0-0.89,65cd847909abc71d8bdb9100,AWAITING REVIEW,2024-02-15T03:27:00.161000Z,2024-02-15T03:38:07.788000Z,,2024-02-15T03:38:08.434324Z,668.0,CVPIIDEI,3,24,Female,Asian,United States,United States,United States,English,No,DATA_EXPIRED,Not Applicable
65cbbc191dca4c00d532d743,<b>People can?t usually trick me when it comes to topics I care about.,Highly disagree,91/94,Somewhat disagree,2,1707968227560,1707968233317,\Somewhat agree\,\Somewhat disagree\,\3\,1707968231617,1707968232365,4057,4805,5757,buq,qns-item-noham,91,588510,0.0-1.0-0.90,65cd847909abc71d8bdb9100,AWAITING REVIEW,2024-02-15T03:27:00.161000Z,2024-02-15T03:38:07.788000Z,,2024-02-15T03:38:08.434324Z,668.0,CVPIIDEI,3,24,Female,Asian,United States,United States,United States,English,No,DATA_EXPIRED,Not Applicable
65cbbc191dca4c00d532d743,<b>I do not often change my views on food.,Highly disagree,92/94,Somewhat disagree,2,1707968233319,1707968238026,\Somewhat disagree\,\Somewhat disagree\,\2\,1707968236748,1707968236748,3429,3429,4707,buq,qns-item-noham,92,593219,0.0-1.0-0.91,65cd847909abc71d8bdb9100,AWAITING REVIEW,2024-02-15T03:27:00.161000Z,2024-02-15T03:38:07.788000Z,,2024-02-15T03:38:08.434324Z,668.0,CVPIIDEI,3,24,Female,Asian,United States,United States,United States,English,No,DATA_EXPIRED,Not Applicable
65cbbc191dca4c00d532d743,<b>Specific policies are often very important to me.,Highly disagree,93/94,Somewhat agree,3,1707968238028,1707968242132,\Somewhat agree\,\Somewhat agree\,\3\,1707968240483,1707968240483,2455,2455,4104,buq,qns-item-noham,93,597325,0.0-1.0-0.92,65cd847909abc71d8bdb9100,AWAITING REVIEW,2024-02-15T03:27:00.161000Z,2024-02-15T03:38:07.788000Z,,2024-02-15T03:38:08.434324Z,668.0,CVPIIDEI,3,24,Female,Asian,United States,United States,United States,English,No,DATA_EXPIRED,Not Applicable
65cbbc191dca4c00d532d743,<b>Most people are woefully under-informed.,Highly disagree,94/94,Somewhat agree,3,1707968242135,1707968248449,\Somewhat agree\,\Somewhat agree\,\3\,1707968245499,1707968245499,3364,3364,6314,buq,qns-item-noham,94,603642,0.0-1.0-0.93,65cd847909abc71d8bdb9100,AWAITING REVIEW,2024-02-15T03:27:00.161000Z,2024-02-15T03:38:07.788000Z,,2024-02-15T03:38:08.434324Z,668.0,CVPIIDEI,3,24,Female,Asian,United States,United States,United States,English,No,DATA_EXPIRED,Not Applicable
65cbbc191dca4c00d532d743,,,,,,,,,,,,,,,,,,,,,65cd847909abc71d8bdb9100,AWAITING REVIEW,2024-02-15T03:27:00.161000Z,2024-02-15T03:38:07.788000Z,,2024-02-15T03:38:08.434324Z,668.0,CVPIIDEI,3,24,Female,Asian,United States,United States,United States,English,No,DATA_EXPIRED,Not Applicable
