PROLIFIC_PID,Question,qns_options,quest_num,answer,answer_num,question_load_timestamp,next_btn_timestamp,text_selected,final_text_selected,option_num_selected,preview_timestamps,final_text_selected_time_stamp,rt_first_option_click,rt_final_option_click,rt_submit_click,questionnaire,trial_type,trial_index,time_elapsed,internal_node_id,Demographic_Submission id,Demographic_Status,Demographic_Started at,Demographic_Completed at,Demographic_Reviewed at,Demographic_Archived at,Demographic_Time taken,Demographic_Completion code,Demographic_Total approvals,Demographic_Age,Demographic_Sex,Demographic_Ethnicity simplified,Demographic_Country of birth,Demographic_Country of residence,Demographic_Nationality,Demographic_Language,Demographic_Student status,Demographic_Employment status,Demographic_Custom study tncs accepted at
658301f0c304eb2e12fdcdf5,<b>Knowing what?s true and knowing what to do about it are usually basically the same.,Highly disagree,1/94,Highly disagree,1,1708004902958,1708004917652,\Highly disagree\,\Highly disagree\,\1\,1708004916725,1708004916725,13767,13767,14694,buq,qns-item-noham,1,884651,0.0-1.0-0.0,65ce10fd405641befc097189,AWAITING REVIEW,2024-02-15T13:28:13.522000Z,2024-02-15T14:20:52.434000Z,,2024-02-15T14:20:53.309982Z,3159.0,CVPIIDEI,208,32,Female,Black,United States,United States,United States,English,No,Part-Time,Not Applicable
658301f0c304eb2e12fdcdf5,<b>Most people just believe whatever is convenient for them.,Highly disagree,2/94,Somewhat agree,3,1708004917665,1708004928029,\Somewhat agree\,\Somewhat agree\,\3\,1708004926909,1708004926909,9244,9244,10364,buq,qns-item-noham,2,895028,0.0-1.0-0.1,65ce10fd405641befc097189,AWAITING REVIEW,2024-02-15T13:28:13.522000Z,2024-02-15T14:20:52.434000Z,,2024-02-15T14:20:53.309982Z,3159.0,CVPIIDEI,208,32,Female,Black,United States,United States,United States,English,No,Part-Time,Not Applicable
658301f0c304eb2e12fdcdf5,<b>Having some big beliefs helps me sort out minor ones.,Highly disagree,3/94,Highly agree,4,1708004928031,1708004949370,\Highly agree\,\Highly agree\,\4\,1708004940985,1708004940985,12954,12954,21339,buq,qns-item-noham,3,916369,0.0-1.0-0.2,65ce10fd405641befc097189,AWAITING REVIEW,2024-02-15T13:28:13.522000Z,2024-02-15T14:20:52.434000Z,,2024-02-15T14:20:53.309982Z,3159.0,CVPIIDEI,208,32,Female,Black,United States,United States,United States,English,No,Part-Time,Not Applicable
658301f0c304eb2e12fdcdf5,<b>Political questions are usually pretty complicated.,Highly disagree,4/94,Somewhat agree,3,1708004949374,1708004955313,\Somewhat agree\,\Somewhat agree\,\3\,1708004954545,1708004954545,5171,5171,5939,buq,qns-item-noham,4,922312,0.0-1.0-0.3,65ce10fd405641befc097189,AWAITING REVIEW,2024-02-15T13:28:13.522000Z,2024-02-15T14:20:52.434000Z,,2024-02-15T14:20:53.309982Z,3159.0,CVPIIDEI,208,32,Female,Black,United States,United States,United States,English,No,Part-Time,Not Applicable
658301f0c304eb2e12fdcdf5,<b>Figuring out what?s important in life requires learning a lot of facts.,Highly disagree,5/94,Highly agree,4,1708004955318,1708004961225,\Highly agree\,\Highly agree\,\4\,1708004960649,1708004960649,5331,5331,5907,buq,qns-item-noham,5,928224,0.0-1.0-0.4,65ce10fd405641befc097189,AWAITING REVIEW,2024-02-15T13:28:13.522000Z,2024-02-15T14:20:52.434000Z,,2024-02-15T14:20:53.309982Z,3159.0,CVPIIDEI,208,32,Female,Black,United States,United States,United States,English,No,Part-Time,Not Applicable
658301f0c304eb2e12fdcdf5,<b>It is difficult for me to remember the last time I was surprised by politics.,Highly disagree,6/94,Highly agree,4,1708004961227,1708004968233,\Highly agree\,\Highly agree\,\4\,1708004967337,1708004967337,6110,6110,7006,buq,qns-item-noham,6,935232,0.0-1.0-0.5,65ce10fd405641befc097189,AWAITING REVIEW,2024-02-15T13:28:13.522000Z,2024-02-15T14:20:52.434000Z,,2024-02-15T14:20:53.309982Z,3159.0,CVPIIDEI,208,32,Female,Black,United States,United States,United States,English,No,Part-Time,Not Applicable
658301f0c304eb2e12fdcdf5,<b>People?s false beliefs are understandable.,Highly disagree,7/94,Somewhat agree,3,1708004968235,1708004972649,\Somewhat agree\,\Somewhat agree\,\3\,1708004971969,1708004971969,3734,3734,4414,buq,qns-item-noham,7,939648,0.0-1.0-0.6,65ce10fd405641befc097189,AWAITING REVIEW,2024-02-15T13:28:13.522000Z,2024-02-15T14:20:52.434000Z,,2024-02-15T14:20:53.309982Z,3159.0,CVPIIDEI,208,32,Female,Black,United States,United States,United States,English,No,Part-Time,Not Applicable
658301f0c304eb2e12fdcdf5,<b>I spend a lot of time trying to be informed about politics.,Highly disagree,8/94,Somewhat agree,3,1708004972651,1708004976609,\Somewhat agree\,\Somewhat agree\,\3\,1708004976105,1708004976105,3454,3454,3958,buq,qns-item-noham,8,943608,0.0-1.0-0.7,65ce10fd405641befc097189,AWAITING REVIEW,2024-02-15T13:28:13.522000Z,2024-02-15T14:20:52.434000Z,,2024-02-15T14:20:53.309982Z,3159.0,CVPIIDEI,208,32,Female,Black,United States,United States,United States,English,No,Part-Time,Not Applicable
658301f0c304eb2e12fdcdf5,<b>I think a lot about whether my beliefs are right.,Highly disagree,9/94,Somewhat agree,3,1708004976613,1708005164917,\Somewhat agree\,\Somewhat agree\,\3\,1708005160789,1708005160789,184176,184176,188304,buq,qns-item-noham,9,1131916,0.0-1.0-0.8,65ce10fd405641befc097189,AWAITING REVIEW,2024-02-15T13:28:13.522000Z,2024-02-15T14:20:52.434000Z,,2024-02-15T14:20:53.309982Z,3159.0,CVPIIDEI,208,32,Female,Black,United States,United States,United States,English,No,Part-Time,Not Applicable
658301f0c304eb2e12fdcdf5,<b>Statistics can be pretty misleading sometimes.,Highly disagree,10/94,Somewhat disagree,2,1708005164920,1708005169126,\Somewhat disagree\,\Somewhat disagree\,\2\,1708005168709,1708005168709,3789,3789,4206,buq,qns-item-noham,10,1136125,0.0-1.0-0.9,65ce10fd405641befc097189,AWAITING REVIEW,2024-02-15T13:28:13.522000Z,2024-02-15T14:20:52.434000Z,,2024-02-15T14:20:53.309982Z,3159.0,CVPIIDEI,208,32,Female,Black,United States,United States,United States,English,No,Part-Time,Not Applicable
658301f0c304eb2e12fdcdf5,<b>I have lots of beliefs that I?m only sort of sure about.,Highly disagree,11/94,Somewhat disagree,2,1708005169128,1708005173300,\Somewhat disagree\,\Somewhat disagree\,\2\,1708005172789,1708005172789,3661,3661,4172,buq,qns-item-noham,11,1140299,0.0-1.0-0.10,65ce10fd405641befc097189,AWAITING REVIEW,2024-02-15T13:28:13.522000Z,2024-02-15T14:20:52.434000Z,,2024-02-15T14:20:53.309982Z,3159.0,CVPIIDEI,208,32,Female,Black,United States,United States,United States,English,No,Part-Time,Not Applicable
658301f0c304eb2e12fdcdf5,"<b>If I go to my favorite restaurant and the food is surprisingly bad, it reminds me there are many disappointments in life.",Highly disagree,12/94,Somewhat disagree,2,1708005173302,1708005180957,\Somewhat disagree\,\Somewhat disagree\,\2\,1708005180045,1708005180045,6743,6743,7655,buq,qns-item-noham,12,1147956,0.0-1.0-0.11,65ce10fd405641befc097189,AWAITING REVIEW,2024-02-15T13:28:13.522000Z,2024-02-15T14:20:52.434000Z,,2024-02-15T14:20:53.309982Z,3159.0,CVPIIDEI,208,32,Female,Black,United States,United States,United States,English,No,Part-Time,Not Applicable
658301f0c304eb2e12fdcdf5,"<b>If you are paying attention, please select ?Somewhat agree?",Highly disagree,13/94,Somewhat agree,3,1708005180960,1708005189373,\Somewhat agree\,\Somewhat agree\,\3\,1708005183933,1708005188421,2973,7461,8413,buq,qns-item-noham,13,1156372,0.0-1.0-0.12,65ce10fd405641befc097189,AWAITING REVIEW,2024-02-15T13:28:13.522000Z,2024-02-15T14:20:52.434000Z,,2024-02-15T14:20:53.309982Z,3159.0,CVPIIDEI,208,32,Female,Black,United States,United States,United States,English,No,Part-Time,Not Applicable
658301f0c304eb2e12fdcdf5,"<b>When I talk to others, I often worry I?ll convince them of something I didn?t mean to.",Highly disagree,14/94,Somewhat disagree,2,1708005189376,1708005196460,\Somewhat disagree\,\Somewhat disagree\,\2\,1708005195821,1708005195821,6445,6445,7084,buq,qns-item-noham,14,1163459,0.0-1.0-0.13,65ce10fd405641befc097189,AWAITING REVIEW,2024-02-15T13:28:13.522000Z,2024-02-15T14:20:52.434000Z,,2024-02-15T14:20:53.309982Z,3159.0,CVPIIDEI,208,32,Female,Black,United States,United States,United States,English,No,Part-Time,Not Applicable
658301f0c304eb2e12fdcdf5,<b>I would need to learn something utterly shocking about my party in order to change my political views.,Highly disagree,15/94,Highly agree,4,1708005196461,1708005204613,\Highly agree\,\Highly agree\,\4\,1708005202565,1708005202565,6104,6104,8152,buq,qns-item-noham,15,1171612,0.0-1.0-0.14,65ce10fd405641befc097189,AWAITING REVIEW,2024-02-15T13:28:13.522000Z,2024-02-15T14:20:52.434000Z,,2024-02-15T14:20:53.309982Z,3159.0,CVPIIDEI,208,32,Female,Black,United States,United States,United States,English,No,Part-Time,Not Applicable
658301f0c304eb2e12fdcdf5,"<b>When I have new experiences, I tend to think of them as unique.",Highly disagree,16/94,Somewhat agree,3,1708005204616,1708005211157,\Somewhat disagree\,\Somewhat agree\,\2\,1708005209429,1708005210709,4813,6093,6541,buq,qns-item-noham,16,1178156,0.0-1.0-0.15,65ce10fd405641befc097189,AWAITING REVIEW,2024-02-15T13:28:13.522000Z,2024-02-15T14:20:52.434000Z,,2024-02-15T14:20:53.309982Z,3159.0,CVPIIDEI,208,32,Female,Black,United States,United States,United States,English,No,Part-Time,Not Applicable
658301f0c304eb2e12fdcdf5,<b>I change my mind about specific policies pretty frequently.,Highly disagree,17/94,Somewhat disagree,2,1708005211159,1708005217276,\Somewhat disagree\,\Somewhat disagree\,\2\,1708005216717,1708005216717,5558,5558,6117,buq,qns-item-noham,17,1184275,0.0-1.0-0.16,65ce10fd405641befc097189,AWAITING REVIEW,2024-02-15T13:28:13.522000Z,2024-02-15T14:20:52.434000Z,,2024-02-15T14:20:53.309982Z,3159.0,CVPIIDEI,208,32,Female,Black,United States,United States,United States,English,No,Part-Time,Not Applicable
658301f0c304eb2e12fdcdf5,"<b>If a politician in my political party supports something I disagree with, I give them the benefit of the doubt, as such issues often involve hidden complexities that aren?t obvious.   ",Highly disagree,18/94,Highly disagree,1,1708005217277,1708005223868,\Highly disagree\,\Highly disagree\,\1\,1708005223069,1708005223069,5792,5792,6591,buq,qns-item-noham,18,1190867,0.0-1.0-0.17,65ce10fd405641befc097189,AWAITING REVIEW,2024-02-15T13:28:13.522000Z,2024-02-15T14:20:52.434000Z,,2024-02-15T14:20:53.309982Z,3159.0,CVPIIDEI,208,32,Female,Black,United States,United States,United States,English,No,Part-Time,Not Applicable
658301f0c304eb2e12fdcdf5,<b>People?s bad politics are usually motivated by hatefulness.,Highly disagree,19/94,Highly agree,4,1708005223871,1708005227604,\Highly agree\,\Highly agree\,\4\,1708005226997,1708005226997,3126,3126,3733,buq,qns-item-noham,19,1194603,0.0-1.0-0.18,65ce10fd405641befc097189,AWAITING REVIEW,2024-02-15T13:28:13.522000Z,2024-02-15T14:20:52.434000Z,,2024-02-15T14:20:53.309982Z,3159.0,CVPIIDEI,208,32,Female,Black,United States,United States,United States,English,No,Part-Time,Not Applicable
658301f0c304eb2e12fdcdf5,<b>I think a lot about how to reconcile my beliefs with one another.,Highly disagree,20/94,Highly agree,4,1708005227605,1708005233572,\Highly agree\,\Highly agree\,\4\,1708005232684,1708005232684,5079,5079,5967,buq,qns-item-noham,20,1200571,0.0-1.0-0.19,65ce10fd405641befc097189,AWAITING REVIEW,2024-02-15T13:28:13.522000Z,2024-02-15T14:20:52.434000Z,,2024-02-15T14:20:53.309982Z,3159.0,CVPIIDEI,208,32,Female,Black,United States,United States,United States,English,No,Part-Time,Not Applicable
658301f0c304eb2e12fdcdf5,<b>I might have false beliefs about important topics.,Highly disagree,21/94,Highly disagree,1,1708005233574,1708005238284,\Highly disagree\,\Highly disagree\,\1\,1708005237797,1708005237797,4223,4223,4710,buq,qns-item-noham,21,1205283,0.0-1.0-0.20,65ce10fd405641befc097189,AWAITING REVIEW,2024-02-15T13:28:13.522000Z,2024-02-15T14:20:52.434000Z,,2024-02-15T14:20:53.309982Z,3159.0,CVPIIDEI,208,32,Female,Black,United States,United States,United States,English,No,Part-Time,Not Applicable
658301f0c304eb2e12fdcdf5,"<b>If a good friend of mine does something unexpected that upsets me, I feel like I don?t know them anymore.",Highly disagree,22/94,Somewhat disagree,2,1708005238285,1708005243731,\Somewhat disagree\,\Somewhat disagree\,\2\,1708005243212,1708005243212,4927,4927,5446,buq,qns-item-noham,22,1210730,0.0-1.0-0.21,65ce10fd405641befc097189,AWAITING REVIEW,2024-02-15T13:28:13.522000Z,2024-02-15T14:20:52.434000Z,,2024-02-15T14:20:53.309982Z,3159.0,CVPIIDEI,208,32,Female,Black,United States,United States,United States,English,No,Part-Time,Not Applicable
658301f0c304eb2e12fdcdf5,<b>Other people?s beliefs are often incoherent.,Highly disagree,23/94,Somewhat disagree,2,1708005243732,1708005247819,\Somewhat disagree\,\Somewhat disagree\,\2\,1708005247309,1708005247309,3577,3577,4087,buq,qns-item-noham,23,1214818,0.0-1.0-0.22,65ce10fd405641befc097189,AWAITING REVIEW,2024-02-15T13:28:13.522000Z,2024-02-15T14:20:52.434000Z,,2024-02-15T14:20:53.309982Z,3159.0,CVPIIDEI,208,32,Female,Black,United States,United States,United States,English,No,Part-Time,Not Applicable
658301f0c304eb2e12fdcdf5,"<b>Every now and then, a new experience will unsettle beliefs I?ve had for a while.",Highly disagree,24/94,Highly agree,4,1708005247821,1708005252459,\Highly agree\,\Highly agree\,\4\,1708005251741,1708005251741,3920,3920,4638,buq,qns-item-noham,24,1219458,0.0-1.0-0.23,65ce10fd405641befc097189,AWAITING REVIEW,2024-02-15T13:28:13.522000Z,2024-02-15T14:20:52.434000Z,,2024-02-15T14:20:53.309982Z,3159.0,CVPIIDEI,208,32,Female,Black,United States,United States,United States,English,No,Part-Time,Not Applicable
658301f0c304eb2e12fdcdf5,<b>Some policies I agree with in principle are so bad I don?t support them. ,Highly disagree,25/94,Somewhat disagree,2,1708005252461,1708005264468,\Somewhat disagree\,\Somewhat disagree\,\2\,1708005262500,1708005262500,10039,10039,12007,buq,qns-item-noham,25,1231467,0.0-1.0-0.24,65ce10fd405641befc097189,AWAITING REVIEW,2024-02-15T13:28:13.522000Z,2024-02-15T14:20:52.434000Z,,2024-02-15T14:20:53.309982Z,3159.0,CVPIIDEI,208,32,Female,Black,United States,United States,United States,English,No,Part-Time,Not Applicable
658301f0c304eb2e12fdcdf5,<b>I?m pretty sure I?ve accidentally spread false information.,Highly disagree,26/94,Highly disagree,1,1708005264471,1708005269108,\Somewhat agree\,\Highly disagree\,\3\,1708005267452,1708005268588,2981,4117,4637,buq,qns-item-noham,26,1236107,0.0-1.0-0.25,65ce10fd405641befc097189,AWAITING REVIEW,2024-02-15T13:28:13.522000Z,2024-02-15T14:20:52.434000Z,,2024-02-15T14:20:53.309982Z,3159.0,CVPIIDEI,208,32,Female,Black,United States,United States,United States,English,No,Part-Time,Not Applicable
658301f0c304eb2e12fdcdf5,"<b>If I go to my favorite restaurant and the food is unexpectedly bad, then they have changed owners.",Highly disagree,27/94,Somewhat disagree,2,1708005269111,1708005274500,\Somewhat disagree\,\Somewhat disagree\,\2\,1708005273924,1708005273924,4813,4813,5389,buq,qns-item-noham,27,1241499,0.0-1.0-0.26,65ce10fd405641befc097189,AWAITING REVIEW,2024-02-15T13:28:13.522000Z,2024-02-15T14:20:52.434000Z,,2024-02-15T14:20:53.309982Z,3159.0,CVPIIDEI,208,32,Female,Black,United States,United States,United States,English,No,Part-Time,Not Applicable
658301f0c304eb2e12fdcdf5,"<b>In politics, it?s important to trust your friends and family.",Highly disagree,28/94,Somewhat agree,3,1708005274502,1708005278876,\Somewhat agree\,\Somewhat agree\,\3\,1708005278228,1708005278228,3726,3726,4374,buq,qns-item-noham,28,1245875,0.0-1.0-0.27,65ce10fd405641befc097189,AWAITING REVIEW,2024-02-15T13:28:13.522000Z,2024-02-15T14:20:52.434000Z,,2024-02-15T14:20:53.309982Z,3159.0,CVPIIDEI,208,32,Female,Black,United States,United States,United States,English,No,Part-Time,Not Applicable
658301f0c304eb2e12fdcdf5,<b>It?s OK to have some conflicting beliefs.,Highly disagree,29/94,Somewhat agree,3,1708005278877,1708005282524,\Somewhat agree\,\Somewhat agree\,\3\,1708005281612,1708005281612,2735,2735,3647,buq,qns-item-noham,29,1249523,0.0-1.0-0.28,65ce10fd405641befc097189,AWAITING REVIEW,2024-02-15T13:28:13.522000Z,2024-02-15T14:20:52.434000Z,,2024-02-15T14:20:53.309982Z,3159.0,CVPIIDEI,208,32,Female,Black,United States,United States,United States,English,No,Part-Time,Not Applicable
658301f0c304eb2e12fdcdf5,<b>Listening to people I disagree with makes my opinions better.,Highly disagree,30/94,Somewhat disagree,2,1708005282526,1708005290364,\Somewhat disagree\,\Somewhat disagree\,\2\,1708005289388,1708005289388,6862,6862,7838,buq,qns-item-noham,30,1257363,0.0-1.0-0.29,65ce10fd405641befc097189,AWAITING REVIEW,2024-02-15T13:28:13.522000Z,2024-02-15T14:20:52.434000Z,,2024-02-15T14:20:53.309982Z,3159.0,CVPIIDEI,208,32,Female,Black,United States,United States,United States,English,No,Part-Time,Not Applicable
658301f0c304eb2e12fdcdf5,<b>My moral compass sometimes makes it harder to determine what?s true.,Highly disagree,31/94,Highly disagree,1,1708005290367,1708005296380,\Highly disagree\,\Highly disagree\,\1\,1708005295917,1708005295917,5550,5550,6013,buq,qns-item-noham,31,1263379,0.0-1.0-0.30,65ce10fd405641befc097189,AWAITING REVIEW,2024-02-15T13:28:13.522000Z,2024-02-15T14:20:52.434000Z,,2024-02-15T14:20:53.309982Z,3159.0,CVPIIDEI,208,32,Female,Black,United States,United States,United States,English,No,Part-Time,Not Applicable
658301f0c304eb2e12fdcdf5,<b>Evidence pointing in the wrong direction isn?t really evidence at all.,Highly disagree,32/94,Somewhat agree,3,1708005296383,1708005306340,\Somewhat agree\,\Somewhat agree\,\3\,1708005305589,1708005305589,9206,9206,9957,buq,qns-item-noham,32,1273339,0.0-1.0-0.31,65ce10fd405641befc097189,AWAITING REVIEW,2024-02-15T13:28:13.522000Z,2024-02-15T14:20:52.434000Z,,2024-02-15T14:20:53.309982Z,3159.0,CVPIIDEI,208,32,Female,Black,United States,United States,United States,English,No,Part-Time,Not Applicable
658301f0c304eb2e12fdcdf5,"<b>If the political party I support messes up, it makes me think politics is rotten.",Highly disagree,33/94,Somewhat agree,3,1708005306341,1708005313893,\Somewhat agree\,\Somewhat agree\,\3\,1708005311613,1708005311613,5272,5272,7552,buq,qns-item-noham,33,1280892,0.0-1.0-0.32,65ce10fd405641befc097189,AWAITING REVIEW,2024-02-15T13:28:13.522000Z,2024-02-15T14:20:52.434000Z,,2024-02-15T14:20:53.309982Z,3159.0,CVPIIDEI,208,32,Female,Black,United States,United States,United States,English,No,Part-Time,Not Applicable
658301f0c304eb2e12fdcdf5,<b>Lots of important topics can only really be understood by some groups of people.,Highly disagree,34/94,Somewhat disagree,2,1708005313897,1708005320957,\Somewhat disagree\,\Somewhat disagree\,\2\,1708005320414,1708005320414,6517,6517,7060,buq,qns-item-noham,34,1287956,0.0-1.0-0.33,65ce10fd405641befc097189,AWAITING REVIEW,2024-02-15T13:28:13.522000Z,2024-02-15T14:20:52.434000Z,,2024-02-15T14:20:53.309982Z,3159.0,CVPIIDEI,208,32,Female,Black,United States,United States,United States,English,No,Part-Time,Not Applicable
658301f0c304eb2e12fdcdf5,<b>Having conflicting beliefs means you haven?t thought about them enough.,Highly disagree,35/94,Somewhat disagree,2,1708005320958,1708005326581,\Somewhat disagree\,\Somewhat disagree\,\2\,1708005326037,1708005326037,5079,5079,5623,buq,qns-item-noham,35,1293580,0.0-1.0-0.34,65ce10fd405641befc097189,AWAITING REVIEW,2024-02-15T13:28:13.522000Z,2024-02-15T14:20:52.434000Z,,2024-02-15T14:20:53.309982Z,3159.0,CVPIIDEI,208,32,Female,Black,United States,United States,United States,English,No,Part-Time,Not Applicable
658301f0c304eb2e12fdcdf5,<b>I do not often change my political opinions.,Highly disagree,36/94,Somewhat agree,3,1708005326582,1708005333277,\Somewhat agree\,\Somewhat agree\,\3\,1708005332621,1708005332621,6039,6039,6695,buq,qns-item-noham,36,1300276,0.0-1.0-0.35,65ce10fd405641befc097189,AWAITING REVIEW,2024-02-15T13:28:13.522000Z,2024-02-15T14:20:52.434000Z,,2024-02-15T14:20:53.309982Z,3159.0,CVPIIDEI,208,32,Female,Black,United States,United States,United States,English,No,Part-Time,Not Applicable
658301f0c304eb2e12fdcdf5,<b>It?s difficult to not have at least some conflicting beliefs.,Highly disagree,37/94,Somewhat agree,3,1708005333280,1708005337109,\Somewhat agree\,\Somewhat agree\,\3\,1708005336549,1708005336549,3269,3269,3829,buq,qns-item-noham,37,1304108,0.0-1.0-0.36,65ce10fd405641befc097189,AWAITING REVIEW,2024-02-15T13:28:13.522000Z,2024-02-15T14:20:52.434000Z,,2024-02-15T14:20:53.309982Z,3159.0,CVPIIDEI,208,32,Female,Black,United States,United States,United States,English,No,Part-Time,Not Applicable
658301f0c304eb2e12fdcdf5,<b>Wishful thinking causes a lot of problems.,Highly disagree,38/94,Somewhat agree,3,1708005337111,1708005343197,\Somewhat agree\,\Somewhat agree\,\3\,1708005342669,1708005342669,5558,5558,6086,buq,qns-item-noham,38,1310196,0.0-1.0-0.37,65ce10fd405641befc097189,AWAITING REVIEW,2024-02-15T13:28:13.522000Z,2024-02-15T14:20:52.434000Z,,2024-02-15T14:20:53.309982Z,3159.0,CVPIIDEI,208,32,Female,Black,United States,United States,United States,English,No,Part-Time,Not Applicable
658301f0c304eb2e12fdcdf5,<b>I judge a food item only once I try it many times.,Highly disagree,39/94,Highly agree,4,1708005343199,1708005357973,\Highly agree\,\Highly agree\,\4\,1708005357381,1708005357381,14182,14182,14774,buq,qns-item-noham,39,1324972,0.0-1.0-0.38,65ce10fd405641befc097189,AWAITING REVIEW,2024-02-15T13:28:13.522000Z,2024-02-15T14:20:52.434000Z,,2024-02-15T14:20:53.309982Z,3159.0,CVPIIDEI,208,32,Female,Black,United States,United States,United States,English,No,Part-Time,Not Applicable
658301f0c304eb2e12fdcdf5,"<b>When a person holds conflicting beliefs, they should really try to figure out what?s wrong.",Highly disagree,40/94,Somewhat agree,3,1708005357974,1708005366627,\Somewhat agree\,\Somewhat agree\,\3\,1708005366140,1708005366140,8166,8166,8653,buq,qns-item-noham,40,1333626,0.0-1.0-0.39,65ce10fd405641befc097189,AWAITING REVIEW,2024-02-15T13:28:13.522000Z,2024-02-15T14:20:52.434000Z,,2024-02-15T14:20:53.309982Z,3159.0,CVPIIDEI,208,32,Female,Black,United States,United States,United States,English,No,Part-Time,Not Applicable
658301f0c304eb2e12fdcdf5,<b>Knowing what?s important in life is easy.,Highly disagree,41/94,Highly disagree,1,1708005366629,1708005371139,\Highly disagree\,\Highly disagree\,\1\,1708005370388,1708005370388,3759,3759,4510,buq,qns-item-noham,41,1338138,0.0-1.0-0.40,65ce10fd405641befc097189,AWAITING REVIEW,2024-02-15T13:28:13.522000Z,2024-02-15T14:20:52.434000Z,,2024-02-15T14:20:53.309982Z,3159.0,CVPIIDEI,208,32,Female,Black,United States,United States,United States,English,No,Part-Time,Not Applicable
658301f0c304eb2e12fdcdf5,<b>I swim across the Atlantic Ocean to get to work every day.,Highly disagree,42/94,Highly disagree,1,1708005371140,1708005387517,\Highly disagree\,\Highly disagree\,\1\,1708005376388,1708005386468,5248,15328,16377,buq,qns-item-noham,42,1354516,0.0-1.0-0.41,65ce10fd405641befc097189,AWAITING REVIEW,2024-02-15T13:28:13.522000Z,2024-02-15T14:20:52.434000Z,,2024-02-15T14:20:53.309982Z,3159.0,CVPIIDEI,208,32,Female,Black,United States,United States,United States,English,No,Part-Time,Not Applicable
658301f0c304eb2e12fdcdf5,"<b>Sometimes, you just have to ignore evidence that you know is wrong.",Highly disagree,43/94,Somewhat disagree,2,1708005387520,1708005399883,\Somewhat disagree\,\Somewhat disagree\,\2\,1708005399100,1708005399100,11580,11580,12363,buq,qns-item-noham,43,1366882,0.0-1.0-0.42,65ce10fd405641befc097189,AWAITING REVIEW,2024-02-15T13:28:13.522000Z,2024-02-15T14:20:52.434000Z,,2024-02-15T14:20:53.309982Z,3159.0,CVPIIDEI,208,32,Female,Black,United States,United States,United States,English,No,Part-Time,Not Applicable
658301f0c304eb2e12fdcdf5,<b>I have had some false beliefs.,Highly disagree,44/94,Somewhat disagree,2,1708005399885,1708005404364,\Somewhat disagree\,\Somewhat disagree\,\2\,1708005403476,1708005403476,3591,3591,4479,buq,qns-item-noham,44,1371363,0.0-1.0-0.43,65ce10fd405641befc097189,AWAITING REVIEW,2024-02-15T13:28:13.522000Z,2024-02-15T14:20:52.434000Z,,2024-02-15T14:20:53.309982Z,3159.0,CVPIIDEI,208,32,Female,Black,United States,United States,United States,English,No,Part-Time,Not Applicable
658301f0c304eb2e12fdcdf5,"<b>If one friend does something that upsets me, I sometimes start to distrust people in general.",Highly disagree,45/94,Highly disagree,1,1708005404365,1708005415485,\Highly disagree\,\Highly disagree\,\1\,1708005414212,1708005414212,9847,9847,11120,buq,qns-item-noham,45,1382484,0.0-1.0-0.44,65ce10fd405641befc097189,AWAITING REVIEW,2024-02-15T13:28:13.522000Z,2024-02-15T14:20:52.434000Z,,2024-02-15T14:20:53.309982Z,3159.0,CVPIIDEI,208,32,Female,Black,United States,United States,United States,English,No,Part-Time,Not Applicable
658301f0c304eb2e12fdcdf5,<b>The facts about most important matters are easy to find.,Highly disagree,46/94,Highly agree,4,1708005415487,1708005428853,\Highly agree\,\Highly agree\,\4\,1708005428117,1708005428117,12630,12630,13366,buq,qns-item-noham,46,1395852,0.0-1.0-0.45,65ce10fd405641befc097189,AWAITING REVIEW,2024-02-15T13:28:13.522000Z,2024-02-15T14:20:52.434000Z,,2024-02-15T14:20:53.309982Z,3159.0,CVPIIDEI,208,32,Female,Black,United States,United States,United States,English,No,Part-Time,Not Applicable
658301f0c304eb2e12fdcdf5,<b>It?s better to know what?s true than to know what?s moral.,Highly disagree,47/94,Somewhat agree,3,1708005428858,1708005434517,\Somewhat agree\,\Somewhat agree\,\3\,1708005433533,1708005433533,4675,4675,5659,buq,qns-item-noham,47,1401516,0.0-1.0-0.46,65ce10fd405641befc097189,AWAITING REVIEW,2024-02-15T13:28:13.522000Z,2024-02-15T14:20:52.434000Z,,2024-02-15T14:20:53.309982Z,3159.0,CVPIIDEI,208,32,Female,Black,United States,United States,United States,English,No,Part-Time,Not Applicable
658301f0c304eb2e12fdcdf5,<b>I used to think the world was less complicated than I do now.,Highly disagree,48/94,Somewhat disagree,2,1708005434520,1708005440564,\Somewhat disagree\,\Somewhat disagree\,\2\,1708005440013,1708005440013,5493,5493,6044,buq,qns-item-noham,48,1407563,0.0-1.0-0.47,65ce10fd405641befc097189,AWAITING REVIEW,2024-02-15T13:28:13.522000Z,2024-02-15T14:20:52.434000Z,,2024-02-15T14:20:53.309982Z,3159.0,CVPIIDEI,208,32,Female,Black,United States,United States,United States,English,No,Part-Time,Not Applicable
658301f0c304eb2e12fdcdf5,<b>People are usually completely right or completely wrong.,Highly disagree,49/94,Highly disagree,1,1708005440566,1708005444397,\Highly disagree\,\Highly disagree\,\1\,1708005443773,1708005443773,3207,3207,3831,buq,qns-item-noham,49,1411396,0.0-1.0-0.48,65ce10fd405641befc097189,AWAITING REVIEW,2024-02-15T13:28:13.522000Z,2024-02-15T14:20:52.434000Z,,2024-02-15T14:20:53.309982Z,3159.0,CVPIIDEI,208,32,Female,Black,United States,United States,United States,English,No,Part-Time,Not Applicable
658301f0c304eb2e12fdcdf5,<b>I spend a lot of time considering alternatives to my beliefs.,Highly disagree,50/94,Somewhat disagree,2,1708005444398,1708005451173,\Somewhat disagree\,\Somewhat disagree\,\2\,1708005450333,1708005450333,5935,5935,6775,buq,qns-item-noham,50,1418172,0.0-1.0-0.49,65ce10fd405641befc097189,AWAITING REVIEW,2024-02-15T13:28:13.522000Z,2024-02-15T14:20:52.434000Z,,2024-02-15T14:20:53.309982Z,3159.0,CVPIIDEI,208,32,Female,Black,United States,United States,United States,English,No,Part-Time,Not Applicable
658301f0c304eb2e12fdcdf5,"<b>Political enemies need to be defeated, not convinced.",Highly disagree,51/94,Highly disagree,1,1708005451175,1708005460421,\Highly disagree\,\Highly disagree\,\1\,1708005458181,1708005458181,7006,7006,9246,buq,qns-item-noham,51,1427420,0.0-1.0-0.50,65ce10fd405641befc097189,AWAITING REVIEW,2024-02-15T13:28:13.522000Z,2024-02-15T14:20:52.434000Z,,2024-02-15T14:20:53.309982Z,3159.0,CVPIIDEI,208,32,Female,Black,United States,United States,United States,English,No,Part-Time,Not Applicable
658301f0c304eb2e12fdcdf5,<b>I form my political views only after meticulously gathering historical and present information about their policies.,Highly disagree,52/94,Highly agree,4,1708005460424,1708005860997,\Highly agree\,\Highly agree\,\4\,1708005857837,1708005857837,397413,397413,400573,buq,qns-item-noham,52,1827996,0.0-1.0-0.51,65ce10fd405641befc097189,AWAITING REVIEW,2024-02-15T13:28:13.522000Z,2024-02-15T14:20:52.434000Z,,2024-02-15T14:20:53.309982Z,3159.0,CVPIIDEI,208,32,Female,Black,United States,United States,United States,English,No,Part-Time,Not Applicable
658301f0c304eb2e12fdcdf5,<b>It is difficult for me to remember the last time I was surprised by politics.,Highly disagree,53/94,Highly agree,4,1708005861000,1708005867294,\Highly agree\,\Highly agree\,\4\,1708005864877,1708005864877,3877,3877,6294,buq,qns-item-noham,53,1834293,0.0-1.0-0.52,65ce10fd405641befc097189,AWAITING REVIEW,2024-02-15T13:28:13.522000Z,2024-02-15T14:20:52.434000Z,,2024-02-15T14:20:53.309982Z,3159.0,CVPIIDEI,208,32,Female,Black,United States,United States,United States,English,No,Part-Time,Not Applicable
658301f0c304eb2e12fdcdf5,"<b>When I find out I?m wrong, I think a lot about my related beliefs.",Highly disagree,54/94,Highly agree,4,1708005867296,1708005872429,\Highly agree\,\Highly agree\,\4\,1708005871837,1708005871837,4541,4541,5133,buq,qns-item-noham,54,1839428,0.0-1.0-0.53,65ce10fd405641befc097189,AWAITING REVIEW,2024-02-15T13:28:13.522000Z,2024-02-15T14:20:52.434000Z,,2024-02-15T14:20:53.309982Z,3159.0,CVPIIDEI,208,32,Female,Black,United States,United States,United States,English,No,Part-Time,Not Applicable
658301f0c304eb2e12fdcdf5,"<b>If the political party I support messes up, it makes me think you can?t trust anyone these days",Highly disagree,55/94,Highly disagree,1,1708005872431,1708005877620,\Somewhat disagree\,\Highly disagree\,\2\,1708005876517,1708005876980,4086,4549,5189,buq,qns-item-noham,55,1844619,0.0-1.0-0.54,65ce10fd405641befc097189,AWAITING REVIEW,2024-02-15T13:28:13.522000Z,2024-02-15T14:20:52.434000Z,,2024-02-15T14:20:53.309982Z,3159.0,CVPIIDEI,208,32,Female,Black,United States,United States,United States,English,No,Part-Time,Not Applicable
658301f0c304eb2e12fdcdf5,<b>People?s brains turn off when they talk about politics.,Highly disagree,56/94,Highly disagree,1,1708005877622,1708005882421,\Highly disagree\,\Highly disagree\,\1\,1708005881293,1708005881293,3671,3671,4799,buq,qns-item-noham,56,1849420,0.0-1.0-0.55,65ce10fd405641befc097189,AWAITING REVIEW,2024-02-15T13:28:13.522000Z,2024-02-15T14:20:52.434000Z,,2024-02-15T14:20:53.309982Z,3159.0,CVPIIDEI,208,32,Female,Black,United States,United States,United States,English,No,Part-Time,Not Applicable
658301f0c304eb2e12fdcdf5,<b>People who are wrong are usually just ignoring the obvious.,Highly disagree,57/94,Highly disagree,1,1708005882424,1708005887836,\Highly disagree\,\Highly disagree\,\1\,1708005887029,1708005887029,4605,4605,5412,buq,qns-item-noham,57,1854835,0.0-1.0-0.56,65ce10fd405641befc097189,AWAITING REVIEW,2024-02-15T13:28:13.522000Z,2024-02-15T14:20:52.434000Z,,2024-02-15T14:20:53.309982Z,3159.0,CVPIIDEI,208,32,Female,Black,United States,United States,United States,English,No,Part-Time,Not Applicable
658301f0c304eb2e12fdcdf5,"<b>When forming my views on people, I rely more on what they are like now rather than rely on my past experience with them.",Highly disagree,58/94,Somewhat agree,3,1708005887838,1708006281949,\Somewhat agree\,\Somewhat agree\,\3\,1708006281214,1708006281214,393376,393376,394111,buq,qns-item-noham,58,2248948,0.0-1.0-0.57,65ce10fd405641befc097189,AWAITING REVIEW,2024-02-15T13:28:13.522000Z,2024-02-15T14:20:52.434000Z,,2024-02-15T14:20:53.309982Z,3159.0,CVPIIDEI,208,32,Female,Black,United States,United States,United States,English,No,Part-Time,Not Applicable
658301f0c304eb2e12fdcdf5,"<b>When people contradict my beliefs, I usually know about their evidence already.",Highly disagree,59/94,Somewhat disagree,2,1708006281950,1708006327669,\Somewhat disagree\,\Somewhat disagree\,\2\,1708006326678,1708006326678,44728,44728,45719,buq,qns-item-noham,59,2294668,0.0-1.0-0.58,65ce10fd405641befc097189,AWAITING REVIEW,2024-02-15T13:28:13.522000Z,2024-02-15T14:20:52.434000Z,,2024-02-15T14:20:53.309982Z,3159.0,CVPIIDEI,208,32,Female,Black,United States,United States,United States,English,No,Part-Time,Not Applicable
658301f0c304eb2e12fdcdf5,<b>Figuring out what?s true and what?s false mainly requires a strong moral compass.,Highly disagree,60/94,Highly agree,4,1708006327671,1708006333221,\Highly agree\,\Highly agree\,\4\,1708006332286,1708006332286,4615,4615,5550,buq,qns-item-noham,60,2300220,0.0-1.0-0.59,65ce10fd405641befc097189,AWAITING REVIEW,2024-02-15T13:28:13.522000Z,2024-02-15T14:20:52.434000Z,,2024-02-15T14:20:53.309982Z,3159.0,CVPIIDEI,208,32,Female,Black,United States,United States,United States,English,No,Part-Time,Not Applicable
658301f0c304eb2e12fdcdf5,"<b>Usually I?m wrong about simple things, not complicated ones.",Highly disagree,61/94,Somewhat disagree,2,1708006333223,1708006340405,\Somewhat disagree\,\Somewhat disagree\,\2\,1708006339661,1708006339661,6438,6438,7182,buq,qns-item-noham,61,2307404,0.0-1.0-0.60,65ce10fd405641befc097189,AWAITING REVIEW,2024-02-15T13:28:13.522000Z,2024-02-15T14:20:52.434000Z,,2024-02-15T14:20:53.309982Z,3159.0,CVPIIDEI,208,32,Female,Black,United States,United States,United States,English,No,Part-Time,Not Applicable
658301f0c304eb2e12fdcdf5,<b>Getting all the information I want about important things is hard.,Highly disagree,62/94,Highly disagree,1,1708006340406,1708006344861,\Highly disagree\,\Highly disagree\,\1\,1708006344245,1708006344245,3839,3839,4455,buq,qns-item-noham,62,2311860,0.0-1.0-0.61,65ce10fd405641befc097189,AWAITING REVIEW,2024-02-15T13:28:13.522000Z,2024-02-15T14:20:52.434000Z,,2024-02-15T14:20:53.309982Z,3159.0,CVPIIDEI,208,32,Female,Black,United States,United States,United States,English,No,Part-Time,Not Applicable
658301f0c304eb2e12fdcdf5,<b>Most false beliefs spread because people try to deceive one another.,Highly disagree,63/94,Highly agree,4,1708006344862,1708006350141,\Highly agree\,\Highly agree\,\4\,1708006349589,1708006349589,4727,4727,5279,buq,qns-item-noham,63,2317140,0.0-1.0-0.62,65ce10fd405641befc097189,AWAITING REVIEW,2024-02-15T13:28:13.522000Z,2024-02-15T14:20:52.434000Z,,2024-02-15T14:20:53.309982Z,3159.0,CVPIIDEI,208,32,Female,Black,United States,United States,United States,English,No,Part-Time,Not Applicable
658301f0c304eb2e12fdcdf5,<b>I can usually find something to agree with in most people?s beliefs.,Highly disagree,64/94,Somewhat disagree,2,1708006350142,1708006355925,\Somewhat disagree\,\Somewhat disagree\,\2\,1708006355341,1708006355341,5199,5199,5783,buq,qns-item-noham,64,2322924,0.0-1.0-0.63,65ce10fd405641befc097189,AWAITING REVIEW,2024-02-15T13:28:13.522000Z,2024-02-15T14:20:52.434000Z,,2024-02-15T14:20:53.309982Z,3159.0,CVPIIDEI,208,32,Female,Black,United States,United States,United States,English,No,Part-Time,Not Applicable
658301f0c304eb2e12fdcdf5,<b>I only form my views of people once I get to know them very well.,Highly disagree,65/94,Highly agree,4,1708006355927,1708006361926,\Highly agree\,\Highly agree\,\4\,1708006359789,1708006359789,3862,3862,5999,buq,qns-item-noham,65,2328925,0.0-1.0-0.64,65ce10fd405641befc097189,AWAITING REVIEW,2024-02-15T13:28:13.522000Z,2024-02-15T14:20:52.434000Z,,2024-02-15T14:20:53.309982Z,3159.0,CVPIIDEI,208,32,Female,Black,United States,United States,United States,English,No,Part-Time,Not Applicable
658301f0c304eb2e12fdcdf5,"<b>When people tell me important things about the world, I usually believe them.",Highly disagree,66/94,Somewhat disagree,2,1708006361928,1708006367989,\Somewhat disagree\,\Somewhat disagree\,\2\,1708006367461,1708006367461,5533,5533,6061,buq,qns-item-noham,66,2334988,0.0-1.0-0.65,65ce10fd405641befc097189,AWAITING REVIEW,2024-02-15T13:28:13.522000Z,2024-02-15T14:20:52.434000Z,,2024-02-15T14:20:53.309982Z,3159.0,CVPIIDEI,208,32,Female,Black,United States,United States,United States,English,No,Part-Time,Not Applicable
658301f0c304eb2e12fdcdf5,"<b>If a friend does something that upsets me, it reminds me what an unpredictable place the world is.",Highly disagree,67/94,Somewhat agree,3,1708006367991,1708006373517,\Somewhat agree\,\Somewhat agree\,\3\,1708006372662,1708006372662,4671,4671,5526,buq,qns-item-noham,67,2340516,0.0-1.0-0.66,65ce10fd405641befc097189,AWAITING REVIEW,2024-02-15T13:28:13.522000Z,2024-02-15T14:20:52.434000Z,,2024-02-15T14:20:53.309982Z,3159.0,CVPIIDEI,208,32,Female,Black,United States,United States,United States,English,No,Part-Time,Not Applicable
658301f0c304eb2e12fdcdf5,<b>People tend to believe whatever is good for their friends.,Highly disagree,68/94,Highly agree,4,1708006373519,1708006379365,\Highly agree\,\Highly agree\,\4\,1708006378782,1708006378782,5263,5263,5846,buq,qns-item-noham,68,2346364,0.0-1.0-0.67,65ce10fd405641befc097189,AWAITING REVIEW,2024-02-15T13:28:13.522000Z,2024-02-15T14:20:52.434000Z,,2024-02-15T14:20:53.309982Z,3159.0,CVPIIDEI,208,32,Female,Black,United States,United States,United States,English,No,Part-Time,Not Applicable
658301f0c304eb2e12fdcdf5,<b>I used to be more certain my beliefs were true.,Highly disagree,69/94,Somewhat disagree,2,1708006379366,1708006385269,\Somewhat disagree\,\Somewhat disagree\,\2\,1708006384413,1708006384413,5047,5047,5903,buq,qns-item-noham,69,2352268,0.0-1.0-0.68,65ce10fd405641befc097189,AWAITING REVIEW,2024-02-15T13:28:13.522000Z,2024-02-15T14:20:52.434000Z,,2024-02-15T14:20:53.309982Z,3159.0,CVPIIDEI,208,32,Female,Black,United States,United States,United States,English,No,Part-Time,Not Applicable
658301f0c304eb2e12fdcdf5,<b>It?s often pretty easy to figure out whether something is true based on who said it.,Highly disagree,70/94,Somewhat agree,3,1708006385271,1708006394197,\Somewhat agree\,\Somewhat agree\,\3\,1708006393462,1708006393462,8191,8191,8926,buq,qns-item-noham,70,2361196,0.0-1.0-0.69,65ce10fd405641befc097189,AWAITING REVIEW,2024-02-15T13:28:13.522000Z,2024-02-15T14:20:52.434000Z,,2024-02-15T14:20:53.309982Z,3159.0,CVPIIDEI,208,32,Female,Black,United States,United States,United States,English,No,Part-Time,Not Applicable
658301f0c304eb2e12fdcdf5,<b>I transform into a hummingbird every day.,Highly disagree,71/94,Highly disagree,1,1708006394199,1708006402366,\Highly disagree\,\Highly disagree\,\1\,1708006397206,1708006401710,3007,7511,8167,buq,qns-item-noham,71,2369365,0.0-1.0-0.70,65ce10fd405641befc097189,AWAITING REVIEW,2024-02-15T13:28:13.522000Z,2024-02-15T14:20:52.434000Z,,2024-02-15T14:20:53.309982Z,3159.0,CVPIIDEI,208,32,Female,Black,United States,United States,United States,English,No,Part-Time,Not Applicable
658301f0c304eb2e12fdcdf5,<b>I think a lot about arguments against my views.,Highly disagree,72/94,Somewhat agree,3,1708006402370,1708006408502,\Somewhat agree\,\Somewhat agree\,\3\,1708006407822,1708006407822,5452,5452,6132,buq,qns-item-noham,72,2375501,0.0-1.0-0.71,65ce10fd405641befc097189,AWAITING REVIEW,2024-02-15T13:28:13.522000Z,2024-02-15T14:20:52.434000Z,,2024-02-15T14:20:53.309982Z,3159.0,CVPIIDEI,208,32,Female,Black,United States,United States,United States,English,No,Part-Time,Not Applicable
658301f0c304eb2e12fdcdf5,<b>Personal experience is usually more important than facts and figures.,Highly disagree,73/94,Somewhat disagree,2,1708006408504,1708006415598,\Somewhat disagree\,\Somewhat disagree\,\2\,1708006414886,1708006414886,6382,6382,7094,buq,qns-item-noham,73,2382597,0.0-1.0-0.72,65ce10fd405641befc097189,AWAITING REVIEW,2024-02-15T13:28:13.522000Z,2024-02-15T14:20:52.434000Z,,2024-02-15T14:20:53.309982Z,3159.0,CVPIIDEI,208,32,Female,Black,United States,United States,United States,English,No,Part-Time,Not Applicable
658301f0c304eb2e12fdcdf5,<b>I?ve been tricked before about important matters.,Highly disagree,74/94,Somewhat disagree,2,1708006415600,1708006421757,\Somewhat disagree\,\Somewhat disagree\,\2\,1708006421183,1708006421183,5583,5583,6157,buq,qns-item-noham,74,2388756,0.0-1.0-0.73,65ce10fd405641befc097189,AWAITING REVIEW,2024-02-15T13:28:13.522000Z,2024-02-15T14:20:52.434000Z,,2024-02-15T14:20:53.309982Z,3159.0,CVPIIDEI,208,32,Female,Black,United States,United States,United States,English,No,Part-Time,Not Applicable
658301f0c304eb2e12fdcdf5,<b>I would need to be totally wowed if I were to change my opinion of a restaurant I don?t like.,Highly disagree,75/94,Highly agree,4,1708006421759,1708006429389,\Highly agree\,\Highly agree\,\4\,1708006428606,1708006428606,6847,6847,7630,buq,qns-item-noham,75,2396388,0.0-1.0-0.74,65ce10fd405641befc097189,AWAITING REVIEW,2024-02-15T13:28:13.522000Z,2024-02-15T14:20:52.434000Z,,2024-02-15T14:20:53.309982Z,3159.0,CVPIIDEI,208,32,Female,Black,United States,United States,United States,English,No,Part-Time,Not Applicable
658301f0c304eb2e12fdcdf5,<b>I care a lot about politics.,Highly disagree,76/94,Highly agree,4,1708006429391,1708006432206,\Highly agree\,\Highly agree\,\4\,1708006431294,1708006431294,1903,1903,2815,buq,qns-item-noham,76,2399205,0.0-1.0-0.75,65ce10fd405641befc097189,AWAITING REVIEW,2024-02-15T13:28:13.522000Z,2024-02-15T14:20:52.434000Z,,2024-02-15T14:20:53.309982Z,3159.0,CVPIIDEI,208,32,Female,Black,United States,United States,United States,English,No,Part-Time,Not Applicable
658301f0c304eb2e12fdcdf5,<b>There are some topics I?ve been really wrong about.,Highly disagree,77/94,Somewhat agree,3,1708006432208,1708006438231,\Somewhat agree\,\Somewhat agree\,\3\,1708006435726,1708006435726,3518,3518,6023,buq,qns-item-noham,77,2405230,0.0-1.0-0.76,65ce10fd405641befc097189,AWAITING REVIEW,2024-02-15T13:28:13.522000Z,2024-02-15T14:20:52.434000Z,,2024-02-15T14:20:53.309982Z,3159.0,CVPIIDEI,208,32,Female,Black,United States,United States,United States,English,No,Part-Time,Not Applicable
658301f0c304eb2e12fdcdf5,<b>Most beliefs can be supported with at least some evidence.,Highly disagree,78/94,Somewhat disagree,2,1708006438233,1708006443696,\Somewhat disagree\,\Somewhat disagree\,\2\,1708006442958,1708006442958,4725,4725,5463,buq,qns-item-noham,78,2410695,0.0-1.0-0.77,65ce10fd405641befc097189,AWAITING REVIEW,2024-02-15T13:28:13.522000Z,2024-02-15T14:20:52.434000Z,,2024-02-15T14:20:53.309982Z,3159.0,CVPIIDEI,208,32,Female,Black,United States,United States,United States,English,No,Part-Time,Not Applicable
658301f0c304eb2e12fdcdf5,<b>Other people make life out to be more complicated than it really is.,Highly disagree,79/94,Somewhat disagree,2,1708006443698,1708006450294,\Somewhat disagree\,\Somewhat disagree\,\2\,1708006449262,1708006449262,5564,5564,6596,buq,qns-item-noham,79,2417293,0.0-1.0-0.78,65ce10fd405641befc097189,AWAITING REVIEW,2024-02-15T13:28:13.522000Z,2024-02-15T14:20:52.434000Z,,2024-02-15T14:20:53.309982Z,3159.0,CVPIIDEI,208,32,Female,Black,United States,United States,United States,English,No,Part-Time,Not Applicable
658301f0c304eb2e12fdcdf5,"<b>Policy details don?t matter much, just the big picture.",Highly disagree,80/94,Highly disagree,1,1708006450295,1708006456646,\Highly disagree\,\Highly disagree\,\1\,1708006455957,1708006455957,5662,5662,6351,buq,qns-item-noham,80,2423645,0.0-1.0-0.79,65ce10fd405641befc097189,AWAITING REVIEW,2024-02-15T13:28:13.522000Z,2024-02-15T14:20:52.434000Z,,2024-02-15T14:20:53.309982Z,3159.0,CVPIIDEI,208,32,Female,Black,United States,United States,United States,English,No,Part-Time,Not Applicable
658301f0c304eb2e12fdcdf5,<b>I know my friends so well they can hardly ever surprise me.,Highly disagree,81/94,Somewhat agree,3,1708006456647,1708006460853,\Somewhat agree\,\Somewhat agree\,\3\,1708006460254,1708006460254,3607,3607,4206,buq,qns-item-noham,81,2427852,0.0-1.0-0.80,65ce10fd405641befc097189,AWAITING REVIEW,2024-02-15T13:28:13.522000Z,2024-02-15T14:20:52.434000Z,,2024-02-15T14:20:53.309982Z,3159.0,CVPIIDEI,208,32,Female,Black,United States,United States,United States,English,No,Part-Time,Not Applicable
658301f0c304eb2e12fdcdf5,<b>I do not often change my views on people.,Highly disagree,82/94,Somewhat disagree,2,1708006460855,1708006464967,\Somewhat disagree\,\Somewhat disagree\,\2\,1708006463422,1708006463422,2567,2567,4112,buq,qns-item-noham,82,2431966,0.0-1.0-0.81,65ce10fd405641befc097189,AWAITING REVIEW,2024-02-15T13:28:13.522000Z,2024-02-15T14:20:52.434000Z,,2024-02-15T14:20:53.309982Z,3159.0,CVPIIDEI,208,32,Female,Black,United States,United States,United States,English,No,Part-Time,Not Applicable
658301f0c304eb2e12fdcdf5,<b>I?m more certain about my beliefs than I used to be.,Highly disagree,83/94,Highly agree,4,1708006464969,1708006468686,\Highly agree\,\Highly agree\,\4\,1708006468174,1708006468174,3205,3205,3717,buq,qns-item-noham,83,2435685,0.0-1.0-0.82,65ce10fd405641befc097189,AWAITING REVIEW,2024-02-15T13:28:13.522000Z,2024-02-15T14:20:52.434000Z,,2024-02-15T14:20:53.309982Z,3159.0,CVPIIDEI,208,32,Female,Black,United States,United States,United States,English,No,Part-Time,Not Applicable
658301f0c304eb2e12fdcdf5,<b>People often tell falsehoods unintentionally.,Highly disagree,84/94,Somewhat disagree,2,1708006468687,1708006474598,\Somewhat disagree\,\Somewhat disagree\,\2\,1708006472526,1708006472526,3839,3839,5911,buq,qns-item-noham,84,2441597,0.0-1.0-0.83,65ce10fd405641befc097189,AWAITING REVIEW,2024-02-15T13:28:13.522000Z,2024-02-15T14:20:52.434000Z,,2024-02-15T14:20:53.309982Z,3159.0,CVPIIDEI,208,32,Female,Black,United States,United States,United States,English,No,Part-Time,Not Applicable
658301f0c304eb2e12fdcdf5,<b>Most people don?t know much about most things.,Highly disagree,85/94,Somewhat agree,3,1708006474601,1708006481047,\Somewhat disagree\,\Somewhat agree\,\2\,1708006479366,1708006480381,4765,5780,6446,buq,qns-item-noham,85,2448046,0.0-1.0-0.84,65ce10fd405641befc097189,AWAITING REVIEW,2024-02-15T13:28:13.522000Z,2024-02-15T14:20:52.434000Z,,2024-02-15T14:20:53.309982Z,3159.0,CVPIIDEI,208,32,Female,Black,United States,United States,United States,English,No,Part-Time,Not Applicable
658301f0c304eb2e12fdcdf5,"<b>If I find out something new about someone, I easily change my views about them.",Highly disagree,86/94,Somewhat disagree,2,1708006481049,1708006486102,\Somewhat disagree\,\Somewhat disagree\,\2\,1708006485606,1708006485606,4557,4557,5053,buq,qns-item-noham,86,2453101,0.0-1.0-0.85,65ce10fd405641befc097189,AWAITING REVIEW,2024-02-15T13:28:13.522000Z,2024-02-15T14:20:52.434000Z,,2024-02-15T14:20:53.309982Z,3159.0,CVPIIDEI,208,32,Female,Black,United States,United States,United States,English,No,Part-Time,Not Applicable
658301f0c304eb2e12fdcdf5,<b>Having true beliefs is difficult.,Highly disagree,87/94,Highly disagree,1,1708006486104,1708006489997,\Highly disagree\,\Highly disagree\,\1\,1708006489542,1708006489542,3438,3438,3893,buq,qns-item-noham,87,2456996,0.0-1.0-0.86,65ce10fd405641befc097189,AWAITING REVIEW,2024-02-15T13:28:13.522000Z,2024-02-15T14:20:52.434000Z,,2024-02-15T14:20:53.309982Z,3159.0,CVPIIDEI,208,32,Female,Black,United States,United States,United States,English,No,Part-Time,Not Applicable
658301f0c304eb2e12fdcdf5,<b>I don?t try new foods since I know I won?t like them.,Highly disagree,88/94,Highly disagree,1,1708006489999,1708006493134,\Highly disagree\,\Highly disagree\,\1\,1708006492574,1708006492574,2575,2575,3135,buq,qns-item-noham,88,2460133,0.0-1.0-0.87,65ce10fd405641befc097189,AWAITING REVIEW,2024-02-15T13:28:13.522000Z,2024-02-15T14:20:52.434000Z,,2024-02-15T14:20:53.309982Z,3159.0,CVPIIDEI,208,32,Female,Black,United States,United States,United States,English,No,Part-Time,Not Applicable
658301f0c304eb2e12fdcdf5,<b>Other people trick each other a lot.,Highly disagree,89/94,Somewhat agree,3,1708006493136,1708006496422,\Somewhat agree\,\Somewhat agree\,\3\,1708006495885,1708006495885,2749,2749,3286,buq,qns-item-noham,89,2463421,0.0-1.0-0.88,65ce10fd405641befc097189,AWAITING REVIEW,2024-02-15T13:28:13.522000Z,2024-02-15T14:20:52.434000Z,,2024-02-15T14:20:53.309982Z,3159.0,CVPIIDEI,208,32,Female,Black,United States,United States,United States,English,No,Part-Time,Not Applicable
658301f0c304eb2e12fdcdf5,<b>I would need to learn a lot about a person for my opinion of them to be swayed.,Highly disagree,90/94,Highly agree,4,1708006496424,1708006502053,\Highly agree\,\Highly agree\,\4\,1708006501519,1708006501519,5095,5095,5629,buq,qns-item-noham,90,2469052,0.0-1.0-0.89,65ce10fd405641befc097189,AWAITING REVIEW,2024-02-15T13:28:13.522000Z,2024-02-15T14:20:52.434000Z,,2024-02-15T14:20:53.309982Z,3159.0,CVPIIDEI,208,32,Female,Black,United States,United States,United States,English,No,Part-Time,Not Applicable
658301f0c304eb2e12fdcdf5,<b>People can?t usually trick me when it comes to topics I care about.,Highly disagree,91/94,Highly agree,4,1708006502055,1708006506870,\Highly agree\,\Highly agree\,\4\,1708006506366,1708006506366,4311,4311,4815,buq,qns-item-noham,91,2473869,0.0-1.0-0.90,65ce10fd405641befc097189,AWAITING REVIEW,2024-02-15T13:28:13.522000Z,2024-02-15T14:20:52.434000Z,,2024-02-15T14:20:53.309982Z,3159.0,CVPIIDEI,208,32,Female,Black,United States,United States,United States,English,No,Part-Time,Not Applicable
658301f0c304eb2e12fdcdf5,<b>I do not often change my views on food.,Highly disagree,92/94,Somewhat disagree,2,1708006506871,1708006509966,\Somewhat disagree\,\Somewhat disagree\,\2\,1708006509510,1708006509510,2639,2639,3095,buq,qns-item-noham,92,2476965,0.0-1.0-0.91,65ce10fd405641befc097189,AWAITING REVIEW,2024-02-15T13:28:13.522000Z,2024-02-15T14:20:52.434000Z,,2024-02-15T14:20:53.309982Z,3159.0,CVPIIDEI,208,32,Female,Black,United States,United States,United States,English,No,Part-Time,Not Applicable
658301f0c304eb2e12fdcdf5,<b>Specific policies are often very important to me.,Highly disagree,93/94,Highly agree,4,1708006509969,1708006516606,\Highly agree\,\Highly agree\,\4\,1708006515118,1708006515118,5149,5149,6637,buq,qns-item-noham,93,2483606,0.0-1.0-0.92,65ce10fd405641befc097189,AWAITING REVIEW,2024-02-15T13:28:13.522000Z,2024-02-15T14:20:52.434000Z,,2024-02-15T14:20:53.309982Z,3159.0,CVPIIDEI,208,32,Female,Black,United States,United States,United States,English,No,Part-Time,Not Applicable
658301f0c304eb2e12fdcdf5,<b>Most people are woefully under-informed.,Highly disagree,94/94,Highly agree,4,1708006516609,1708006520221,\Highly agree\,\Highly agree\,\4\,1708006519718,1708006519718,3109,3109,3612,buq,qns-item-noham,94,2487220,0.0-1.0-0.93,65ce10fd405641befc097189,AWAITING REVIEW,2024-02-15T13:28:13.522000Z,2024-02-15T14:20:52.434000Z,,2024-02-15T14:20:53.309982Z,3159.0,CVPIIDEI,208,32,Female,Black,United States,United States,United States,English,No,Part-Time,Not Applicable
658301f0c304eb2e12fdcdf5,,,,,,,,,,,,,,,,,,,,,65ce10fd405641befc097189,AWAITING REVIEW,2024-02-15T13:28:13.522000Z,2024-02-15T14:20:52.434000Z,,2024-02-15T14:20:53.309982Z,3159.0,CVPIIDEI,208,32,Female,Black,United States,United States,United States,English,No,Part-Time,Not Applicable
