PROLIFIC_PID,Question,qns_options,quest_num,answer,answer_num,question_load_timestamp,next_btn_timestamp,text_selected,final_text_selected,option_num_selected,preview_timestamps,final_text_selected_time_stamp,rt_first_option_click,rt_final_option_click,rt_submit_click,questionnaire,trial_type,trial_index,time_elapsed,internal_node_id,Demographic_Submission id,Demographic_Status,Demographic_Started at,Demographic_Completed at,Demographic_Reviewed at,Demographic_Archived at,Demographic_Time taken,Demographic_Completion code,Demographic_Total approvals,Demographic_Age,Demographic_Sex,Demographic_Ethnicity simplified,Demographic_Country of birth,Demographic_Country of residence,Demographic_Nationality,Demographic_Language,Demographic_Student status,Demographic_Employment status,Demographic_Custom study tncs accepted at
63f3731fccf0d4e95aa80d11,<b>Knowing what?s true and knowing what to do about it are usually basically the same.,Highly disagree,1/94,Somewhat agree,3,1708004353065,1708004374739,\Somewhat agree\,\Somewhat agree\,\3\,1708004373325,1708004373325,20260,20260,21674,buq,qns-item-noham,1,587652,0.0-1.0-0.0,65ce11a5b732e4800b002af0,AWAITING REVIEW,2024-02-15T13:29:15.832000Z,2024-02-15T14:06:12.794000Z,,2024-02-15T14:06:13.453019Z,2217.0,CVPIIDEI,1248,35,Male,Black,United States,United States,United States,English,No,Part-Time,Not Applicable
63f3731fccf0d4e95aa80d11,<b>Most people just believe whatever is convenient for them.,Highly disagree,2/94,Somewhat agree,3,1708004374743,1708004383385,\Somewhat agree\,\Somewhat agree\,\3\,1708004382102,1708004382102,7359,7359,8642,buq,qns-item-noham,2,596298,0.0-1.0-0.1,65ce11a5b732e4800b002af0,AWAITING REVIEW,2024-02-15T13:29:15.832000Z,2024-02-15T14:06:12.794000Z,,2024-02-15T14:06:13.453019Z,2217.0,CVPIIDEI,1248,35,Male,Black,United States,United States,United States,English,No,Part-Time,Not Applicable
63f3731fccf0d4e95aa80d11,<b>Having some big beliefs helps me sort out minor ones.,Highly disagree,3/94,Somewhat agree,3,1708004383387,1708004389355,\Somewhat agree\,\Somewhat agree\,\3\,1708004388301,1708004388301,4914,4914,5968,buq,qns-item-noham,3,602268,0.0-1.0-0.2,65ce11a5b732e4800b002af0,AWAITING REVIEW,2024-02-15T13:29:15.832000Z,2024-02-15T14:06:12.794000Z,,2024-02-15T14:06:13.453019Z,2217.0,CVPIIDEI,1248,35,Male,Black,United States,United States,United States,English,No,Part-Time,Not Applicable
63f3731fccf0d4e95aa80d11,<b>Political questions are usually pretty complicated.,Highly disagree,4/94,Somewhat disagree,2,1708004389357,1708004395200,\Somewhat disagree\,\Somewhat disagree\,\2\,1708004393694,1708004393694,4337,4337,5843,buq,qns-item-noham,4,608113,0.0-1.0-0.3,65ce11a5b732e4800b002af0,AWAITING REVIEW,2024-02-15T13:29:15.832000Z,2024-02-15T14:06:12.794000Z,,2024-02-15T14:06:13.453019Z,2217.0,CVPIIDEI,1248,35,Male,Black,United States,United States,United States,English,No,Part-Time,Not Applicable
63f3731fccf0d4e95aa80d11,<b>Figuring out what?s important in life requires learning a lot of facts.,Highly disagree,5/94,Highly agree,4,1708004395203,1708004402677,\Highly agree\,\Highly agree\,\4\,1708004400595,1708004400595,5392,5392,7474,buq,qns-item-noham,5,615590,0.0-1.0-0.4,65ce11a5b732e4800b002af0,AWAITING REVIEW,2024-02-15T13:29:15.832000Z,2024-02-15T14:06:12.794000Z,,2024-02-15T14:06:13.453019Z,2217.0,CVPIIDEI,1248,35,Male,Black,United States,United States,United States,English,No,Part-Time,Not Applicable
63f3731fccf0d4e95aa80d11,<b>It is difficult for me to remember the last time I was surprised by politics.,Highly disagree,6/94,Somewhat agree,3,1708004402679,1708004409689,\Somewhat agree\,\Somewhat agree\,\3\,1708004408621,1708004408621,5942,5942,7010,buq,qns-item-noham,6,622602,0.0-1.0-0.5,65ce11a5b732e4800b002af0,AWAITING REVIEW,2024-02-15T13:29:15.832000Z,2024-02-15T14:06:12.794000Z,,2024-02-15T14:06:13.453019Z,2217.0,CVPIIDEI,1248,35,Male,Black,United States,United States,United States,English,No,Part-Time,Not Applicable
63f3731fccf0d4e95aa80d11,<b>People?s false beliefs are understandable.,Highly disagree,7/94,Somewhat disagree,2,1708004409692,1708004420201,\Somewhat disagree\,\Somewhat disagree\,\2\,1708004419461,1708004419461,9769,9769,10509,buq,qns-item-noham,7,633114,0.0-1.0-0.6,65ce11a5b732e4800b002af0,AWAITING REVIEW,2024-02-15T13:29:15.832000Z,2024-02-15T14:06:12.794000Z,,2024-02-15T14:06:13.453019Z,2217.0,CVPIIDEI,1248,35,Male,Black,United States,United States,United States,English,No,Part-Time,Not Applicable
63f3731fccf0d4e95aa80d11,<b>I spend a lot of time trying to be informed about politics.,Highly disagree,8/94,Somewhat agree,3,1708004420205,1708004425623,\Somewhat agree\,\Somewhat agree\,\3\,1708004424223,1708004424223,4018,4018,5418,buq,qns-item-noham,8,638536,0.0-1.0-0.7,65ce11a5b732e4800b002af0,AWAITING REVIEW,2024-02-15T13:29:15.832000Z,2024-02-15T14:06:12.794000Z,,2024-02-15T14:06:13.453019Z,2217.0,CVPIIDEI,1248,35,Male,Black,United States,United States,United States,English,No,Part-Time,Not Applicable
63f3731fccf0d4e95aa80d11,<b>I think a lot about whether my beliefs are right.,Highly disagree,9/94,Somewhat disagree,2,1708004425626,1708004432085,\Somewhat disagree\,\Somewhat disagree\,\2\,1708004430701,1708004430701,5075,5075,6459,buq,qns-item-noham,9,644998,0.0-1.0-0.8,65ce11a5b732e4800b002af0,AWAITING REVIEW,2024-02-15T13:29:15.832000Z,2024-02-15T14:06:12.794000Z,,2024-02-15T14:06:13.453019Z,2217.0,CVPIIDEI,1248,35,Male,Black,United States,United States,United States,English,No,Part-Time,Not Applicable
63f3731fccf0d4e95aa80d11,<b>Statistics can be pretty misleading sometimes.,Highly disagree,10/94,Somewhat disagree,2,1708004432088,1708004441317,\Somewhat disagree\,\Somewhat disagree\,\2\,1708004438239,1708004438239,6151,6151,9229,buq,qns-item-noham,10,654230,0.0-1.0-0.9,65ce11a5b732e4800b002af0,AWAITING REVIEW,2024-02-15T13:29:15.832000Z,2024-02-15T14:06:12.794000Z,,2024-02-15T14:06:13.453019Z,2217.0,CVPIIDEI,1248,35,Male,Black,United States,United States,United States,English,No,Part-Time,Not Applicable
63f3731fccf0d4e95aa80d11,<b>I have lots of beliefs that I?m only sort of sure about.,Highly disagree,11/94,Somewhat agree,3,1708004441319,1708004463640,\Somewhat agree\,\Somewhat agree\,\3\,1708004462896,1708004462896,21577,21577,22321,buq,qns-item-noham,11,676553,0.0-1.0-0.10,65ce11a5b732e4800b002af0,AWAITING REVIEW,2024-02-15T13:29:15.832000Z,2024-02-15T14:06:12.794000Z,,2024-02-15T14:06:13.453019Z,2217.0,CVPIIDEI,1248,35,Male,Black,United States,United States,United States,English,No,Part-Time,Not Applicable
63f3731fccf0d4e95aa80d11,"<b>If I go to my favorite restaurant and the food is surprisingly bad, it reminds me there are many disappointments in life.",Highly disagree,12/94,Somewhat disagree,2,1708004463643,1708004475594,\Somewhat disagree\,\Somewhat disagree\,\2\,1708004472516,1708004472516,8873,8873,11951,buq,qns-item-noham,12,688507,0.0-1.0-0.11,65ce11a5b732e4800b002af0,AWAITING REVIEW,2024-02-15T13:29:15.832000Z,2024-02-15T14:06:12.794000Z,,2024-02-15T14:06:13.453019Z,2217.0,CVPIIDEI,1248,35,Male,Black,United States,United States,United States,English,No,Part-Time,Not Applicable
63f3731fccf0d4e95aa80d11,"<b>If you are paying attention, please select ?Somewhat agree?",Highly disagree,13/94,Somewhat agree,3,1708004475596,1708004479862,\Somewhat agree\,\Somewhat agree\,\3\,1708004478742,1708004478742,3146,3146,4266,buq,qns-item-noham,13,692775,0.0-1.0-0.12,65ce11a5b732e4800b002af0,AWAITING REVIEW,2024-02-15T13:29:15.832000Z,2024-02-15T14:06:12.794000Z,,2024-02-15T14:06:13.453019Z,2217.0,CVPIIDEI,1248,35,Male,Black,United States,United States,United States,English,No,Part-Time,Not Applicable
63f3731fccf0d4e95aa80d11,"<b>When I talk to others, I often worry I?ll convince them of something I didn?t mean to.",Highly disagree,14/94,Somewhat disagree,2,1708004479864,1708004494414,\Somewhat disagree\,\Somewhat disagree\,\2\,1708004493346,1708004493346,13482,13482,14550,buq,qns-item-noham,14,707327,0.0-1.0-0.13,65ce11a5b732e4800b002af0,AWAITING REVIEW,2024-02-15T13:29:15.832000Z,2024-02-15T14:06:12.794000Z,,2024-02-15T14:06:13.453019Z,2217.0,CVPIIDEI,1248,35,Male,Black,United States,United States,United States,English,No,Part-Time,Not Applicable
63f3731fccf0d4e95aa80d11,<b>I would need to learn something utterly shocking about my party in order to change my political views.,Highly disagree,15/94,Somewhat agree,3,1708004494416,1708004520746,\Somewhat agree\,\Somewhat agree\,\3\,1708004519620,1708004519620,25204,25204,26330,buq,qns-item-noham,15,733659,0.0-1.0-0.14,65ce11a5b732e4800b002af0,AWAITING REVIEW,2024-02-15T13:29:15.832000Z,2024-02-15T14:06:12.794000Z,,2024-02-15T14:06:13.453019Z,2217.0,CVPIIDEI,1248,35,Male,Black,United States,United States,United States,English,No,Part-Time,Not Applicable
63f3731fccf0d4e95aa80d11,"<b>When I have new experiences, I tend to think of them as unique.",Highly disagree,16/94,Somewhat agree,3,1708004520748,1708004526316,\Somewhat agree\,\Somewhat agree\,\3\,1708004524952,1708004524952,4204,4204,5568,buq,qns-item-noham,16,739229,0.0-1.0-0.15,65ce11a5b732e4800b002af0,AWAITING REVIEW,2024-02-15T13:29:15.832000Z,2024-02-15T14:06:12.794000Z,,2024-02-15T14:06:13.453019Z,2217.0,CVPIIDEI,1248,35,Male,Black,United States,United States,United States,English,No,Part-Time,Not Applicable
63f3731fccf0d4e95aa80d11,<b>I change my mind about specific policies pretty frequently.,Highly disagree,17/94,Somewhat disagree,2,1708004526318,1708004532112,\Somewhat disagree\,\Somewhat disagree\,\2\,1708004531075,1708004531075,4757,4757,5794,buq,qns-item-noham,17,745025,0.0-1.0-0.16,65ce11a5b732e4800b002af0,AWAITING REVIEW,2024-02-15T13:29:15.832000Z,2024-02-15T14:06:12.794000Z,,2024-02-15T14:06:13.453019Z,2217.0,CVPIIDEI,1248,35,Male,Black,United States,United States,United States,English,No,Part-Time,Not Applicable
63f3731fccf0d4e95aa80d11,"<b>If a politician in my political party supports something I disagree with, I give them the benefit of the doubt, as such issues often involve hidden complexities that aren?t obvious.   ",Highly disagree,18/94,Somewhat agree,3,1708004532114,1708004550178,\Somewhat agree\,\Somewhat agree\,\3\,1708004549112,1708004549112,16998,16998,18064,buq,qns-item-noham,18,763091,0.0-1.0-0.17,65ce11a5b732e4800b002af0,AWAITING REVIEW,2024-02-15T13:29:15.832000Z,2024-02-15T14:06:12.794000Z,,2024-02-15T14:06:13.453019Z,2217.0,CVPIIDEI,1248,35,Male,Black,United States,United States,United States,English,No,Part-Time,Not Applicable
63f3731fccf0d4e95aa80d11,<b>People?s bad politics are usually motivated by hatefulness.,Highly disagree,19/94,Somewhat agree,3,1708004550181,1708004558072,\Somewhat agree\,\Somewhat agree\,\3\,1708004556836,1708004556836,6655,6655,7891,buq,qns-item-noham,19,770985,0.0-1.0-0.18,65ce11a5b732e4800b002af0,AWAITING REVIEW,2024-02-15T13:29:15.832000Z,2024-02-15T14:06:12.794000Z,,2024-02-15T14:06:13.453019Z,2217.0,CVPIIDEI,1248,35,Male,Black,United States,United States,United States,English,No,Part-Time,Not Applicable
63f3731fccf0d4e95aa80d11,<b>I think a lot about how to reconcile my beliefs with one another.,Highly disagree,20/94,Somewhat disagree,2,1708004558075,1708004599729,\Somewhat disagree\,\Somewhat disagree\,\2\,1708004587161,1708004587161,29086,29086,41654,buq,qns-item-noham,20,812642,0.0-1.0-0.19,65ce11a5b732e4800b002af0,AWAITING REVIEW,2024-02-15T13:29:15.832000Z,2024-02-15T14:06:12.794000Z,,2024-02-15T14:06:13.453019Z,2217.0,CVPIIDEI,1248,35,Male,Black,United States,United States,United States,English,No,Part-Time,Not Applicable
63f3731fccf0d4e95aa80d11,<b>I might have false beliefs about important topics.,Highly disagree,21/94,Somewhat disagree,2,1708004599733,1708004611412,\Somewhat agree\,\Somewhat disagree\,\3\,1708004606861,1708004610667,7128,10934,11679,buq,qns-item-noham,21,824325,0.0-1.0-0.20,65ce11a5b732e4800b002af0,AWAITING REVIEW,2024-02-15T13:29:15.832000Z,2024-02-15T14:06:12.794000Z,,2024-02-15T14:06:13.453019Z,2217.0,CVPIIDEI,1248,35,Male,Black,United States,United States,United States,English,No,Part-Time,Not Applicable
63f3731fccf0d4e95aa80d11,"<b>If a good friend of mine does something unexpected that upsets me, I feel like I don?t know them anymore.",Highly disagree,22/94,Somewhat disagree,2,1708004611414,1708004625867,\Somewhat disagree\,\Somewhat disagree\,\2\,1708004623619,1708004623619,12205,12205,14453,buq,qns-item-noham,22,838780,0.0-1.0-0.21,65ce11a5b732e4800b002af0,AWAITING REVIEW,2024-02-15T13:29:15.832000Z,2024-02-15T14:06:12.794000Z,,2024-02-15T14:06:13.453019Z,2217.0,CVPIIDEI,1248,35,Male,Black,United States,United States,United States,English,No,Part-Time,Not Applicable
63f3731fccf0d4e95aa80d11,<b>Other people?s beliefs are often incoherent.,Highly disagree,23/94,Somewhat agree,3,1708004625869,1708004632712,\Somewhat agree\,\Somewhat agree\,\3\,1708004631707,1708004631707,5838,5838,6843,buq,qns-item-noham,23,845626,0.0-1.0-0.22,65ce11a5b732e4800b002af0,AWAITING REVIEW,2024-02-15T13:29:15.832000Z,2024-02-15T14:06:12.794000Z,,2024-02-15T14:06:13.453019Z,2217.0,CVPIIDEI,1248,35,Male,Black,United States,United States,United States,English,No,Part-Time,Not Applicable
63f3731fccf0d4e95aa80d11,"<b>Every now and then, a new experience will unsettle beliefs I?ve had for a while.",Highly disagree,24/94,Somewhat disagree,2,1708004632715,1708004659430,\Somewhat disagree\,\Somewhat disagree\,\2\,1708004658060,1708004658060,25345,25345,26715,buq,qns-item-noham,24,872343,0.0-1.0-0.23,65ce11a5b732e4800b002af0,AWAITING REVIEW,2024-02-15T13:29:15.832000Z,2024-02-15T14:06:12.794000Z,,2024-02-15T14:06:13.453019Z,2217.0,CVPIIDEI,1248,35,Male,Black,United States,United States,United States,English,No,Part-Time,Not Applicable
63f3731fccf0d4e95aa80d11,<b>Some policies I agree with in principle are so bad I don?t support them. ,Highly disagree,25/94,Somewhat disagree,2,1708004659432,1708004678192,\Somewhat disagree\,\Somewhat disagree\,\2\,1708004677117,1708004677117,17685,17685,18760,buq,qns-item-noham,25,891105,0.0-1.0-0.24,65ce11a5b732e4800b002af0,AWAITING REVIEW,2024-02-15T13:29:15.832000Z,2024-02-15T14:06:12.794000Z,,2024-02-15T14:06:13.453019Z,2217.0,CVPIIDEI,1248,35,Male,Black,United States,United States,United States,English,No,Part-Time,Not Applicable
63f3731fccf0d4e95aa80d11,<b>I?m pretty sure I?ve accidentally spread false information.,Highly disagree,26/94,Somewhat disagree,2,1708004678194,1708004682688,\Somewhat disagree\,\Somewhat disagree\,\2\,1708004681991,1708004681991,3797,3797,4494,buq,qns-item-noham,26,895601,0.0-1.0-0.25,65ce11a5b732e4800b002af0,AWAITING REVIEW,2024-02-15T13:29:15.832000Z,2024-02-15T14:06:12.794000Z,,2024-02-15T14:06:13.453019Z,2217.0,CVPIIDEI,1248,35,Male,Black,United States,United States,United States,English,No,Part-Time,Not Applicable
63f3731fccf0d4e95aa80d11,"<b>If I go to my favorite restaurant and the food is unexpectedly bad, then they have changed owners.",Highly disagree,27/94,Somewhat disagree,2,1708004682692,1708004698485,\Somewhat disagree\,\Somewhat disagree\,\2\,1708004697255,1708004697255,14563,14563,15793,buq,qns-item-noham,27,911398,0.0-1.0-0.26,65ce11a5b732e4800b002af0,AWAITING REVIEW,2024-02-15T13:29:15.832000Z,2024-02-15T14:06:12.794000Z,,2024-02-15T14:06:13.453019Z,2217.0,CVPIIDEI,1248,35,Male,Black,United States,United States,United States,English,No,Part-Time,Not Applicable
63f3731fccf0d4e95aa80d11,"<b>In politics, it?s important to trust your friends and family.",Highly disagree,28/94,Somewhat agree,3,1708004698488,1708004711800,\Somewhat agree\,\Somewhat agree\,\3\,1708004709292,1708004709292,10804,10804,13312,buq,qns-item-noham,28,924713,0.0-1.0-0.27,65ce11a5b732e4800b002af0,AWAITING REVIEW,2024-02-15T13:29:15.832000Z,2024-02-15T14:06:12.794000Z,,2024-02-15T14:06:13.453019Z,2217.0,CVPIIDEI,1248,35,Male,Black,United States,United States,United States,English,No,Part-Time,Not Applicable
63f3731fccf0d4e95aa80d11,<b>It?s OK to have some conflicting beliefs.,Highly disagree,29/94,Somewhat agree,3,1708004711802,1708004716101,\Somewhat agree\,\Somewhat agree\,\3\,1708004714940,1708004714940,3138,3138,4299,buq,qns-item-noham,29,929014,0.0-1.0-0.28,65ce11a5b732e4800b002af0,AWAITING REVIEW,2024-02-15T13:29:15.832000Z,2024-02-15T14:06:12.794000Z,,2024-02-15T14:06:13.453019Z,2217.0,CVPIIDEI,1248,35,Male,Black,United States,United States,United States,English,No,Part-Time,Not Applicable
63f3731fccf0d4e95aa80d11,<b>Listening to people I disagree with makes my opinions better.,Highly disagree,30/94,Somewhat disagree,2,1708004716104,1708004727580,\Somewhat disagree\,\Somewhat disagree\,\2\,1708004720680,1708004720680,4576,4576,11476,buq,qns-item-noham,30,940493,0.0-1.0-0.29,65ce11a5b732e4800b002af0,AWAITING REVIEW,2024-02-15T13:29:15.832000Z,2024-02-15T14:06:12.794000Z,,2024-02-15T14:06:13.453019Z,2217.0,CVPIIDEI,1248,35,Male,Black,United States,United States,United States,English,No,Part-Time,Not Applicable
63f3731fccf0d4e95aa80d11,<b>My moral compass sometimes makes it harder to determine what?s true.,Highly disagree,31/94,Highly disagree,1,1708004727583,1708004749646,\Highly disagree\,\Highly disagree\,\1\,1708004748644,1708004748644,21061,21061,22063,buq,qns-item-noham,31,962559,0.0-1.0-0.30,65ce11a5b732e4800b002af0,AWAITING REVIEW,2024-02-15T13:29:15.832000Z,2024-02-15T14:06:12.794000Z,,2024-02-15T14:06:13.453019Z,2217.0,CVPIIDEI,1248,35,Male,Black,United States,United States,United States,English,No,Part-Time,Not Applicable
63f3731fccf0d4e95aa80d11,<b>Evidence pointing in the wrong direction isn?t really evidence at all.,Highly disagree,32/94,Somewhat agree,3,1708004749649,1708004757477,\Somewhat agree\,\Somewhat agree\,\3\,1708004755338,1708004755338,5689,5689,7828,buq,qns-item-noham,32,970390,0.0-1.0-0.31,65ce11a5b732e4800b002af0,AWAITING REVIEW,2024-02-15T13:29:15.832000Z,2024-02-15T14:06:12.794000Z,,2024-02-15T14:06:13.453019Z,2217.0,CVPIIDEI,1248,35,Male,Black,United States,United States,United States,English,No,Part-Time,Not Applicable
63f3731fccf0d4e95aa80d11,"<b>If the political party I support messes up, it makes me think politics is rotten.",Highly disagree,33/94,Somewhat agree,3,1708004757479,1708004767941,\Somewhat agree\,\Somewhat agree\,\3\,1708004765637,1708004765637,8158,8158,10462,buq,qns-item-noham,33,980854,0.0-1.0-0.32,65ce11a5b732e4800b002af0,AWAITING REVIEW,2024-02-15T13:29:15.832000Z,2024-02-15T14:06:12.794000Z,,2024-02-15T14:06:13.453019Z,2217.0,CVPIIDEI,1248,35,Male,Black,United States,United States,United States,English,No,Part-Time,Not Applicable
63f3731fccf0d4e95aa80d11,<b>Lots of important topics can only really be understood by some groups of people.,Highly disagree,34/94,Somewhat disagree,2,1708004767943,1708004816788,\Somewhat disagree\,\Somewhat disagree\,\2\,1708004815789,1708004815789,47846,47846,48845,buq,qns-item-noham,34,1029701,0.0-1.0-0.33,65ce11a5b732e4800b002af0,AWAITING REVIEW,2024-02-15T13:29:15.832000Z,2024-02-15T14:06:12.794000Z,,2024-02-15T14:06:13.453019Z,2217.0,CVPIIDEI,1248,35,Male,Black,United States,United States,United States,English,No,Part-Time,Not Applicable
63f3731fccf0d4e95aa80d11,<b>Having conflicting beliefs means you haven?t thought about them enough.,Highly disagree,35/94,Somewhat disagree,2,1708004816791,1708004825620,\Somewhat disagree\,\Somewhat disagree\,\2\,1708004824620,1708004824620,7829,7829,8829,buq,qns-item-noham,35,1038533,0.0-1.0-0.34,65ce11a5b732e4800b002af0,AWAITING REVIEW,2024-02-15T13:29:15.832000Z,2024-02-15T14:06:12.794000Z,,2024-02-15T14:06:13.453019Z,2217.0,CVPIIDEI,1248,35,Male,Black,United States,United States,United States,English,No,Part-Time,Not Applicable
63f3731fccf0d4e95aa80d11,<b>I do not often change my political opinions.,Highly disagree,36/94,Somewhat agree,3,1708004825622,1708004829971,\Somewhat agree\,\Somewhat agree\,\3\,1708004829280,1708004829280,3658,3658,4349,buq,qns-item-noham,36,1042884,0.0-1.0-0.35,65ce11a5b732e4800b002af0,AWAITING REVIEW,2024-02-15T13:29:15.832000Z,2024-02-15T14:06:12.794000Z,,2024-02-15T14:06:13.453019Z,2217.0,CVPIIDEI,1248,35,Male,Black,United States,United States,United States,English,No,Part-Time,Not Applicable
63f3731fccf0d4e95aa80d11,<b>It?s difficult to not have at least some conflicting beliefs.,Highly disagree,37/94,Somewhat agree,3,1708004829974,1708004882298,\Somewhat agree\,\Somewhat agree\,\3\,1708004870638,1708004875176,40664,45202,52324,buq,qns-item-noham,37,1095211,0.0-1.0-0.36,65ce11a5b732e4800b002af0,AWAITING REVIEW,2024-02-15T13:29:15.832000Z,2024-02-15T14:06:12.794000Z,,2024-02-15T14:06:13.453019Z,2217.0,CVPIIDEI,1248,35,Male,Black,United States,United States,United States,English,No,Part-Time,Not Applicable
63f3731fccf0d4e95aa80d11,<b>Wishful thinking causes a lot of problems.,Highly disagree,38/94,Somewhat disagree,2,1708004882300,1708004891738,\Somewhat disagree\,\Somewhat disagree\,\2\,1708004888624,1708004888624,6324,6324,9438,buq,qns-item-noham,38,1104651,0.0-1.0-0.37,65ce11a5b732e4800b002af0,AWAITING REVIEW,2024-02-15T13:29:15.832000Z,2024-02-15T14:06:12.794000Z,,2024-02-15T14:06:13.453019Z,2217.0,CVPIIDEI,1248,35,Male,Black,United States,United States,United States,English,No,Part-Time,Not Applicable
63f3731fccf0d4e95aa80d11,<b>I judge a food item only once I try it many times.,Highly disagree,39/94,Somewhat agree,3,1708004891740,1708004916348,\Somewhat agree\,\Somewhat agree\,\3\,1708004907890,1708004907890,16150,16150,24608,buq,qns-item-noham,39,1129261,0.0-1.0-0.38,65ce11a5b732e4800b002af0,AWAITING REVIEW,2024-02-15T13:29:15.832000Z,2024-02-15T14:06:12.794000Z,,2024-02-15T14:06:13.453019Z,2217.0,CVPIIDEI,1248,35,Male,Black,United States,United States,United States,English,No,Part-Time,Not Applicable
63f3731fccf0d4e95aa80d11,"<b>When a person holds conflicting beliefs, they should really try to figure out what?s wrong.",Highly disagree,40/94,Somewhat disagree,2,1708004916350,1708004930002,\Somewhat disagree\,\Somewhat disagree\,\2\,1708004928084,1708004928084,11734,11734,13652,buq,qns-item-noham,40,1142915,0.0-1.0-0.39,65ce11a5b732e4800b002af0,AWAITING REVIEW,2024-02-15T13:29:15.832000Z,2024-02-15T14:06:12.794000Z,,2024-02-15T14:06:13.453019Z,2217.0,CVPIIDEI,1248,35,Male,Black,United States,United States,United States,English,No,Part-Time,Not Applicable
63f3731fccf0d4e95aa80d11,<b>Knowing what?s important in life is easy.,Highly disagree,41/94,Somewhat disagree,2,1708004930004,1708004935054,\Somewhat disagree\,\Somewhat disagree\,\2\,1708004933528,1708004933528,3524,3524,5050,buq,qns-item-noham,41,1147967,0.0-1.0-0.40,65ce11a5b732e4800b002af0,AWAITING REVIEW,2024-02-15T13:29:15.832000Z,2024-02-15T14:06:12.794000Z,,2024-02-15T14:06:13.453019Z,2217.0,CVPIIDEI,1248,35,Male,Black,United States,United States,United States,English,No,Part-Time,Not Applicable
63f3731fccf0d4e95aa80d11,<b>I swim across the Atlantic Ocean to get to work every day.,Highly disagree,42/94,Highly disagree,1,1708004935056,1708004939890,\Highly disagree\,\Highly disagree\,\1\,1708004938704,1708004938704,3648,3648,4834,buq,qns-item-noham,42,1152803,0.0-1.0-0.41,65ce11a5b732e4800b002af0,AWAITING REVIEW,2024-02-15T13:29:15.832000Z,2024-02-15T14:06:12.794000Z,,2024-02-15T14:06:13.453019Z,2217.0,CVPIIDEI,1248,35,Male,Black,United States,United States,United States,English,No,Part-Time,Not Applicable
63f3731fccf0d4e95aa80d11,"<b>Sometimes, you just have to ignore evidence that you know is wrong.",Highly disagree,43/94,Highly agree,4,1708004939892,1708004949300,\Highly agree\,\Highly agree\,\4\,1708004948132,1708004948132,8240,8240,9408,buq,qns-item-noham,43,1162214,0.0-1.0-0.42,65ce11a5b732e4800b002af0,AWAITING REVIEW,2024-02-15T13:29:15.832000Z,2024-02-15T14:06:12.794000Z,,2024-02-15T14:06:13.453019Z,2217.0,CVPIIDEI,1248,35,Male,Black,United States,United States,United States,English,No,Part-Time,Not Applicable
63f3731fccf0d4e95aa80d11,<b>I have had some false beliefs.,Highly disagree,44/94,Somewhat disagree,2,1708004949303,1708004955293,\Somewhat disagree\,\Somewhat disagree\,\2\,1708004954380,1708004954380,5077,5077,5990,buq,qns-item-noham,44,1168206,0.0-1.0-0.43,65ce11a5b732e4800b002af0,AWAITING REVIEW,2024-02-15T13:29:15.832000Z,2024-02-15T14:06:12.794000Z,,2024-02-15T14:06:13.453019Z,2217.0,CVPIIDEI,1248,35,Male,Black,United States,United States,United States,English,No,Part-Time,Not Applicable
63f3731fccf0d4e95aa80d11,"<b>If one friend does something that upsets me, I sometimes start to distrust people in general.",Highly disagree,45/94,Somewhat disagree,2,1708004955296,1708004964777,\Somewhat disagree\,\Somewhat disagree\,\2\,1708004963725,1708004963725,8429,8429,9481,buq,qns-item-noham,45,1177690,0.0-1.0-0.44,65ce11a5b732e4800b002af0,AWAITING REVIEW,2024-02-15T13:29:15.832000Z,2024-02-15T14:06:12.794000Z,,2024-02-15T14:06:13.453019Z,2217.0,CVPIIDEI,1248,35,Male,Black,United States,United States,United States,English,No,Part-Time,Not Applicable
63f3731fccf0d4e95aa80d11,<b>The facts about most important matters are easy to find.,Highly disagree,46/94,Somewhat disagree,2,1708004964779,1708004989485,\Somewhat disagree\,\Somewhat disagree\,\2\,1708004988410,1708004988410,23631,23631,24706,buq,qns-item-noham,46,1202398,0.0-1.0-0.45,65ce11a5b732e4800b002af0,AWAITING REVIEW,2024-02-15T13:29:15.832000Z,2024-02-15T14:06:12.794000Z,,2024-02-15T14:06:13.453019Z,2217.0,CVPIIDEI,1248,35,Male,Black,United States,United States,United States,English,No,Part-Time,Not Applicable
63f3731fccf0d4e95aa80d11,<b>It?s better to know what?s true than to know what?s moral.,Highly disagree,47/94,Somewhat disagree,2,1708004989487,1708005009112,\Somewhat disagree\,\Somewhat disagree\,\2\,1708005001842,1708005001842,12355,12355,19625,buq,qns-item-noham,47,1222025,0.0-1.0-0.46,65ce11a5b732e4800b002af0,AWAITING REVIEW,2024-02-15T13:29:15.832000Z,2024-02-15T14:06:12.794000Z,,2024-02-15T14:06:13.453019Z,2217.0,CVPIIDEI,1248,35,Male,Black,United States,United States,United States,English,No,Part-Time,Not Applicable
63f3731fccf0d4e95aa80d11,<b>I used to think the world was less complicated than I do now.,Highly disagree,48/94,Somewhat agree,3,1708005009114,1708005018924,\Somewhat agree\,\Somewhat agree\,\3\,1708005017830,1708005017830,8716,8716,9810,buq,qns-item-noham,48,1231837,0.0-1.0-0.47,65ce11a5b732e4800b002af0,AWAITING REVIEW,2024-02-15T13:29:15.832000Z,2024-02-15T14:06:12.794000Z,,2024-02-15T14:06:13.453019Z,2217.0,CVPIIDEI,1248,35,Male,Black,United States,United States,United States,English,No,Part-Time,Not Applicable
63f3731fccf0d4e95aa80d11,<b>People are usually completely right or completely wrong.,Highly disagree,49/94,Highly agree,4,1708005018926,1708005026019,\Highly agree\,\Highly agree\,\4\,1708005025218,1708005025218,6292,6292,7093,buq,qns-item-noham,49,1238932,0.0-1.0-0.48,65ce11a5b732e4800b002af0,AWAITING REVIEW,2024-02-15T13:29:15.832000Z,2024-02-15T14:06:12.794000Z,,2024-02-15T14:06:13.453019Z,2217.0,CVPIIDEI,1248,35,Male,Black,United States,United States,United States,English,No,Part-Time,Not Applicable
63f3731fccf0d4e95aa80d11,<b>I spend a lot of time considering alternatives to my beliefs.,Highly disagree,50/94,Highly disagree,1,1708005026022,1708005031563,\Highly disagree\,\Highly disagree\,\1\,1708005030641,1708005030641,4619,4619,5541,buq,qns-item-noham,50,1244476,0.0-1.0-0.49,65ce11a5b732e4800b002af0,AWAITING REVIEW,2024-02-15T13:29:15.832000Z,2024-02-15T14:06:12.794000Z,,2024-02-15T14:06:13.453019Z,2217.0,CVPIIDEI,1248,35,Male,Black,United States,United States,United States,English,No,Part-Time,Not Applicable
63f3731fccf0d4e95aa80d11,"<b>Political enemies need to be defeated, not convinced.",Highly disagree,51/94,Somewhat agree,3,1708005031566,1708005047106,\Somewhat agree\,\Somewhat agree\,\3\,1708005045770,1708005045770,14204,14204,15540,buq,qns-item-noham,51,1260019,0.0-1.0-0.50,65ce11a5b732e4800b002af0,AWAITING REVIEW,2024-02-15T13:29:15.832000Z,2024-02-15T14:06:12.794000Z,,2024-02-15T14:06:13.453019Z,2217.0,CVPIIDEI,1248,35,Male,Black,United States,United States,United States,English,No,Part-Time,Not Applicable
63f3731fccf0d4e95aa80d11,<b>I form my political views only after meticulously gathering historical and present information about their policies.,Highly disagree,52/94,Somewhat agree,3,1708005047108,1708005080559,\Highly agree\,\Somewhat agree\,\4\,1708005078037,1708005079267,30929,32159,33451,buq,qns-item-noham,52,1293472,0.0-1.0-0.51,65ce11a5b732e4800b002af0,AWAITING REVIEW,2024-02-15T13:29:15.832000Z,2024-02-15T14:06:12.794000Z,,2024-02-15T14:06:13.453019Z,2217.0,CVPIIDEI,1248,35,Male,Black,United States,United States,United States,English,No,Part-Time,Not Applicable
63f3731fccf0d4e95aa80d11,<b>It is difficult for me to remember the last time I was surprised by politics.,Highly disagree,53/94,Somewhat disagree,2,1708005080561,1708005087513,\Somewhat disagree\,\Somewhat disagree\,\2\,1708005086475,1708005086475,5914,5914,6952,buq,qns-item-noham,53,1300426,0.0-1.0-0.52,65ce11a5b732e4800b002af0,AWAITING REVIEW,2024-02-15T13:29:15.832000Z,2024-02-15T14:06:12.794000Z,,2024-02-15T14:06:13.453019Z,2217.0,CVPIIDEI,1248,35,Male,Black,United States,United States,United States,English,No,Part-Time,Not Applicable
63f3731fccf0d4e95aa80d11,"<b>When I find out I?m wrong, I think a lot about my related beliefs.",Highly disagree,54/94,Somewhat disagree,2,1708005087516,1708005096687,\Somewhat disagree\,\Somewhat disagree\,\2\,1708005095849,1708005095849,8333,8333,9171,buq,qns-item-noham,54,1309600,0.0-1.0-0.53,65ce11a5b732e4800b002af0,AWAITING REVIEW,2024-02-15T13:29:15.832000Z,2024-02-15T14:06:12.794000Z,,2024-02-15T14:06:13.453019Z,2217.0,CVPIIDEI,1248,35,Male,Black,United States,United States,United States,English,No,Part-Time,Not Applicable
63f3731fccf0d4e95aa80d11,"<b>If the political party I support messes up, it makes me think you can?t trust anyone these days",Highly disagree,55/94,Somewhat agree,3,1708005096689,1708005154661,\Somewhat agree\,\Somewhat agree\,\3\,1708005153782,1708005153782,57093,57093,57972,buq,qns-item-noham,55,1367574,0.0-1.0-0.54,65ce11a5b732e4800b002af0,AWAITING REVIEW,2024-02-15T13:29:15.832000Z,2024-02-15T14:06:12.794000Z,,2024-02-15T14:06:13.453019Z,2217.0,CVPIIDEI,1248,35,Male,Black,United States,United States,United States,English,No,Part-Time,Not Applicable
63f3731fccf0d4e95aa80d11,<b>People?s brains turn off when they talk about politics.,Highly disagree,56/94,Somewhat disagree,2,1708005154664,1708005161920,\Somewhat disagree\,\Somewhat disagree\,\2\,1708005160971,1708005160971,6307,6307,7256,buq,qns-item-noham,56,1374833,0.0-1.0-0.55,65ce11a5b732e4800b002af0,AWAITING REVIEW,2024-02-15T13:29:15.832000Z,2024-02-15T14:06:12.794000Z,,2024-02-15T14:06:13.453019Z,2217.0,CVPIIDEI,1248,35,Male,Black,United States,United States,United States,English,No,Part-Time,Not Applicable
63f3731fccf0d4e95aa80d11,<b>People who are wrong are usually just ignoring the obvious.,Highly disagree,57/94,Somewhat disagree,2,1708005161923,1708005168762,\Somewhat disagree\,\Somewhat disagree\,\2\,1708005167705,1708005167705,5782,5782,6839,buq,qns-item-noham,57,1381675,0.0-1.0-0.56,65ce11a5b732e4800b002af0,AWAITING REVIEW,2024-02-15T13:29:15.832000Z,2024-02-15T14:06:12.794000Z,,2024-02-15T14:06:13.453019Z,2217.0,CVPIIDEI,1248,35,Male,Black,United States,United States,United States,English,No,Part-Time,Not Applicable
63f3731fccf0d4e95aa80d11,"<b>When forming my views on people, I rely more on what they are like now rather than rely on my past experience with them.",Highly disagree,58/94,Somewhat disagree,2,1708005168764,1708005317580,\Somewhat disagree\,\Somewhat disagree\,\2\,1708005316358,1708005316358,147594,147594,148816,buq,qns-item-noham,58,1530493,0.0-1.0-0.57,65ce11a5b732e4800b002af0,AWAITING REVIEW,2024-02-15T13:29:15.832000Z,2024-02-15T14:06:12.794000Z,,2024-02-15T14:06:13.453019Z,2217.0,CVPIIDEI,1248,35,Male,Black,United States,United States,United States,English,No,Part-Time,Not Applicable
63f3731fccf0d4e95aa80d11,"<b>When people contradict my beliefs, I usually know about their evidence already.",Highly disagree,59/94,Somewhat disagree,2,1708005317582,1708005327131,\Somewhat disagree\,\Somewhat disagree\,\2\,1708005325382,1708005325382,7800,7800,9549,buq,qns-item-noham,59,1540044,0.0-1.0-0.58,65ce11a5b732e4800b002af0,AWAITING REVIEW,2024-02-15T13:29:15.832000Z,2024-02-15T14:06:12.794000Z,,2024-02-15T14:06:13.453019Z,2217.0,CVPIIDEI,1248,35,Male,Black,United States,United States,United States,English,No,Part-Time,Not Applicable
63f3731fccf0d4e95aa80d11,<b>Figuring out what?s true and what?s false mainly requires a strong moral compass.,Highly disagree,60/94,Somewhat disagree,2,1708005327134,1708005343144,\Somewhat disagree\,\Somewhat disagree\,\2\,1708005342147,1708005342147,15013,15013,16010,buq,qns-item-noham,60,1556058,0.0-1.0-0.59,65ce11a5b732e4800b002af0,AWAITING REVIEW,2024-02-15T13:29:15.832000Z,2024-02-15T14:06:12.794000Z,,2024-02-15T14:06:13.453019Z,2217.0,CVPIIDEI,1248,35,Male,Black,United States,United States,United States,English,No,Part-Time,Not Applicable
63f3731fccf0d4e95aa80d11,"<b>Usually I?m wrong about simple things, not complicated ones.",Highly disagree,61/94,Highly disagree,1,1708005343147,1708005353642,\Highly disagree\,\Highly disagree\,\1\,1708005351948,1708005351948,8801,8801,10495,buq,qns-item-noham,61,1566555,0.0-1.0-0.60,65ce11a5b732e4800b002af0,AWAITING REVIEW,2024-02-15T13:29:15.832000Z,2024-02-15T14:06:12.794000Z,,2024-02-15T14:06:13.453019Z,2217.0,CVPIIDEI,1248,35,Male,Black,United States,United States,United States,English,No,Part-Time,Not Applicable
63f3731fccf0d4e95aa80d11,<b>Getting all the information I want about important things is hard.,Highly disagree,62/94,Somewhat agree,3,1708005353644,1708005363193,\Somewhat agree\,\Somewhat agree\,\3\,1708005360340,1708005360340,6696,6696,9549,buq,qns-item-noham,62,1576106,0.0-1.0-0.61,65ce11a5b732e4800b002af0,AWAITING REVIEW,2024-02-15T13:29:15.832000Z,2024-02-15T14:06:12.794000Z,,2024-02-15T14:06:13.453019Z,2217.0,CVPIIDEI,1248,35,Male,Black,United States,United States,United States,English,No,Part-Time,Not Applicable
63f3731fccf0d4e95aa80d11,<b>Most false beliefs spread because people try to deceive one another.,Highly disagree,63/94,Somewhat agree,3,1708005363196,1708005375717,\Somewhat agree\,\Somewhat agree\,\3\,1708005374553,1708005374553,11357,11357,12521,buq,qns-item-noham,63,1588630,0.0-1.0-0.62,65ce11a5b732e4800b002af0,AWAITING REVIEW,2024-02-15T13:29:15.832000Z,2024-02-15T14:06:12.794000Z,,2024-02-15T14:06:13.453019Z,2217.0,CVPIIDEI,1248,35,Male,Black,United States,United States,United States,English,No,Part-Time,Not Applicable
63f3731fccf0d4e95aa80d11,<b>I can usually find something to agree with in most people?s beliefs.,Highly disagree,64/94,Somewhat agree,3,1708005375720,1708005388385,\Somewhat agree\,\Somewhat agree\,\3\,1708005381634,1708005381634,5914,5914,12665,buq,qns-item-noham,64,1601298,0.0-1.0-0.63,65ce11a5b732e4800b002af0,AWAITING REVIEW,2024-02-15T13:29:15.832000Z,2024-02-15T14:06:12.794000Z,,2024-02-15T14:06:13.453019Z,2217.0,CVPIIDEI,1248,35,Male,Black,United States,United States,United States,English,No,Part-Time,Not Applicable
63f3731fccf0d4e95aa80d11,<b>I only form my views of people once I get to know them very well.,Highly disagree,65/94,Highly agree,4,1708005388388,1708005417822,\Highly agree\,\Highly agree\,\4\,1708005396327,1708005396327,7939,7939,29434,buq,qns-item-noham,65,1630736,0.0-1.0-0.64,65ce11a5b732e4800b002af0,AWAITING REVIEW,2024-02-15T13:29:15.832000Z,2024-02-15T14:06:12.794000Z,,2024-02-15T14:06:13.453019Z,2217.0,CVPIIDEI,1248,35,Male,Black,United States,United States,United States,English,No,Part-Time,Not Applicable
63f3731fccf0d4e95aa80d11,"<b>When people tell me important things about the world, I usually believe them.",Highly disagree,66/94,Somewhat agree,3,1708005417825,1708005424205,\Somewhat agree\,\Somewhat agree\,\3\,1708005423304,1708005423304,5479,5479,6380,buq,qns-item-noham,66,1637118,0.0-1.0-0.65,65ce11a5b732e4800b002af0,AWAITING REVIEW,2024-02-15T13:29:15.832000Z,2024-02-15T14:06:12.794000Z,,2024-02-15T14:06:13.453019Z,2217.0,CVPIIDEI,1248,35,Male,Black,United States,United States,United States,English,No,Part-Time,Not Applicable
63f3731fccf0d4e95aa80d11,"<b>If a friend does something that upsets me, it reminds me what an unpredictable place the world is.",Highly disagree,67/94,Somewhat agree,3,1708005424207,1708005431859,\Somewhat agree\,\Somewhat agree\,\3\,1708005431084,1708005431084,6877,6877,7652,buq,qns-item-noham,67,1644772,0.0-1.0-0.66,65ce11a5b732e4800b002af0,AWAITING REVIEW,2024-02-15T13:29:15.832000Z,2024-02-15T14:06:12.794000Z,,2024-02-15T14:06:13.453019Z,2217.0,CVPIIDEI,1248,35,Male,Black,United States,United States,United States,English,No,Part-Time,Not Applicable
63f3731fccf0d4e95aa80d11,<b>People tend to believe whatever is good for their friends.,Highly disagree,68/94,Somewhat agree,3,1708005431863,1708005440770,\Somewhat agree\,\Somewhat agree\,\3\,1708005439460,1708005439460,7597,7597,8907,buq,qns-item-noham,68,1653683,0.0-1.0-0.67,65ce11a5b732e4800b002af0,AWAITING REVIEW,2024-02-15T13:29:15.832000Z,2024-02-15T14:06:12.794000Z,,2024-02-15T14:06:13.453019Z,2217.0,CVPIIDEI,1248,35,Male,Black,United States,United States,United States,English,No,Part-Time,Not Applicable
63f3731fccf0d4e95aa80d11,<b>I used to be more certain my beliefs were true.,Highly disagree,69/94,Somewhat agree,3,1708005440773,1708005511585,\Somewhat agree\,\Somewhat agree\,\3\,1708005508419,1708005508419,67646,67646,70812,buq,qns-item-noham,69,1724498,0.0-1.0-0.68,65ce11a5b732e4800b002af0,AWAITING REVIEW,2024-02-15T13:29:15.832000Z,2024-02-15T14:06:12.794000Z,,2024-02-15T14:06:13.453019Z,2217.0,CVPIIDEI,1248,35,Male,Black,United States,United States,United States,English,No,Part-Time,Not Applicable
63f3731fccf0d4e95aa80d11,<b>It?s often pretty easy to figure out whether something is true based on who said it.,Highly disagree,70/94,Somewhat agree,3,1708005511588,1708005593852,\Somewhat agree\,\Somewhat agree\,\3\,1708005592763,1708005592763,81175,81175,82264,buq,qns-item-noham,70,1806765,0.0-1.0-0.69,65ce11a5b732e4800b002af0,AWAITING REVIEW,2024-02-15T13:29:15.832000Z,2024-02-15T14:06:12.794000Z,,2024-02-15T14:06:13.453019Z,2217.0,CVPIIDEI,1248,35,Male,Black,United States,United States,United States,English,No,Part-Time,Not Applicable
63f3731fccf0d4e95aa80d11,<b>I transform into a hummingbird every day.,Highly disagree,71/94,Highly disagree,1,1708005593854,1708005598848,\Highly disagree\,\Highly disagree\,\1\,1708005597614,1708005597614,3760,3760,4994,buq,qns-item-noham,71,1811761,0.0-1.0-0.70,65ce11a5b732e4800b002af0,AWAITING REVIEW,2024-02-15T13:29:15.832000Z,2024-02-15T14:06:12.794000Z,,2024-02-15T14:06:13.453019Z,2217.0,CVPIIDEI,1248,35,Male,Black,United States,United States,United States,English,No,Part-Time,Not Applicable
63f3731fccf0d4e95aa80d11,<b>I think a lot about arguments against my views.,Highly disagree,72/94,Somewhat disagree,2,1708005598849,1708005603044,\Somewhat disagree\,\Somewhat disagree\,\2\,1708005602226,1708005602226,3377,3377,4195,buq,qns-item-noham,72,1815957,0.0-1.0-0.71,65ce11a5b732e4800b002af0,AWAITING REVIEW,2024-02-15T13:29:15.832000Z,2024-02-15T14:06:12.794000Z,,2024-02-15T14:06:13.453019Z,2217.0,CVPIIDEI,1248,35,Male,Black,United States,United States,United States,English,No,Part-Time,Not Applicable
63f3731fccf0d4e95aa80d11,<b>Personal experience is usually more important than facts and figures.,Highly disagree,73/94,Somewhat agree,3,1708005603046,1708005618030,\Somewhat agree\,\Somewhat agree\,\3\,1708005617168,1708005617168,14122,14122,14984,buq,qns-item-noham,73,1830943,0.0-1.0-0.72,65ce11a5b732e4800b002af0,AWAITING REVIEW,2024-02-15T13:29:15.832000Z,2024-02-15T14:06:12.794000Z,,2024-02-15T14:06:13.453019Z,2217.0,CVPIIDEI,1248,35,Male,Black,United States,United States,United States,English,No,Part-Time,Not Applicable
63f3731fccf0d4e95aa80d11,<b>I?ve been tricked before about important matters.,Highly disagree,74/94,Somewhat disagree,2,1708005618032,1708005625086,\Somewhat disagree\,\Somewhat disagree\,\2\,1708005624124,1708005624124,6092,6092,7054,buq,qns-item-noham,74,1837999,0.0-1.0-0.73,65ce11a5b732e4800b002af0,AWAITING REVIEW,2024-02-15T13:29:15.832000Z,2024-02-15T14:06:12.794000Z,,2024-02-15T14:06:13.453019Z,2217.0,CVPIIDEI,1248,35,Male,Black,United States,United States,United States,English,No,Part-Time,Not Applicable
63f3731fccf0d4e95aa80d11,<b>I would need to be totally wowed if I were to change my opinion of a restaurant I don?t like.,Highly disagree,75/94,Somewhat agree,3,1708005625089,1708005634938,\Somewhat agree\,\Somewhat agree\,\3\,1708005633902,1708005633902,8813,8813,9849,buq,qns-item-noham,75,1847851,0.0-1.0-0.74,65ce11a5b732e4800b002af0,AWAITING REVIEW,2024-02-15T13:29:15.832000Z,2024-02-15T14:06:12.794000Z,,2024-02-15T14:06:13.453019Z,2217.0,CVPIIDEI,1248,35,Male,Black,United States,United States,United States,English,No,Part-Time,Not Applicable
63f3731fccf0d4e95aa80d11,<b>I care a lot about politics.,Highly disagree,76/94,Somewhat agree,3,1708005634942,1708005638078,\Somewhat agree\,\Somewhat agree\,\3\,1708005636774,1708005636774,1832,1832,3136,buq,qns-item-noham,76,1850991,0.0-1.0-0.75,65ce11a5b732e4800b002af0,AWAITING REVIEW,2024-02-15T13:29:15.832000Z,2024-02-15T14:06:12.794000Z,,2024-02-15T14:06:13.453019Z,2217.0,CVPIIDEI,1248,35,Male,Black,United States,United States,United States,English,No,Part-Time,Not Applicable
63f3731fccf0d4e95aa80d11,<b>There are some topics I?ve been really wrong about.,Highly disagree,77/94,Somewhat disagree,2,1708005638081,1708005643628,\Somewhat disagree\,\Somewhat disagree\,\2\,1708005642393,1708005642393,4312,4312,5547,buq,qns-item-noham,77,1856541,0.0-1.0-0.76,65ce11a5b732e4800b002af0,AWAITING REVIEW,2024-02-15T13:29:15.832000Z,2024-02-15T14:06:12.794000Z,,2024-02-15T14:06:13.453019Z,2217.0,CVPIIDEI,1248,35,Male,Black,United States,United States,United States,English,No,Part-Time,Not Applicable
63f3731fccf0d4e95aa80d11,<b>Most beliefs can be supported with at least some evidence.,Highly disagree,78/94,Somewhat agree,3,1708005643630,1708005649814,\Somewhat agree\,\Somewhat agree\,\3\,1708005648880,1708005648880,5250,5250,6184,buq,qns-item-noham,78,1862727,0.0-1.0-0.77,65ce11a5b732e4800b002af0,AWAITING REVIEW,2024-02-15T13:29:15.832000Z,2024-02-15T14:06:12.794000Z,,2024-02-15T14:06:13.453019Z,2217.0,CVPIIDEI,1248,35,Male,Black,United States,United States,United States,English,No,Part-Time,Not Applicable
63f3731fccf0d4e95aa80d11,<b>Other people make life out to be more complicated than it really is.,Highly disagree,79/94,Somewhat agree,3,1708005649816,1708005656158,\Somewhat agree\,\Somewhat agree\,\3\,1708005655389,1708005655389,5573,5573,6342,buq,qns-item-noham,79,1869071,0.0-1.0-0.78,65ce11a5b732e4800b002af0,AWAITING REVIEW,2024-02-15T13:29:15.832000Z,2024-02-15T14:06:12.794000Z,,2024-02-15T14:06:13.453019Z,2217.0,CVPIIDEI,1248,35,Male,Black,United States,United States,United States,English,No,Part-Time,Not Applicable
63f3731fccf0d4e95aa80d11,"<b>Policy details don?t matter much, just the big picture.",Highly disagree,80/94,Somewhat disagree,2,1708005656160,1708005731943,\Somewhat disagree\,\Somewhat disagree\,\2\,1708005730435,1708005730435,74275,74275,75783,buq,qns-item-noham,80,1944856,0.0-1.0-0.79,65ce11a5b732e4800b002af0,AWAITING REVIEW,2024-02-15T13:29:15.832000Z,2024-02-15T14:06:12.794000Z,,2024-02-15T14:06:13.453019Z,2217.0,CVPIIDEI,1248,35,Male,Black,United States,United States,United States,English,No,Part-Time,Not Applicable
63f3731fccf0d4e95aa80d11,<b>I know my friends so well they can hardly ever surprise me.,Highly disagree,81/94,Somewhat disagree,2,1708005731945,1708005741339,\Somewhat disagree\,\Somewhat disagree\,\2\,1708005740133,1708005740133,8188,8188,9394,buq,qns-item-noham,81,1954252,0.0-1.0-0.80,65ce11a5b732e4800b002af0,AWAITING REVIEW,2024-02-15T13:29:15.832000Z,2024-02-15T14:06:12.794000Z,,2024-02-15T14:06:13.453019Z,2217.0,CVPIIDEI,1248,35,Male,Black,United States,United States,United States,English,No,Part-Time,Not Applicable
63f3731fccf0d4e95aa80d11,<b>I do not often change my views on people.,Highly disagree,82/94,Somewhat agree,3,1708005741341,1708005749159,\Somewhat agree\,\Somewhat agree\,\3\,1708005747675,1708005747675,6334,6334,7818,buq,qns-item-noham,82,1962072,0.0-1.0-0.81,65ce11a5b732e4800b002af0,AWAITING REVIEW,2024-02-15T13:29:15.832000Z,2024-02-15T14:06:12.794000Z,,2024-02-15T14:06:13.453019Z,2217.0,CVPIIDEI,1248,35,Male,Black,United States,United States,United States,English,No,Part-Time,Not Applicable
63f3731fccf0d4e95aa80d11,<b>I?m more certain about my beliefs than I used to be.,Highly disagree,83/94,Highly agree,4,1708005749161,1708005755329,\Somewhat agree\,\Highly agree\,\3\,1708005752701,1708005754149,3540,4988,6168,buq,qns-item-noham,83,1968242,0.0-1.0-0.82,65ce11a5b732e4800b002af0,AWAITING REVIEW,2024-02-15T13:29:15.832000Z,2024-02-15T14:06:12.794000Z,,2024-02-15T14:06:13.453019Z,2217.0,CVPIIDEI,1248,35,Male,Black,United States,United States,United States,English,No,Part-Time,Not Applicable
63f3731fccf0d4e95aa80d11,<b>People often tell falsehoods unintentionally.,Highly disagree,84/94,Somewhat disagree,2,1708005755331,1708005762315,\Somewhat disagree\,\Somewhat disagree\,\2\,1708005761343,1708005761343,6012,6012,6984,buq,qns-item-noham,84,1975228,0.0-1.0-0.83,65ce11a5b732e4800b002af0,AWAITING REVIEW,2024-02-15T13:29:15.832000Z,2024-02-15T14:06:12.794000Z,,2024-02-15T14:06:13.453019Z,2217.0,CVPIIDEI,1248,35,Male,Black,United States,United States,United States,English,No,Part-Time,Not Applicable
63f3731fccf0d4e95aa80d11,<b>Most people don?t know much about most things.,Highly disagree,85/94,Somewhat agree,3,1708005762319,1708005795015,\Somewhat agree\,\Somewhat agree\,\3\,1708005794174,1708005794174,31855,31855,32696,buq,qns-item-noham,85,2007928,0.0-1.0-0.84,65ce11a5b732e4800b002af0,AWAITING REVIEW,2024-02-15T13:29:15.832000Z,2024-02-15T14:06:12.794000Z,,2024-02-15T14:06:13.453019Z,2217.0,CVPIIDEI,1248,35,Male,Black,United States,United States,United States,English,No,Part-Time,Not Applicable
63f3731fccf0d4e95aa80d11,"<b>If I find out something new about someone, I easily change my views about them.",Highly disagree,86/94,Somewhat disagree,2,1708005795018,1708005801044,\Somewhat disagree\,\Somewhat disagree\,\2\,1708005799904,1708005799904,4886,4886,6026,buq,qns-item-noham,86,2013957,0.0-1.0-0.85,65ce11a5b732e4800b002af0,AWAITING REVIEW,2024-02-15T13:29:15.832000Z,2024-02-15T14:06:12.794000Z,,2024-02-15T14:06:13.453019Z,2217.0,CVPIIDEI,1248,35,Male,Black,United States,United States,United States,English,No,Part-Time,Not Applicable
63f3731fccf0d4e95aa80d11,<b>Having true beliefs is difficult.,Highly disagree,87/94,Somewhat agree,3,1708005801046,1708005810480,\Somewhat agree\,\Somewhat agree\,\3\,1708005806794,1708005806794,5748,5748,9434,buq,qns-item-noham,87,2023393,0.0-1.0-0.86,65ce11a5b732e4800b002af0,AWAITING REVIEW,2024-02-15T13:29:15.832000Z,2024-02-15T14:06:12.794000Z,,2024-02-15T14:06:13.453019Z,2217.0,CVPIIDEI,1248,35,Male,Black,United States,United States,United States,English,No,Part-Time,Not Applicable
63f3731fccf0d4e95aa80d11,<b>I don?t try new foods since I know I won?t like them.,Highly disagree,88/94,Somewhat disagree,2,1708005810483,1708005861222,\Somewhat disagree\,\Somewhat disagree\,\2\,1708005859862,1708005859862,49379,49379,50739,buq,qns-item-noham,88,2074135,0.0-1.0-0.87,65ce11a5b732e4800b002af0,AWAITING REVIEW,2024-02-15T13:29:15.832000Z,2024-02-15T14:06:12.794000Z,,2024-02-15T14:06:13.453019Z,2217.0,CVPIIDEI,1248,35,Male,Black,United States,United States,United States,English,No,Part-Time,Not Applicable
63f3731fccf0d4e95aa80d11,<b>Other people trick each other a lot.,Highly disagree,89/94,Somewhat agree,3,1708005861224,1708005866976,\Somewhat agree\,\Somewhat agree\,\3\,1708005865392,1708005865392,4168,4168,5752,buq,qns-item-noham,89,2079889,0.0-1.0-0.88,65ce11a5b732e4800b002af0,AWAITING REVIEW,2024-02-15T13:29:15.832000Z,2024-02-15T14:06:12.794000Z,,2024-02-15T14:06:13.453019Z,2217.0,CVPIIDEI,1248,35,Male,Black,United States,United States,United States,English,No,Part-Time,Not Applicable
63f3731fccf0d4e95aa80d11,<b>I would need to learn a lot about a person for my opinion of them to be swayed.,Highly disagree,90/94,Somewhat agree,3,1708005866978,1708005882602,\Somewhat agree\,\Somewhat agree\,\3\,1708005881652,1708005881652,14674,14674,15624,buq,qns-item-noham,90,2095515,0.0-1.0-0.89,65ce11a5b732e4800b002af0,AWAITING REVIEW,2024-02-15T13:29:15.832000Z,2024-02-15T14:06:12.794000Z,,2024-02-15T14:06:13.453019Z,2217.0,CVPIIDEI,1248,35,Male,Black,United States,United States,United States,English,No,Part-Time,Not Applicable
63f3731fccf0d4e95aa80d11,<b>People can?t usually trick me when it comes to topics I care about.,Highly disagree,91/94,Somewhat agree,3,1708005882605,1708005887744,\Somewhat agree\,\Somewhat agree\,\3\,1708005887078,1708005887078,4473,4473,5139,buq,qns-item-noham,91,2100657,0.0-1.0-0.90,65ce11a5b732e4800b002af0,AWAITING REVIEW,2024-02-15T13:29:15.832000Z,2024-02-15T14:06:12.794000Z,,2024-02-15T14:06:13.453019Z,2217.0,CVPIIDEI,1248,35,Male,Black,United States,United States,United States,English,No,Part-Time,Not Applicable
63f3731fccf0d4e95aa80d11,<b>I do not often change my views on food.,Highly disagree,92/94,Somewhat agree,3,1708005887746,1708005892342,\Somewhat agree\,\Somewhat agree\,\3\,1708005891236,1708005891236,3490,3490,4596,buq,qns-item-noham,92,2105255,0.0-1.0-0.91,65ce11a5b732e4800b002af0,AWAITING REVIEW,2024-02-15T13:29:15.832000Z,2024-02-15T14:06:12.794000Z,,2024-02-15T14:06:13.453019Z,2217.0,CVPIIDEI,1248,35,Male,Black,United States,United States,United States,English,No,Part-Time,Not Applicable
63f3731fccf0d4e95aa80d11,<b>Specific policies are often very important to me.,Highly disagree,93/94,Somewhat agree,3,1708005892344,1708005897374,\Somewhat agree\,\Somewhat agree\,\3\,1708005896162,1708005896162,3818,3818,5030,buq,qns-item-noham,93,2110287,0.0-1.0-0.92,65ce11a5b732e4800b002af0,AWAITING REVIEW,2024-02-15T13:29:15.832000Z,2024-02-15T14:06:12.794000Z,,2024-02-15T14:06:13.453019Z,2217.0,CVPIIDEI,1248,35,Male,Black,United States,United States,United States,English,No,Part-Time,Not Applicable
63f3731fccf0d4e95aa80d11,<b>Most people are woefully under-informed.,Highly disagree,94/94,Somewhat agree,3,1708005897376,1708005901775,\Somewhat agree\,\Somewhat agree\,\3\,1708005900575,1708005900575,3199,3199,4399,buq,qns-item-noham,94,2114688,0.0-1.0-0.93,65ce11a5b732e4800b002af0,AWAITING REVIEW,2024-02-15T13:29:15.832000Z,2024-02-15T14:06:12.794000Z,,2024-02-15T14:06:13.453019Z,2217.0,CVPIIDEI,1248,35,Male,Black,United States,United States,United States,English,No,Part-Time,Not Applicable
63f3731fccf0d4e95aa80d11,,,,,,,,,,,,,,,,,,,,,65ce11a5b732e4800b002af0,AWAITING REVIEW,2024-02-15T13:29:15.832000Z,2024-02-15T14:06:12.794000Z,,2024-02-15T14:06:13.453019Z,2217.0,CVPIIDEI,1248,35,Male,Black,United States,United States,United States,English,No,Part-Time,Not Applicable
