PROLIFIC_PID,Question,qns_options,quest_num,answer,answer_num,question_load_timestamp,next_btn_timestamp,text_selected,final_text_selected,option_num_selected,preview_timestamps,final_text_selected_time_stamp,rt_first_option_click,rt_final_option_click,rt_submit_click,questionnaire,trial_type,trial_index,time_elapsed,internal_node_id,Demographic_Submission id,Demographic_Status,Demographic_Started at,Demographic_Completed at,Demographic_Reviewed at,Demographic_Archived at,Demographic_Time taken,Demographic_Completion code,Demographic_Total approvals,Demographic_Age,Demographic_Sex,Demographic_Ethnicity simplified,Demographic_Country of birth,Demographic_Country of residence,Demographic_Nationality,Demographic_Language,Demographic_Student status,Demographic_Employment status,Demographic_Custom study tncs accepted at
5a95700f1eda410001363018,<b>Knowing what?s true and knowing what to do about it are usually basically the same.,Highly disagree,1/94,Somewhat disagree,2,1708004173412,1708004191614,\Somewhat disagree\,\Somewhat disagree\,\2\,1708004189780,1708004189780,16368,16368,18202,buq,qns-item-noham,1,23004,0.0-1.0-0.0,65ce13325340f39a0311e224,AWAITING REVIEW,2024-02-15T13:35:53.158000Z,2024-02-15T13:48:49.414000Z,,2024-02-15T13:48:50.254296Z,777.0,CVPIIDEI,6,31,Female,White,United States,United States,United States,English,No,Full-Time,Not Applicable
5a95700f1eda410001363018,<b>Most people just believe whatever is convenient for them.,Highly disagree,2/94,Somewhat agree,3,1708004191615,1708004200464,\Somewhat agree\,\Somewhat agree\,\3\,1708004199424,1708004199424,7809,7809,8849,buq,qns-item-noham,2,31855,0.0-1.0-0.1,65ce13325340f39a0311e224,AWAITING REVIEW,2024-02-15T13:35:53.158000Z,2024-02-15T13:48:49.414000Z,,2024-02-15T13:48:50.254296Z,777.0,CVPIIDEI,6,31,Female,White,United States,United States,United States,English,No,Full-Time,Not Applicable
5a95700f1eda410001363018,<b>Having some big beliefs helps me sort out minor ones.,Highly disagree,3/94,Somewhat disagree,2,1708004200466,1708004208379,\Somewhat disagree\,\Somewhat disagree\,\2\,1708004207101,1708004207101,6635,6635,7913,buq,qns-item-noham,3,39769,0.0-1.0-0.2,65ce13325340f39a0311e224,AWAITING REVIEW,2024-02-15T13:35:53.158000Z,2024-02-15T13:48:49.414000Z,,2024-02-15T13:48:50.254296Z,777.0,CVPIIDEI,6,31,Female,White,United States,United States,United States,English,No,Full-Time,Not Applicable
5a95700f1eda410001363018,<b>Political questions are usually pretty complicated.,Highly disagree,4/94,Somewhat disagree,2,1708004208384,1708004216998,\Somewhat disagree\,\Somewhat disagree\,\2\,1708004215991,1708004215991,7607,7607,8614,buq,qns-item-noham,4,48388,0.0-1.0-0.3,65ce13325340f39a0311e224,AWAITING REVIEW,2024-02-15T13:35:53.158000Z,2024-02-15T13:48:49.414000Z,,2024-02-15T13:48:50.254296Z,777.0,CVPIIDEI,6,31,Female,White,United States,United States,United States,English,No,Full-Time,Not Applicable
5a95700f1eda410001363018,<b>Figuring out what?s important in life requires learning a lot of facts.,Highly disagree,5/94,Somewhat disagree,2,1708004217000,1708004223467,\Somewhat disagree\,\Somewhat disagree\,\2\,1708004222095,1708004222095,5095,5095,6467,buq,qns-item-noham,5,54857,0.0-1.0-0.4,65ce13325340f39a0311e224,AWAITING REVIEW,2024-02-15T13:35:53.158000Z,2024-02-15T13:48:49.414000Z,,2024-02-15T13:48:50.254296Z,777.0,CVPIIDEI,6,31,Female,White,United States,United States,United States,English,No,Full-Time,Not Applicable
5a95700f1eda410001363018,<b>It is difficult for me to remember the last time I was surprised by politics.,Highly disagree,6/94,Somewhat agree,3,1708004223469,1708004229455,\Somewhat agree\,\Somewhat agree\,\3\,1708004227637,1708004227637,4168,4168,5986,buq,qns-item-noham,6,60845,0.0-1.0-0.5,65ce13325340f39a0311e224,AWAITING REVIEW,2024-02-15T13:35:53.158000Z,2024-02-15T13:48:49.414000Z,,2024-02-15T13:48:50.254296Z,777.0,CVPIIDEI,6,31,Female,White,United States,United States,United States,English,No,Full-Time,Not Applicable
5a95700f1eda410001363018,<b>People?s false beliefs are understandable.,Highly disagree,7/94,Highly disagree,1,1708004229457,1708004240232,\Highly disagree\,\Highly disagree\,\1\,1708004238856,1708004238856,9399,9399,10775,buq,qns-item-noham,7,71622,0.0-1.0-0.6,65ce13325340f39a0311e224,AWAITING REVIEW,2024-02-15T13:35:53.158000Z,2024-02-15T13:48:49.414000Z,,2024-02-15T13:48:50.254296Z,777.0,CVPIIDEI,6,31,Female,White,United States,United States,United States,English,No,Full-Time,Not Applicable
5a95700f1eda410001363018,<b>I spend a lot of time trying to be informed about politics.,Highly disagree,8/94,Somewhat agree,3,1708004240234,1708004244882,\Somewhat agree\,\Somewhat agree\,\3\,1708004243744,1708004243744,3510,3510,4648,buq,qns-item-noham,8,76272,0.0-1.0-0.7,65ce13325340f39a0311e224,AWAITING REVIEW,2024-02-15T13:35:53.158000Z,2024-02-15T13:48:49.414000Z,,2024-02-15T13:48:50.254296Z,777.0,CVPIIDEI,6,31,Female,White,United States,United States,United States,English,No,Full-Time,Not Applicable
5a95700f1eda410001363018,<b>I think a lot about whether my beliefs are right.,Highly disagree,9/94,Somewhat agree,3,1708004244885,1708004250518,\Somewhat agree\,\Somewhat agree\,\3\,1708004249296,1708004249296,4411,4411,5633,buq,qns-item-noham,9,81908,0.0-1.0-0.8,65ce13325340f39a0311e224,AWAITING REVIEW,2024-02-15T13:35:53.158000Z,2024-02-15T13:48:49.414000Z,,2024-02-15T13:48:50.254296Z,777.0,CVPIIDEI,6,31,Female,White,United States,United States,United States,English,No,Full-Time,Not Applicable
5a95700f1eda410001363018,<b>Statistics can be pretty misleading sometimes.,Highly disagree,10/94,Highly disagree,1,1708004250520,1708004258823,\Highly disagree\,\Highly disagree\,\1\,1708004257149,1708004257149,6629,6629,8303,buq,qns-item-noham,10,90213,0.0-1.0-0.9,65ce13325340f39a0311e224,AWAITING REVIEW,2024-02-15T13:35:53.158000Z,2024-02-15T13:48:49.414000Z,,2024-02-15T13:48:50.254296Z,777.0,CVPIIDEI,6,31,Female,White,United States,United States,United States,English,No,Full-Time,Not Applicable
5a95700f1eda410001363018,<b>I have lots of beliefs that I?m only sort of sure about.,Highly disagree,11/94,Somewhat disagree,2,1708004258825,1708004270666,\Somewhat disagree\,\Somewhat disagree\,\2\,1708004269860,1708004269860,11035,11035,11841,buq,qns-item-noham,11,102056,0.0-1.0-0.10,65ce13325340f39a0311e224,AWAITING REVIEW,2024-02-15T13:35:53.158000Z,2024-02-15T13:48:49.414000Z,,2024-02-15T13:48:50.254296Z,777.0,CVPIIDEI,6,31,Female,White,United States,United States,United States,English,No,Full-Time,Not Applicable
5a95700f1eda410001363018,"<b>If I go to my favorite restaurant and the food is surprisingly bad, it reminds me there are many disappointments in life.",Highly disagree,12/94,Somewhat disagree,2,1708004270667,1708004278528,\Somewhat disagree\,\Somewhat disagree\,\2\,1708004277437,1708004277437,6770,6770,7861,buq,qns-item-noham,12,109918,0.0-1.0-0.11,65ce13325340f39a0311e224,AWAITING REVIEW,2024-02-15T13:35:53.158000Z,2024-02-15T13:48:49.414000Z,,2024-02-15T13:48:50.254296Z,777.0,CVPIIDEI,6,31,Female,White,United States,United States,United States,English,No,Full-Time,Not Applicable
5a95700f1eda410001363018,"<b>If you are paying attention, please select ?Somewhat agree?",Highly disagree,13/94,Somewhat agree,3,1708004278530,1708004283106,\Somewhat agree\,\Somewhat agree\,\3\,1708004281202,1708004281202,2672,2672,4576,buq,qns-item-noham,13,114496,0.0-1.0-0.12,65ce13325340f39a0311e224,AWAITING REVIEW,2024-02-15T13:35:53.158000Z,2024-02-15T13:48:49.414000Z,,2024-02-15T13:48:50.254296Z,777.0,CVPIIDEI,6,31,Female,White,United States,United States,United States,English,No,Full-Time,Not Applicable
5a95700f1eda410001363018,"<b>When I talk to others, I often worry I?ll convince them of something I didn?t mean to.",Highly disagree,14/94,Somewhat disagree,2,1708004283109,1708004290259,\Somewhat disagree\,\Somewhat disagree\,\2\,1708004289002,1708004289002,5893,5893,7150,buq,qns-item-noham,14,121649,0.0-1.0-0.13,65ce13325340f39a0311e224,AWAITING REVIEW,2024-02-15T13:35:53.158000Z,2024-02-15T13:48:49.414000Z,,2024-02-15T13:48:50.254296Z,777.0,CVPIIDEI,6,31,Female,White,United States,United States,United States,English,No,Full-Time,Not Applicable
5a95700f1eda410001363018,<b>I would need to learn something utterly shocking about my party in order to change my political views.,Highly disagree,15/94,Somewhat disagree,2,1708004290262,1708004307078,\Somewhat disagree\,\Somewhat disagree\,\2\,1708004305783,1708004305783,15521,15521,16816,buq,qns-item-noham,15,138468,0.0-1.0-0.14,65ce13325340f39a0311e224,AWAITING REVIEW,2024-02-15T13:35:53.158000Z,2024-02-15T13:48:49.414000Z,,2024-02-15T13:48:50.254296Z,777.0,CVPIIDEI,6,31,Female,White,United States,United States,United States,English,No,Full-Time,Not Applicable
5a95700f1eda410001363018,"<b>When I have new experiences, I tend to think of them as unique.",Highly disagree,16/94,Somewhat disagree,2,1708004307080,1708004313754,\Somewhat disagree\,\Somewhat disagree\,\2\,1708004312450,1708004312450,5370,5370,6674,buq,qns-item-noham,16,145144,0.0-1.0-0.15,65ce13325340f39a0311e224,AWAITING REVIEW,2024-02-15T13:35:53.158000Z,2024-02-15T13:48:49.414000Z,,2024-02-15T13:48:50.254296Z,777.0,CVPIIDEI,6,31,Female,White,United States,United States,United States,English,No,Full-Time,Not Applicable
5a95700f1eda410001363018,<b>I change my mind about specific policies pretty frequently.,Highly disagree,17/94,Somewhat disagree,2,1708004313756,1708004323084,\Somewhat disagree\,\Somewhat disagree\,\2\,1708004322275,1708004322275,8519,8519,9328,buq,qns-item-noham,17,154474,0.0-1.0-0.16,65ce13325340f39a0311e224,AWAITING REVIEW,2024-02-15T13:35:53.158000Z,2024-02-15T13:48:49.414000Z,,2024-02-15T13:48:50.254296Z,777.0,CVPIIDEI,6,31,Female,White,United States,United States,United States,English,No,Full-Time,Not Applicable
5a95700f1eda410001363018,"<b>If a politician in my political party supports something I disagree with, I give them the benefit of the doubt, as such issues often involve hidden complexities that aren?t obvious.   ",Highly disagree,18/94,Somewhat disagree,2,1708004323086,1708004337933,\Somewhat disagree\,\Somewhat disagree\,\2\,1708004337060,1708004337060,13974,13974,14847,buq,qns-item-noham,18,169323,0.0-1.0-0.17,65ce13325340f39a0311e224,AWAITING REVIEW,2024-02-15T13:35:53.158000Z,2024-02-15T13:48:49.414000Z,,2024-02-15T13:48:50.254296Z,777.0,CVPIIDEI,6,31,Female,White,United States,United States,United States,English,No,Full-Time,Not Applicable
5a95700f1eda410001363018,<b>People?s bad politics are usually motivated by hatefulness.,Highly disagree,19/94,Somewhat agree,3,1708004337935,1708004350925,\Somewhat agree\,\Somewhat agree\,\3\,1708004345201,1708004345201,7266,7266,12990,buq,qns-item-noham,19,182315,0.0-1.0-0.18,65ce13325340f39a0311e224,AWAITING REVIEW,2024-02-15T13:35:53.158000Z,2024-02-15T13:48:49.414000Z,,2024-02-15T13:48:50.254296Z,777.0,CVPIIDEI,6,31,Female,White,United States,United States,United States,English,No,Full-Time,Not Applicable
5a95700f1eda410001363018,<b>I think a lot about how to reconcile my beliefs with one another.,Highly disagree,20/94,Somewhat disagree,2,1708004350926,1708004360732,\Somewhat disagree\,\Somewhat disagree\,\2\,1708004358798,1708004358798,7872,7872,9806,buq,qns-item-noham,20,192122,0.0-1.0-0.19,65ce13325340f39a0311e224,AWAITING REVIEW,2024-02-15T13:35:53.158000Z,2024-02-15T13:48:49.414000Z,,2024-02-15T13:48:50.254296Z,777.0,CVPIIDEI,6,31,Female,White,United States,United States,United States,English,No,Full-Time,Not Applicable
5a95700f1eda410001363018,<b>I might have false beliefs about important topics.,Highly disagree,21/94,Somewhat disagree,2,1708004360734,1708004374679,\Somewhat disagree\,\Somewhat disagree\,\2\,1708004372101,1708004372101,11367,11367,13945,buq,qns-item-noham,21,206069,0.0-1.0-0.20,65ce13325340f39a0311e224,AWAITING REVIEW,2024-02-15T13:35:53.158000Z,2024-02-15T13:48:49.414000Z,,2024-02-15T13:48:50.254296Z,777.0,CVPIIDEI,6,31,Female,White,United States,United States,United States,English,No,Full-Time,Not Applicable
5a95700f1eda410001363018,"<b>If a good friend of mine does something unexpected that upsets me, I feel like I don?t know them anymore.",Highly disagree,22/94,Highly disagree,1,1708004374681,1708004386300,\Somewhat disagree\,\Highly disagree\,\2\,1708004383891,1708004385529,9210,10848,11619,buq,qns-item-noham,22,217690,0.0-1.0-0.21,65ce13325340f39a0311e224,AWAITING REVIEW,2024-02-15T13:35:53.158000Z,2024-02-15T13:48:49.414000Z,,2024-02-15T13:48:50.254296Z,777.0,CVPIIDEI,6,31,Female,White,United States,United States,United States,English,No,Full-Time,Not Applicable
5a95700f1eda410001363018,<b>Other people?s beliefs are often incoherent.,Highly disagree,23/94,Somewhat agree,3,1708004386302,1708004394911,\Somewhat agree\,\Somewhat agree\,\3\,1708004394073,1708004394073,7771,7771,8609,buq,qns-item-noham,23,226301,0.0-1.0-0.22,65ce13325340f39a0311e224,AWAITING REVIEW,2024-02-15T13:35:53.158000Z,2024-02-15T13:48:49.414000Z,,2024-02-15T13:48:50.254296Z,777.0,CVPIIDEI,6,31,Female,White,United States,United States,United States,English,No,Full-Time,Not Applicable
5a95700f1eda410001363018,"<b>Every now and then, a new experience will unsettle beliefs I?ve had for a while.",Highly disagree,24/94,Somewhat agree,3,1708004394913,1708004401038,\Somewhat agree\,\Somewhat agree\,\3\,1708004399578,1708004399578,4665,4665,6125,buq,qns-item-noham,24,232428,0.0-1.0-0.23,65ce13325340f39a0311e224,AWAITING REVIEW,2024-02-15T13:35:53.158000Z,2024-02-15T13:48:49.414000Z,,2024-02-15T13:48:50.254296Z,777.0,CVPIIDEI,6,31,Female,White,United States,United States,United States,English,No,Full-Time,Not Applicable
5a95700f1eda410001363018,<b>Some policies I agree with in principle are so bad I don?t support them. ,Highly disagree,25/94,Somewhat agree,3,1708004401040,1708004411626,\Somewhat agree\,\Somewhat agree\,\3\,1708004410971,1708004410971,9931,9931,10586,buq,qns-item-noham,25,243016,0.0-1.0-0.24,65ce13325340f39a0311e224,AWAITING REVIEW,2024-02-15T13:35:53.158000Z,2024-02-15T13:48:49.414000Z,,2024-02-15T13:48:50.254296Z,777.0,CVPIIDEI,6,31,Female,White,United States,United States,United States,English,No,Full-Time,Not Applicable
5a95700f1eda410001363018,<b>I?m pretty sure I?ve accidentally spread false information.,Highly disagree,26/94,Highly disagree,1,1708004411628,1708004416213,\Highly disagree\,\Highly disagree\,\1\,1708004415374,1708004415374,3746,3746,4585,buq,qns-item-noham,26,247603,0.0-1.0-0.25,65ce13325340f39a0311e224,AWAITING REVIEW,2024-02-15T13:35:53.158000Z,2024-02-15T13:48:49.414000Z,,2024-02-15T13:48:50.254296Z,777.0,CVPIIDEI,6,31,Female,White,United States,United States,United States,English,No,Full-Time,Not Applicable
5a95700f1eda410001363018,"<b>If I go to my favorite restaurant and the food is unexpectedly bad, then they have changed owners.",Highly disagree,27/94,Highly disagree,1,1708004416214,1708004429123,\Highly disagree\,\Highly disagree\,\1\,1708004427830,1708004427830,11616,11616,12909,buq,qns-item-noham,27,260513,0.0-1.0-0.26,65ce13325340f39a0311e224,AWAITING REVIEW,2024-02-15T13:35:53.158000Z,2024-02-15T13:48:49.414000Z,,2024-02-15T13:48:50.254296Z,777.0,CVPIIDEI,6,31,Female,White,United States,United States,United States,English,No,Full-Time,Not Applicable
5a95700f1eda410001363018,"<b>In politics, it?s important to trust your friends and family.",Highly disagree,28/94,Somewhat disagree,2,1708004429124,1708004435320,\Somewhat disagree\,\Somewhat disagree\,\2\,1708004433909,1708004433909,4785,4785,6196,buq,qns-item-noham,28,266710,0.0-1.0-0.27,65ce13325340f39a0311e224,AWAITING REVIEW,2024-02-15T13:35:53.158000Z,2024-02-15T13:48:49.414000Z,,2024-02-15T13:48:50.254296Z,777.0,CVPIIDEI,6,31,Female,White,United States,United States,United States,English,No,Full-Time,Not Applicable
5a95700f1eda410001363018,<b>It?s OK to have some conflicting beliefs.,Highly disagree,29/94,Somewhat agree,3,1708004435321,1708004439593,\Somewhat agree\,\Somewhat agree\,\3\,1708004438601,1708004438601,3280,3280,4272,buq,qns-item-noham,29,270983,0.0-1.0-0.28,65ce13325340f39a0311e224,AWAITING REVIEW,2024-02-15T13:35:53.158000Z,2024-02-15T13:48:49.414000Z,,2024-02-15T13:48:50.254296Z,777.0,CVPIIDEI,6,31,Female,White,United States,United States,United States,English,No,Full-Time,Not Applicable
5a95700f1eda410001363018,<b>Listening to people I disagree with makes my opinions better.,Highly disagree,30/94,Highly agree,4,1708004439595,1708004448682,\Highly agree\,\Highly agree\,\4\,1708004447894,1708004447894,8299,8299,9087,buq,qns-item-noham,30,280072,0.0-1.0-0.29,65ce13325340f39a0311e224,AWAITING REVIEW,2024-02-15T13:35:53.158000Z,2024-02-15T13:48:49.414000Z,,2024-02-15T13:48:50.254296Z,777.0,CVPIIDEI,6,31,Female,White,United States,United States,United States,English,No,Full-Time,Not Applicable
5a95700f1eda410001363018,<b>My moral compass sometimes makes it harder to determine what?s true.,Highly disagree,31/94,Somewhat agree,3,1708004448684,1708004454929,\Somewhat agree\,\Somewhat agree\,\3\,1708004453891,1708004453891,5207,5207,6245,buq,qns-item-noham,31,286319,0.0-1.0-0.30,65ce13325340f39a0311e224,AWAITING REVIEW,2024-02-15T13:35:53.158000Z,2024-02-15T13:48:49.414000Z,,2024-02-15T13:48:50.254296Z,777.0,CVPIIDEI,6,31,Female,White,United States,United States,United States,English,No,Full-Time,Not Applicable
5a95700f1eda410001363018,<b>Evidence pointing in the wrong direction isn?t really evidence at all.,Highly disagree,32/94,Somewhat disagree,2,1708004454931,1708004466789,\Somewhat disagree\,\Somewhat disagree\,\2\,1708004466032,1708004466032,11101,11101,11858,buq,qns-item-noham,32,298179,0.0-1.0-0.31,65ce13325340f39a0311e224,AWAITING REVIEW,2024-02-15T13:35:53.158000Z,2024-02-15T13:48:49.414000Z,,2024-02-15T13:48:50.254296Z,777.0,CVPIIDEI,6,31,Female,White,United States,United States,United States,English,No,Full-Time,Not Applicable
5a95700f1eda410001363018,"<b>If the political party I support messes up, it makes me think politics is rotten.",Highly disagree,33/94,Highly disagree,1,1708004466791,1708004474671,\Highly disagree\,\Highly disagree\,\1\,1708004473646,1708004473646,6855,6855,7880,buq,qns-item-noham,33,306061,0.0-1.0-0.32,65ce13325340f39a0311e224,AWAITING REVIEW,2024-02-15T13:35:53.158000Z,2024-02-15T13:48:49.414000Z,,2024-02-15T13:48:50.254296Z,777.0,CVPIIDEI,6,31,Female,White,United States,United States,United States,English,No,Full-Time,Not Applicable
5a95700f1eda410001363018,<b>Lots of important topics can only really be understood by some groups of people.,Highly disagree,34/94,Highly disagree,1,1708004474673,1708004481770,\Highly disagree\,\Highly disagree\,\1\,1708004480847,1708004480847,6174,6174,7097,buq,qns-item-noham,34,313160,0.0-1.0-0.33,65ce13325340f39a0311e224,AWAITING REVIEW,2024-02-15T13:35:53.158000Z,2024-02-15T13:48:49.414000Z,,2024-02-15T13:48:50.254296Z,777.0,CVPIIDEI,6,31,Female,White,United States,United States,United States,English,No,Full-Time,Not Applicable
5a95700f1eda410001363018,<b>Having conflicting beliefs means you haven?t thought about them enough.,Highly disagree,35/94,Somewhat disagree,2,1708004481772,1708004487610,\Somewhat disagree\,\Somewhat disagree\,\2\,1708004485922,1708004485922,4150,4150,5838,buq,qns-item-noham,35,319000,0.0-1.0-0.34,65ce13325340f39a0311e224,AWAITING REVIEW,2024-02-15T13:35:53.158000Z,2024-02-15T13:48:49.414000Z,,2024-02-15T13:48:50.254296Z,777.0,CVPIIDEI,6,31,Female,White,United States,United States,United States,English,No,Full-Time,Not Applicable
5a95700f1eda410001363018,<b>I do not often change my political opinions.,Highly disagree,36/94,Somewhat disagree,2,1708004487612,1708004490625,\Somewhat disagree\,\Somewhat disagree\,\2\,1708004489686,1708004489686,2074,2074,3013,buq,qns-item-noham,36,322015,0.0-1.0-0.35,65ce13325340f39a0311e224,AWAITING REVIEW,2024-02-15T13:35:53.158000Z,2024-02-15T13:48:49.414000Z,,2024-02-15T13:48:50.254296Z,777.0,CVPIIDEI,6,31,Female,White,United States,United States,United States,English,No,Full-Time,Not Applicable
5a95700f1eda410001363018,<b>It?s difficult to not have at least some conflicting beliefs.,Highly disagree,37/94,Somewhat agree,3,1708004490627,1708004495368,\Somewhat agree\,\Somewhat agree\,\3\,1708004494348,1708004494348,3721,3721,4741,buq,qns-item-noham,37,326758,0.0-1.0-0.36,65ce13325340f39a0311e224,AWAITING REVIEW,2024-02-15T13:35:53.158000Z,2024-02-15T13:48:49.414000Z,,2024-02-15T13:48:50.254296Z,777.0,CVPIIDEI,6,31,Female,White,United States,United States,United States,English,No,Full-Time,Not Applicable
5a95700f1eda410001363018,<b>Wishful thinking causes a lot of problems.,Highly disagree,38/94,Somewhat disagree,2,1708004495369,1708004500019,\Somewhat disagree\,\Somewhat disagree\,\2\,1708004499363,1708004499363,3994,3994,4650,buq,qns-item-noham,38,331409,0.0-1.0-0.37,65ce13325340f39a0311e224,AWAITING REVIEW,2024-02-15T13:35:53.158000Z,2024-02-15T13:48:49.414000Z,,2024-02-15T13:48:50.254296Z,777.0,CVPIIDEI,6,31,Female,White,United States,United States,United States,English,No,Full-Time,Not Applicable
5a95700f1eda410001363018,<b>I judge a food item only once I try it many times.,Highly disagree,39/94,Somewhat disagree,2,1708004500020,1708004509177,\Somewhat disagree\,\Somewhat disagree\,\2\,1708004506687,1708004506687,6667,6667,9157,buq,qns-item-noham,39,340567,0.0-1.0-0.38,65ce13325340f39a0311e224,AWAITING REVIEW,2024-02-15T13:35:53.158000Z,2024-02-15T13:48:49.414000Z,,2024-02-15T13:48:50.254296Z,777.0,CVPIIDEI,6,31,Female,White,United States,United States,United States,English,No,Full-Time,Not Applicable
5a95700f1eda410001363018,"<b>When a person holds conflicting beliefs, they should really try to figure out what?s wrong.",Highly disagree,40/94,Somewhat agree,3,1708004509179,1708004515881,\Somewhat agree\,\Somewhat agree\,\3\,1708004515206,1708004515206,6027,6027,6702,buq,qns-item-noham,40,347271,0.0-1.0-0.39,65ce13325340f39a0311e224,AWAITING REVIEW,2024-02-15T13:35:53.158000Z,2024-02-15T13:48:49.414000Z,,2024-02-15T13:48:50.254296Z,777.0,CVPIIDEI,6,31,Female,White,United States,United States,United States,English,No,Full-Time,Not Applicable
5a95700f1eda410001363018,<b>Knowing what?s important in life is easy.,Highly disagree,41/94,Somewhat agree,3,1708004515883,1708004520703,\Somewhat agree\,\Somewhat agree\,\3\,1708004519613,1708004519613,3730,3730,4820,buq,qns-item-noham,41,352093,0.0-1.0-0.40,65ce13325340f39a0311e224,AWAITING REVIEW,2024-02-15T13:35:53.158000Z,2024-02-15T13:48:49.414000Z,,2024-02-15T13:48:50.254296Z,777.0,CVPIIDEI,6,31,Female,White,United States,United States,United States,English,No,Full-Time,Not Applicable
5a95700f1eda410001363018,<b>I swim across the Atlantic Ocean to get to work every day.,Highly disagree,42/94,Highly disagree,1,1708004520705,1708004525674,\Highly disagree\,\Highly disagree\,\1\,1708004524735,1708004524735,4030,4030,4969,buq,qns-item-noham,42,357064,0.0-1.0-0.41,65ce13325340f39a0311e224,AWAITING REVIEW,2024-02-15T13:35:53.158000Z,2024-02-15T13:48:49.414000Z,,2024-02-15T13:48:50.254296Z,777.0,CVPIIDEI,6,31,Female,White,United States,United States,United States,English,No,Full-Time,Not Applicable
5a95700f1eda410001363018,"<b>Sometimes, you just have to ignore evidence that you know is wrong.",Highly disagree,43/94,Somewhat agree,3,1708004525676,1708004543241,\Somewhat disagree\,\Somewhat agree\,\2\,1708004531384,1708004542237,5708,16561,17565,buq,qns-item-noham,43,374632,0.0-1.0-0.42,65ce13325340f39a0311e224,AWAITING REVIEW,2024-02-15T13:35:53.158000Z,2024-02-15T13:48:49.414000Z,,2024-02-15T13:48:50.254296Z,777.0,CVPIIDEI,6,31,Female,White,United States,United States,United States,English,No,Full-Time,Not Applicable
5a95700f1eda410001363018,<b>I have had some false beliefs.,Highly disagree,44/94,Somewhat disagree,2,1708004543243,1708004550585,\Somewhat agree\,\Somewhat disagree\,\3\,1708004549159,1708004549968,5916,6725,7342,buq,qns-item-noham,44,381975,0.0-1.0-0.43,65ce13325340f39a0311e224,AWAITING REVIEW,2024-02-15T13:35:53.158000Z,2024-02-15T13:48:49.414000Z,,2024-02-15T13:48:50.254296Z,777.0,CVPIIDEI,6,31,Female,White,United States,United States,United States,English,No,Full-Time,Not Applicable
5a95700f1eda410001363018,"<b>If one friend does something that upsets me, I sometimes start to distrust people in general.",Highly disagree,45/94,Highly disagree,1,1708004550587,1708004556666,\Highly disagree\,\Highly disagree\,\1\,1708004555542,1708004555542,4955,4955,6079,buq,qns-item-noham,45,388056,0.0-1.0-0.44,65ce13325340f39a0311e224,AWAITING REVIEW,2024-02-15T13:35:53.158000Z,2024-02-15T13:48:49.414000Z,,2024-02-15T13:48:50.254296Z,777.0,CVPIIDEI,6,31,Female,White,United States,United States,United States,English,No,Full-Time,Not Applicable
5a95700f1eda410001363018,<b>The facts about most important matters are easy to find.,Highly disagree,46/94,Somewhat agree,3,1708004556667,1708004566034,\Somewhat agree\,\Somewhat agree\,\3\,1708004565212,1708004565212,8545,8545,9367,buq,qns-item-noham,46,397424,0.0-1.0-0.45,65ce13325340f39a0311e224,AWAITING REVIEW,2024-02-15T13:35:53.158000Z,2024-02-15T13:48:49.414000Z,,2024-02-15T13:48:50.254296Z,777.0,CVPIIDEI,6,31,Female,White,United States,United States,United States,English,No,Full-Time,Not Applicable
5a95700f1eda410001363018,<b>It?s better to know what?s true than to know what?s moral.,Highly disagree,47/94,Somewhat agree,3,1708004566036,1708004583191,\Somewhat agree\,\Somewhat agree\,\3\,1708004582370,1708004582370,16334,16334,17155,buq,qns-item-noham,47,414582,0.0-1.0-0.46,65ce13325340f39a0311e224,AWAITING REVIEW,2024-02-15T13:35:53.158000Z,2024-02-15T13:48:49.414000Z,,2024-02-15T13:48:50.254296Z,777.0,CVPIIDEI,6,31,Female,White,United States,United States,United States,English,No,Full-Time,Not Applicable
5a95700f1eda410001363018,<b>I used to think the world was less complicated than I do now.,Highly disagree,48/94,Highly agree,4,1708004583194,1708004589908,\Highly agree\,\Highly agree\,\4\,1708004588702,1708004588702,5508,5508,6714,buq,qns-item-noham,48,421298,0.0-1.0-0.47,65ce13325340f39a0311e224,AWAITING REVIEW,2024-02-15T13:35:53.158000Z,2024-02-15T13:48:49.414000Z,,2024-02-15T13:48:50.254296Z,777.0,CVPIIDEI,6,31,Female,White,United States,United States,United States,English,No,Full-Time,Not Applicable
5a95700f1eda410001363018,<b>People are usually completely right or completely wrong.,Highly disagree,49/94,Highly disagree,1,1708004589909,1708004597309,\Highly disagree\,\Highly disagree\,\1\,1708004595837,1708004595837,5928,5928,7400,buq,qns-item-noham,49,428699,0.0-1.0-0.48,65ce13325340f39a0311e224,AWAITING REVIEW,2024-02-15T13:35:53.158000Z,2024-02-15T13:48:49.414000Z,,2024-02-15T13:48:50.254296Z,777.0,CVPIIDEI,6,31,Female,White,United States,United States,United States,English,No,Full-Time,Not Applicable
5a95700f1eda410001363018,<b>I spend a lot of time considering alternatives to my beliefs.,Highly disagree,50/94,Somewhat agree,3,1708004597311,1708004604525,\Somewhat agree\,\Somewhat agree\,\3\,1708004603092,1708004603092,5781,5781,7214,buq,qns-item-noham,50,435915,0.0-1.0-0.49,65ce13325340f39a0311e224,AWAITING REVIEW,2024-02-15T13:35:53.158000Z,2024-02-15T13:48:49.414000Z,,2024-02-15T13:48:50.254296Z,777.0,CVPIIDEI,6,31,Female,White,United States,United States,United States,English,No,Full-Time,Not Applicable
5a95700f1eda410001363018,"<b>Political enemies need to be defeated, not convinced.",Highly disagree,51/94,Somewhat disagree,2,1708004604527,1708004609244,\Somewhat disagree\,\Somewhat disagree\,\2\,1708004607462,1708004607462,2935,2935,4717,buq,qns-item-noham,51,440634,0.0-1.0-0.50,65ce13325340f39a0311e224,AWAITING REVIEW,2024-02-15T13:35:53.158000Z,2024-02-15T13:48:49.414000Z,,2024-02-15T13:48:50.254296Z,777.0,CVPIIDEI,6,31,Female,White,United States,United States,United States,English,No,Full-Time,Not Applicable
5a95700f1eda410001363018,<b>I form my political views only after meticulously gathering historical and present information about their policies.,Highly disagree,52/94,Somewhat agree,3,1708004609246,1708004617118,\Somewhat agree\,\Somewhat agree\,\3\,1708004616178,1708004616178,6932,6932,7872,buq,qns-item-noham,52,448508,0.0-1.0-0.51,65ce13325340f39a0311e224,AWAITING REVIEW,2024-02-15T13:35:53.158000Z,2024-02-15T13:48:49.414000Z,,2024-02-15T13:48:50.254296Z,777.0,CVPIIDEI,6,31,Female,White,United States,United States,United States,English,No,Full-Time,Not Applicable
5a95700f1eda410001363018,<b>It is difficult for me to remember the last time I was surprised by politics.,Highly disagree,53/94,Somewhat agree,3,1708004617119,1708004622153,\Somewhat agree\,\Somewhat agree\,\3\,1708004620309,1708004620309,3190,3190,5034,buq,qns-item-noham,53,453543,0.0-1.0-0.52,65ce13325340f39a0311e224,AWAITING REVIEW,2024-02-15T13:35:53.158000Z,2024-02-15T13:48:49.414000Z,,2024-02-15T13:48:50.254296Z,777.0,CVPIIDEI,6,31,Female,White,United States,United States,United States,English,No,Full-Time,Not Applicable
5a95700f1eda410001363018,"<b>When I find out I?m wrong, I think a lot about my related beliefs.",Highly disagree,54/94,Highly agree,4,1708004622155,1708004628211,\Highly agree\,\Highly agree\,\4\,1708004626833,1708004626833,4678,4678,6056,buq,qns-item-noham,54,459601,0.0-1.0-0.53,65ce13325340f39a0311e224,AWAITING REVIEW,2024-02-15T13:35:53.158000Z,2024-02-15T13:48:49.414000Z,,2024-02-15T13:48:50.254296Z,777.0,CVPIIDEI,6,31,Female,White,United States,United States,United States,English,No,Full-Time,Not Applicable
5a95700f1eda410001363018,"<b>If the political party I support messes up, it makes me think you can?t trust anyone these days",Highly disagree,55/94,Somewhat disagree,2,1708004628213,1708004643503,\Highly disagree\,\Somewhat disagree\,\1\,1708004640086,1708004641191,11873,12978,15290,buq,qns-item-noham,55,474893,0.0-1.0-0.54,65ce13325340f39a0311e224,AWAITING REVIEW,2024-02-15T13:35:53.158000Z,2024-02-15T13:48:49.414000Z,,2024-02-15T13:48:50.254296Z,777.0,CVPIIDEI,6,31,Female,White,United States,United States,United States,English,No,Full-Time,Not Applicable
5a95700f1eda410001363018,<b>People?s brains turn off when they talk about politics.,Highly disagree,56/94,Somewhat agree,3,1708004643505,1708004648596,\Somewhat agree\,\Somewhat agree\,\3\,1708004647905,1708004647905,4400,4400,5091,buq,qns-item-noham,56,479986,0.0-1.0-0.55,65ce13325340f39a0311e224,AWAITING REVIEW,2024-02-15T13:35:53.158000Z,2024-02-15T13:48:49.414000Z,,2024-02-15T13:48:50.254296Z,777.0,CVPIIDEI,6,31,Female,White,United States,United States,United States,English,No,Full-Time,Not Applicable
5a95700f1eda410001363018,<b>People who are wrong are usually just ignoring the obvious.,Highly disagree,57/94,Somewhat disagree,2,1708004648597,1708004657010,\Somewhat disagree\,\Somewhat disagree\,\2\,1708004655787,1708004655787,7190,7190,8413,buq,qns-item-noham,57,488400,0.0-1.0-0.56,65ce13325340f39a0311e224,AWAITING REVIEW,2024-02-15T13:35:53.158000Z,2024-02-15T13:48:49.414000Z,,2024-02-15T13:48:50.254296Z,777.0,CVPIIDEI,6,31,Female,White,United States,United States,United States,English,No,Full-Time,Not Applicable
5a95700f1eda410001363018,"<b>When forming my views on people, I rely more on what they are like now rather than rely on my past experience with them.",Highly disagree,58/94,Somewhat disagree,2,1708004657011,1708004668933,\Somewhat disagree\,\Somewhat disagree\,\2\,1708004668211,1708004668211,11200,11200,11922,buq,qns-item-noham,58,500323,0.0-1.0-0.57,65ce13325340f39a0311e224,AWAITING REVIEW,2024-02-15T13:35:53.158000Z,2024-02-15T13:48:49.414000Z,,2024-02-15T13:48:50.254296Z,777.0,CVPIIDEI,6,31,Female,White,United States,United States,United States,English,No,Full-Time,Not Applicable
5a95700f1eda410001363018,"<b>When people contradict my beliefs, I usually know about their evidence already.",Highly disagree,59/94,Somewhat disagree,2,1708004668935,1708004678994,\Somewhat disagree\,\Somewhat disagree\,\2\,1708004678304,1708004678304,9369,9369,10059,buq,qns-item-noham,59,510384,0.0-1.0-0.58,65ce13325340f39a0311e224,AWAITING REVIEW,2024-02-15T13:35:53.158000Z,2024-02-15T13:48:49.414000Z,,2024-02-15T13:48:50.254296Z,777.0,CVPIIDEI,6,31,Female,White,United States,United States,United States,English,No,Full-Time,Not Applicable
5a95700f1eda410001363018,<b>Figuring out what?s true and what?s false mainly requires a strong moral compass.,Highly disagree,60/94,Highly disagree,1,1708004678995,1708004687287,\Highly disagree\,\Highly disagree\,\1\,1708004686365,1708004686365,7370,7370,8292,buq,qns-item-noham,60,518677,0.0-1.0-0.59,65ce13325340f39a0311e224,AWAITING REVIEW,2024-02-15T13:35:53.158000Z,2024-02-15T13:48:49.414000Z,,2024-02-15T13:48:50.254296Z,777.0,CVPIIDEI,6,31,Female,White,United States,United States,United States,English,No,Full-Time,Not Applicable
5a95700f1eda410001363018,"<b>Usually I?m wrong about simple things, not complicated ones.",Highly disagree,61/94,Highly disagree,1,1708004687289,1708004702005,\Highly disagree\,\Highly disagree\,\1\,1708004701315,1708004701315,14026,14026,14716,buq,qns-item-noham,61,533395,0.0-1.0-0.60,65ce13325340f39a0311e224,AWAITING REVIEW,2024-02-15T13:35:53.158000Z,2024-02-15T13:48:49.414000Z,,2024-02-15T13:48:50.254296Z,777.0,CVPIIDEI,6,31,Female,White,United States,United States,United States,English,No,Full-Time,Not Applicable
5a95700f1eda410001363018,<b>Getting all the information I want about important things is hard.,Highly disagree,62/94,Somewhat disagree,2,1708004702006,1708004712815,\Somewhat disagree\,\Somewhat disagree\,\2\,1708004711775,1708004711775,9769,9769,10809,buq,qns-item-noham,62,544205,0.0-1.0-0.61,65ce13325340f39a0311e224,AWAITING REVIEW,2024-02-15T13:35:53.158000Z,2024-02-15T13:48:49.414000Z,,2024-02-15T13:48:50.254296Z,777.0,CVPIIDEI,6,31,Female,White,United States,United States,United States,English,No,Full-Time,Not Applicable
5a95700f1eda410001363018,<b>Most false beliefs spread because people try to deceive one another.,Highly disagree,63/94,Highly disagree,1,1708004712817,1708004719654,\Highly disagree\,\Highly disagree\,\1\,1708004718344,1708004718344,5527,5527,6837,buq,qns-item-noham,63,551044,0.0-1.0-0.62,65ce13325340f39a0311e224,AWAITING REVIEW,2024-02-15T13:35:53.158000Z,2024-02-15T13:48:49.414000Z,,2024-02-15T13:48:50.254296Z,777.0,CVPIIDEI,6,31,Female,White,United States,United States,United States,English,No,Full-Time,Not Applicable
5a95700f1eda410001363018,<b>I can usually find something to agree with in most people?s beliefs.,Highly disagree,64/94,Somewhat disagree,2,1708004719656,1708004727189,\Somewhat disagree\,\Somewhat disagree\,\2\,1708004726246,1708004726246,6590,6590,7533,buq,qns-item-noham,64,558579,0.0-1.0-0.63,65ce13325340f39a0311e224,AWAITING REVIEW,2024-02-15T13:35:53.158000Z,2024-02-15T13:48:49.414000Z,,2024-02-15T13:48:50.254296Z,777.0,CVPIIDEI,6,31,Female,White,United States,United States,United States,English,No,Full-Time,Not Applicable
5a95700f1eda410001363018,<b>I only form my views of people once I get to know them very well.,Highly disagree,65/94,Somewhat agree,3,1708004727191,1708004733273,\Somewhat agree\,\Somewhat agree\,\3\,1708004732350,1708004732350,5159,5159,6082,buq,qns-item-noham,65,564663,0.0-1.0-0.64,65ce13325340f39a0311e224,AWAITING REVIEW,2024-02-15T13:35:53.158000Z,2024-02-15T13:48:49.414000Z,,2024-02-15T13:48:50.254296Z,777.0,CVPIIDEI,6,31,Female,White,United States,United States,United States,English,No,Full-Time,Not Applicable
5a95700f1eda410001363018,"<b>When people tell me important things about the world, I usually believe them.",Highly disagree,66/94,Somewhat disagree,2,1708004733274,1708004739526,\Somewhat disagree\,\Somewhat disagree\,\2\,1708004738450,1708004738450,5176,5176,6252,buq,qns-item-noham,66,570916,0.0-1.0-0.65,65ce13325340f39a0311e224,AWAITING REVIEW,2024-02-15T13:35:53.158000Z,2024-02-15T13:48:49.414000Z,,2024-02-15T13:48:50.254296Z,777.0,CVPIIDEI,6,31,Female,White,United States,United States,United States,English,No,Full-Time,Not Applicable
5a95700f1eda410001363018,"<b>If a friend does something that upsets me, it reminds me what an unpredictable place the world is.",Highly disagree,67/94,Somewhat agree,3,1708004739528,1708004745585,\Somewhat agree\,\Somewhat agree\,\3\,1708004744914,1708004744914,5386,5386,6057,buq,qns-item-noham,67,576975,0.0-1.0-0.66,65ce13325340f39a0311e224,AWAITING REVIEW,2024-02-15T13:35:53.158000Z,2024-02-15T13:48:49.414000Z,,2024-02-15T13:48:50.254296Z,777.0,CVPIIDEI,6,31,Female,White,United States,United States,United States,English,No,Full-Time,Not Applicable
5a95700f1eda410001363018,<b>People tend to believe whatever is good for their friends.,Highly disagree,68/94,Somewhat agree,3,1708004745587,1708004751352,\Somewhat agree\,\Somewhat agree\,\3\,1708004750464,1708004750464,4877,4877,5765,buq,qns-item-noham,68,582742,0.0-1.0-0.67,65ce13325340f39a0311e224,AWAITING REVIEW,2024-02-15T13:35:53.158000Z,2024-02-15T13:48:49.414000Z,,2024-02-15T13:48:50.254296Z,777.0,CVPIIDEI,6,31,Female,White,United States,United States,United States,English,No,Full-Time,Not Applicable
5a95700f1eda410001363018,<b>I used to be more certain my beliefs were true.,Highly disagree,69/94,Somewhat agree,3,1708004751354,1708004756627,\Somewhat agree\,\Somewhat agree\,\3\,1708004755976,1708004755976,4622,4622,5273,buq,qns-item-noham,69,588017,0.0-1.0-0.68,65ce13325340f39a0311e224,AWAITING REVIEW,2024-02-15T13:35:53.158000Z,2024-02-15T13:48:49.414000Z,,2024-02-15T13:48:50.254296Z,777.0,CVPIIDEI,6,31,Female,White,United States,United States,United States,English,No,Full-Time,Not Applicable
5a95700f1eda410001363018,<b>It?s often pretty easy to figure out whether something is true based on who said it.,Highly disagree,70/94,Somewhat agree,3,1708004756628,1708004763807,\Somewhat agree\,\Somewhat agree\,\3\,1708004762918,1708004762918,6290,6290,7179,buq,qns-item-noham,70,595197,0.0-1.0-0.69,65ce13325340f39a0311e224,AWAITING REVIEW,2024-02-15T13:35:53.158000Z,2024-02-15T13:48:49.414000Z,,2024-02-15T13:48:50.254296Z,777.0,CVPIIDEI,6,31,Female,White,United States,United States,United States,English,No,Full-Time,Not Applicable
5a95700f1eda410001363018,<b>I transform into a hummingbird every day.,Highly disagree,71/94,Highly disagree,1,1708004763809,1708004768317,\Highly disagree\,\Highly disagree\,\1\,1708004766400,1708004766400,2591,2591,4508,buq,qns-item-noham,71,599707,0.0-1.0-0.70,65ce13325340f39a0311e224,AWAITING REVIEW,2024-02-15T13:35:53.158000Z,2024-02-15T13:48:49.414000Z,,2024-02-15T13:48:50.254296Z,777.0,CVPIIDEI,6,31,Female,White,United States,United States,United States,English,No,Full-Time,Not Applicable
5a95700f1eda410001363018,<b>I think a lot about arguments against my views.,Highly disagree,72/94,Somewhat disagree,2,1708004768319,1708004773248,\Somewhat disagree\,\Somewhat disagree\,\2\,1708004772624,1708004772624,4305,4305,4929,buq,qns-item-noham,72,604638,0.0-1.0-0.71,65ce13325340f39a0311e224,AWAITING REVIEW,2024-02-15T13:35:53.158000Z,2024-02-15T13:48:49.414000Z,,2024-02-15T13:48:50.254296Z,777.0,CVPIIDEI,6,31,Female,White,United States,United States,United States,English,No,Full-Time,Not Applicable
5a95700f1eda410001363018,<b>Personal experience is usually more important than facts and figures.,Highly disagree,73/94,Highly disagree,1,1708004773249,1708004777554,\Highly disagree\,\Highly disagree\,\1\,1708004776787,1708004776787,3538,3538,4305,buq,qns-item-noham,73,608944,0.0-1.0-0.72,65ce13325340f39a0311e224,AWAITING REVIEW,2024-02-15T13:35:53.158000Z,2024-02-15T13:48:49.414000Z,,2024-02-15T13:48:50.254296Z,777.0,CVPIIDEI,6,31,Female,White,United States,United States,United States,English,No,Full-Time,Not Applicable
5a95700f1eda410001363018,<b>I?ve been tricked before about important matters.,Highly disagree,74/94,Highly disagree,1,1708004777556,1708004784560,\Highly disagree\,\Highly disagree\,\1\,1708004783673,1708004783673,6117,6117,7004,buq,qns-item-noham,74,615950,0.0-1.0-0.73,65ce13325340f39a0311e224,AWAITING REVIEW,2024-02-15T13:35:53.158000Z,2024-02-15T13:48:49.414000Z,,2024-02-15T13:48:50.254296Z,777.0,CVPIIDEI,6,31,Female,White,United States,United States,United States,English,No,Full-Time,Not Applicable
5a95700f1eda410001363018,<b>I would need to be totally wowed if I were to change my opinion of a restaurant I don?t like.,Highly disagree,75/94,Somewhat disagree,2,1708004784562,1708004792392,\Somewhat disagree\,\Somewhat disagree\,\2\,1708004791685,1708004791685,7123,7123,7830,buq,qns-item-noham,75,623782,0.0-1.0-0.74,65ce13325340f39a0311e224,AWAITING REVIEW,2024-02-15T13:35:53.158000Z,2024-02-15T13:48:49.414000Z,,2024-02-15T13:48:50.254296Z,777.0,CVPIIDEI,6,31,Female,White,United States,United States,United States,English,No,Full-Time,Not Applicable
5a95700f1eda410001363018,<b>I care a lot about politics.,Highly disagree,76/94,Somewhat agree,3,1708004792393,1708004795305,\Somewhat agree\,\Somewhat agree\,\3\,1708004794550,1708004794550,2157,2157,2912,buq,qns-item-noham,76,626695,0.0-1.0-0.75,65ce13325340f39a0311e224,AWAITING REVIEW,2024-02-15T13:35:53.158000Z,2024-02-15T13:48:49.414000Z,,2024-02-15T13:48:50.254296Z,777.0,CVPIIDEI,6,31,Female,White,United States,United States,United States,English,No,Full-Time,Not Applicable
5a95700f1eda410001363018,<b>There are some topics I?ve been really wrong about.,Highly disagree,77/94,Somewhat agree,3,1708004795307,1708004798873,\Somewhat agree\,\Somewhat agree\,\3\,1708004798133,1708004798133,2826,2826,3566,buq,qns-item-noham,77,630263,0.0-1.0-0.76,65ce13325340f39a0311e224,AWAITING REVIEW,2024-02-15T13:35:53.158000Z,2024-02-15T13:48:49.414000Z,,2024-02-15T13:48:50.254296Z,777.0,CVPIIDEI,6,31,Female,White,United States,United States,United States,English,No,Full-Time,Not Applicable
5a95700f1eda410001363018,<b>Most beliefs can be supported with at least some evidence.,Highly disagree,78/94,Somewhat agree,3,1708004798875,1708004805883,\Highly agree\,\Somewhat agree\,\4\,1708004803141,1708004805276,4266,6401,7008,buq,qns-item-noham,78,637273,0.0-1.0-0.77,65ce13325340f39a0311e224,AWAITING REVIEW,2024-02-15T13:35:53.158000Z,2024-02-15T13:48:49.414000Z,,2024-02-15T13:48:50.254296Z,777.0,CVPIIDEI,6,31,Female,White,United States,United States,United States,English,No,Full-Time,Not Applicable
5a95700f1eda410001363018,<b>Other people make life out to be more complicated than it really is.,Highly disagree,79/94,Somewhat agree,3,1708004805885,1708004813182,\Somewhat agree\,\Somewhat agree\,\3\,1708004812509,1708004812509,6624,6624,7297,buq,qns-item-noham,79,644572,0.0-1.0-0.78,65ce13325340f39a0311e224,AWAITING REVIEW,2024-02-15T13:35:53.158000Z,2024-02-15T13:48:49.414000Z,,2024-02-15T13:48:50.254296Z,777.0,CVPIIDEI,6,31,Female,White,United States,United States,United States,English,No,Full-Time,Not Applicable
5a95700f1eda410001363018,"<b>Policy details don?t matter much, just the big picture.",Highly disagree,80/94,Somewhat disagree,2,1708004813184,1708004817813,\Somewhat disagree\,\Somewhat disagree\,\2\,1708004817076,1708004817076,3892,3892,4629,buq,qns-item-noham,80,649203,0.0-1.0-0.79,65ce13325340f39a0311e224,AWAITING REVIEW,2024-02-15T13:35:53.158000Z,2024-02-15T13:48:49.414000Z,,2024-02-15T13:48:50.254296Z,777.0,CVPIIDEI,6,31,Female,White,United States,United States,United States,English,No,Full-Time,Not Applicable
5a95700f1eda410001363018,<b>I know my friends so well they can hardly ever surprise me.,Highly disagree,81/94,Somewhat agree,3,1708004817815,1708004824197,\Somewhat agree\,\Somewhat agree\,\3\,1708004823142,1708004823142,5327,5327,6382,buq,qns-item-noham,81,655587,0.0-1.0-0.80,65ce13325340f39a0311e224,AWAITING REVIEW,2024-02-15T13:35:53.158000Z,2024-02-15T13:48:49.414000Z,,2024-02-15T13:48:50.254296Z,777.0,CVPIIDEI,6,31,Female,White,United States,United States,United States,English,No,Full-Time,Not Applicable
5a95700f1eda410001363018,<b>I do not often change my views on people.,Highly disagree,82/94,Somewhat disagree,2,1708004824199,1708004827133,\Somewhat disagree\,\Somewhat disagree\,\2\,1708004826211,1708004826211,2012,2012,2934,buq,qns-item-noham,82,658524,0.0-1.0-0.81,65ce13325340f39a0311e224,AWAITING REVIEW,2024-02-15T13:35:53.158000Z,2024-02-15T13:48:49.414000Z,,2024-02-15T13:48:50.254296Z,777.0,CVPIIDEI,6,31,Female,White,United States,United States,United States,English,No,Full-Time,Not Applicable
5a95700f1eda410001363018,<b>I?m more certain about my beliefs than I used to be.,Highly disagree,83/94,Somewhat disagree,2,1708004827135,1708004830472,\Somewhat disagree\,\Somewhat disagree\,\2\,1708004829668,1708004829668,2533,2533,3337,buq,qns-item-noham,83,661863,0.0-1.0-0.82,65ce13325340f39a0311e224,AWAITING REVIEW,2024-02-15T13:35:53.158000Z,2024-02-15T13:48:49.414000Z,,2024-02-15T13:48:50.254296Z,777.0,CVPIIDEI,6,31,Female,White,United States,United States,United States,English,No,Full-Time,Not Applicable
5a95700f1eda410001363018,<b>People often tell falsehoods unintentionally.,Highly disagree,84/94,Somewhat agree,3,1708004830474,1708004836812,\Somewhat agree\,\Somewhat agree\,\3\,1708004835691,1708004835691,5217,5217,6338,buq,qns-item-noham,84,668202,0.0-1.0-0.83,65ce13325340f39a0311e224,AWAITING REVIEW,2024-02-15T13:35:53.158000Z,2024-02-15T13:48:49.414000Z,,2024-02-15T13:48:50.254296Z,777.0,CVPIIDEI,6,31,Female,White,United States,United States,United States,English,No,Full-Time,Not Applicable
5a95700f1eda410001363018,<b>Most people don?t know much about most things.,Highly disagree,85/94,Highly agree,4,1708004836814,1708004843648,\Somewhat agree\,\Highly agree\,\3\,1708004840739,1708004842874,3925,6060,6834,buq,qns-item-noham,85,675038,0.0-1.0-0.84,65ce13325340f39a0311e224,AWAITING REVIEW,2024-02-15T13:35:53.158000Z,2024-02-15T13:48:49.414000Z,,2024-02-15T13:48:50.254296Z,777.0,CVPIIDEI,6,31,Female,White,United States,United States,United States,English,No,Full-Time,Not Applicable
5a95700f1eda410001363018,"<b>If I find out something new about someone, I easily change my views about them.",Highly disagree,86/94,Somewhat agree,3,1708004843651,1708004849468,\Somewhat agree\,\Somewhat agree\,\3\,1708004848281,1708004848281,4630,4630,5817,buq,qns-item-noham,86,680858,0.0-1.0-0.85,65ce13325340f39a0311e224,AWAITING REVIEW,2024-02-15T13:35:53.158000Z,2024-02-15T13:48:49.414000Z,,2024-02-15T13:48:50.254296Z,777.0,CVPIIDEI,6,31,Female,White,United States,United States,United States,English,No,Full-Time,Not Applicable
5a95700f1eda410001363018,<b>Having true beliefs is difficult.,Highly disagree,87/94,Somewhat disagree,2,1708004849470,1708004853056,\Somewhat disagree\,\Somewhat disagree\,\2\,1708004852334,1708004852334,2864,2864,3586,buq,qns-item-noham,87,684446,0.0-1.0-0.86,65ce13325340f39a0311e224,AWAITING REVIEW,2024-02-15T13:35:53.158000Z,2024-02-15T13:48:49.414000Z,,2024-02-15T13:48:50.254296Z,777.0,CVPIIDEI,6,31,Female,White,United States,United States,United States,English,No,Full-Time,Not Applicable
5a95700f1eda410001363018,<b>I don?t try new foods since I know I won?t like them.,Highly disagree,88/94,Highly disagree,1,1708004853058,1708004856517,\Highly disagree\,\Highly disagree\,\1\,1708004855709,1708004855709,2651,2651,3459,buq,qns-item-noham,88,687907,0.0-1.0-0.87,65ce13325340f39a0311e224,AWAITING REVIEW,2024-02-15T13:35:53.158000Z,2024-02-15T13:48:49.414000Z,,2024-02-15T13:48:50.254296Z,777.0,CVPIIDEI,6,31,Female,White,United States,United States,United States,English,No,Full-Time,Not Applicable
5a95700f1eda410001363018,<b>Other people trick each other a lot.,Highly disagree,89/94,Highly disagree,1,1708004856518,1708004863438,\Highly disagree\,\Highly disagree\,\1\,1708004862648,1708004862648,6130,6130,6920,buq,qns-item-noham,89,694828,0.0-1.0-0.88,65ce13325340f39a0311e224,AWAITING REVIEW,2024-02-15T13:35:53.158000Z,2024-02-15T13:48:49.414000Z,,2024-02-15T13:48:50.254296Z,777.0,CVPIIDEI,6,31,Female,White,United States,United States,United States,English,No,Full-Time,Not Applicable
5a95700f1eda410001363018,<b>I would need to learn a lot about a person for my opinion of them to be swayed.,Highly disagree,90/94,Somewhat disagree,2,1708004863439,1708004868598,\Somewhat disagree\,\Somewhat disagree\,\2\,1708004867742,1708004867742,4303,4303,5159,buq,qns-item-noham,90,699988,0.0-1.0-0.89,65ce13325340f39a0311e224,AWAITING REVIEW,2024-02-15T13:35:53.158000Z,2024-02-15T13:48:49.414000Z,,2024-02-15T13:48:50.254296Z,777.0,CVPIIDEI,6,31,Female,White,United States,United States,United States,English,No,Full-Time,Not Applicable
5a95700f1eda410001363018,<b>People can?t usually trick me when it comes to topics I care about.,Highly disagree,91/94,Somewhat agree,3,1708004868599,1708004875620,\Somewhat disagree\,\Somewhat agree\,\2\,1708004872735,1708004874441,4136,5842,7021,buq,qns-item-noham,91,707010,0.0-1.0-0.90,65ce13325340f39a0311e224,AWAITING REVIEW,2024-02-15T13:35:53.158000Z,2024-02-15T13:48:49.414000Z,,2024-02-15T13:48:50.254296Z,777.0,CVPIIDEI,6,31,Female,White,United States,United States,United States,English,No,Full-Time,Not Applicable
5a95700f1eda410001363018,<b>I do not often change my views on food.,Highly disagree,92/94,Somewhat disagree,2,1708004875621,1708004882343,\Somewhat disagree\,\Somewhat disagree\,\2\,1708004881653,1708004881653,6032,6032,6722,buq,qns-item-noham,92,713733,0.0-1.0-0.91,65ce13325340f39a0311e224,AWAITING REVIEW,2024-02-15T13:35:53.158000Z,2024-02-15T13:48:49.414000Z,,2024-02-15T13:48:50.254296Z,777.0,CVPIIDEI,6,31,Female,White,United States,United States,United States,English,No,Full-Time,Not Applicable
5a95700f1eda410001363018,<b>Specific policies are often very important to me.,Highly disagree,93/94,Somewhat agree,3,1708004882345,1708004886434,\Somewhat agree\,\Somewhat agree\,\3\,1708004885244,1708004885244,2899,2899,4089,buq,qns-item-noham,93,717824,0.0-1.0-0.92,65ce13325340f39a0311e224,AWAITING REVIEW,2024-02-15T13:35:53.158000Z,2024-02-15T13:48:49.414000Z,,2024-02-15T13:48:50.254296Z,777.0,CVPIIDEI,6,31,Female,White,United States,United States,United States,English,No,Full-Time,Not Applicable
5a95700f1eda410001363018,<b>Most people are woefully under-informed.,Highly disagree,94/94,Somewhat agree,3,1708004886437,1708004890595,\Somewhat agree\,\Somewhat agree\,\3\,1708004889839,1708004889839,3402,3402,4158,buq,qns-item-noham,94,721985,0.0-1.0-0.93,65ce13325340f39a0311e224,AWAITING REVIEW,2024-02-15T13:35:53.158000Z,2024-02-15T13:48:49.414000Z,,2024-02-15T13:48:50.254296Z,777.0,CVPIIDEI,6,31,Female,White,United States,United States,United States,English,No,Full-Time,Not Applicable
5a95700f1eda410001363018,,,,,,,,,,,,,,,,,,,,,65ce13325340f39a0311e224,AWAITING REVIEW,2024-02-15T13:35:53.158000Z,2024-02-15T13:48:49.414000Z,,2024-02-15T13:48:50.254296Z,777.0,CVPIIDEI,6,31,Female,White,United States,United States,United States,English,No,Full-Time,Not Applicable
