PROLIFIC_PID,Question,qns_options,quest_num,answer,answer_num,question_load_timestamp,next_btn_timestamp,text_selected,final_text_selected,option_num_selected,preview_timestamps,final_text_selected_time_stamp,rt_first_option_click,rt_final_option_click,rt_submit_click,questionnaire,trial_type,trial_index,time_elapsed,internal_node_id,Demographic_Submission id,Demographic_Status,Demographic_Started at,Demographic_Completed at,Demographic_Reviewed at,Demographic_Archived at,Demographic_Time taken,Demographic_Completion code,Demographic_Total approvals,Demographic_Age,Demographic_Sex,Demographic_Ethnicity simplified,Demographic_Country of birth,Demographic_Country of residence,Demographic_Nationality,Demographic_Language,Demographic_Student status,Demographic_Employment status,Demographic_Custom study tncs accepted at
656d3a23361febf855fab944,<b>Knowing what?s true and knowing what to do about it are usually basically the same.,Highly disagree,1/94,Highly disagree,1,1708005247479,1708005264171,\Highly disagree\,\Highly disagree\,\1\,1708005263186,1708005263186,15707,15707,16692,buq,qns-item-noham,1,33895,0.0-1.0-0.0,65ce174cbf66fbd4ab0f1c16,AWAITING REVIEW,2024-02-15T13:53:21.861000Z,2024-02-15T14:09:13.111000Z,,2024-02-15T14:09:14.045624Z,952.0,CVPIIDEI,69,23,Female,Other,United States,United States,United States,English,No,DATA_EXPIRED,Not Applicable
656d3a23361febf855fab944,<b>Most people just believe whatever is convenient for them.,Highly disagree,2/94,Somewhat disagree,2,1708005264176,1708005273447,\Somewhat disagree\,\Somewhat disagree\,\2\,1708005272195,1708005272195,8019,8019,9271,buq,qns-item-noham,2,43171,0.0-1.0-0.1,65ce174cbf66fbd4ab0f1c16,AWAITING REVIEW,2024-02-15T13:53:21.861000Z,2024-02-15T14:09:13.111000Z,,2024-02-15T14:09:14.045624Z,952.0,CVPIIDEI,69,23,Female,Other,United States,United States,United States,English,No,DATA_EXPIRED,Not Applicable
656d3a23361febf855fab944,<b>Having some big beliefs helps me sort out minor ones.,Highly disagree,3/94,Somewhat agree,3,1708005273450,1708005280171,\Somewhat agree\,\Somewhat agree\,\3\,1708005279503,1708005279503,6053,6053,6721,buq,qns-item-noham,3,49895,0.0-1.0-0.2,65ce174cbf66fbd4ab0f1c16,AWAITING REVIEW,2024-02-15T13:53:21.861000Z,2024-02-15T14:09:13.111000Z,,2024-02-15T14:09:14.045624Z,952.0,CVPIIDEI,69,23,Female,Other,United States,United States,United States,English,No,DATA_EXPIRED,Not Applicable
656d3a23361febf855fab944,<b>Political questions are usually pretty complicated.,Highly disagree,4/94,Somewhat agree,3,1708005280173,1708005286928,\Somewhat agree\,\Somewhat agree\,\3\,1708005284242,1708005284242,4069,4069,6755,buq,qns-item-noham,4,56652,0.0-1.0-0.3,65ce174cbf66fbd4ab0f1c16,AWAITING REVIEW,2024-02-15T13:53:21.861000Z,2024-02-15T14:09:13.111000Z,,2024-02-15T14:09:14.045624Z,952.0,CVPIIDEI,69,23,Female,Other,United States,United States,United States,English,No,DATA_EXPIRED,Not Applicable
656d3a23361febf855fab944,<b>Figuring out what?s important in life requires learning a lot of facts.,Highly disagree,5/94,Somewhat agree,3,1708005286930,1708005292935,\Somewhat agree\,\Somewhat agree\,\3\,1708005292317,1708005292317,5387,5387,6005,buq,qns-item-noham,5,62659,0.0-1.0-0.4,65ce174cbf66fbd4ab0f1c16,AWAITING REVIEW,2024-02-15T13:53:21.861000Z,2024-02-15T14:09:13.111000Z,,2024-02-15T14:09:14.045624Z,952.0,CVPIIDEI,69,23,Female,Other,United States,United States,United States,English,No,DATA_EXPIRED,Not Applicable
656d3a23361febf855fab944,<b>It is difficult for me to remember the last time I was surprised by politics.,Highly disagree,6/94,Somewhat agree,3,1708005292937,1708005300276,\Somewhat agree\,\Somewhat agree\,\3\,1708005298574,1708005298574,5637,5637,7339,buq,qns-item-noham,6,70000,0.0-1.0-0.5,65ce174cbf66fbd4ab0f1c16,AWAITING REVIEW,2024-02-15T13:53:21.861000Z,2024-02-15T14:09:13.111000Z,,2024-02-15T14:09:14.045624Z,952.0,CVPIIDEI,69,23,Female,Other,United States,United States,United States,English,No,DATA_EXPIRED,Not Applicable
656d3a23361febf855fab944,<b>People?s false beliefs are understandable.,Highly disagree,7/94,Somewhat disagree,2,1708005300278,1708005306332,\Somewhat disagree\,\Somewhat disagree\,\2\,1708005303479,1708005303479,3201,3201,6054,buq,qns-item-noham,7,76056,0.0-1.0-0.6,65ce174cbf66fbd4ab0f1c16,AWAITING REVIEW,2024-02-15T13:53:21.861000Z,2024-02-15T14:09:13.111000Z,,2024-02-15T14:09:14.045624Z,952.0,CVPIIDEI,69,23,Female,Other,United States,United States,United States,English,No,DATA_EXPIRED,Not Applicable
656d3a23361febf855fab944,<b>I spend a lot of time trying to be informed about politics.,Highly disagree,8/94,Somewhat disagree,2,1708005306334,1708005313957,\Somewhat disagree\,\Somewhat disagree\,\2\,1708005311638,1708005311638,5304,5304,7623,buq,qns-item-noham,8,83681,0.0-1.0-0.7,65ce174cbf66fbd4ab0f1c16,AWAITING REVIEW,2024-02-15T13:53:21.861000Z,2024-02-15T14:09:13.111000Z,,2024-02-15T14:09:14.045624Z,952.0,CVPIIDEI,69,23,Female,Other,United States,United States,United States,English,No,DATA_EXPIRED,Not Applicable
656d3a23361febf855fab944,<b>I think a lot about whether my beliefs are right.,Highly disagree,9/94,Somewhat disagree,2,1708005313959,1708005331693,\Somewhat disagree\,\Somewhat disagree\,\2\,1708005330992,1708005330992,17033,17033,17734,buq,qns-item-noham,9,101417,0.0-1.0-0.8,65ce174cbf66fbd4ab0f1c16,AWAITING REVIEW,2024-02-15T13:53:21.861000Z,2024-02-15T14:09:13.111000Z,,2024-02-15T14:09:14.045624Z,952.0,CVPIIDEI,69,23,Female,Other,United States,United States,United States,English,No,DATA_EXPIRED,Not Applicable
656d3a23361febf855fab944,<b>Statistics can be pretty misleading sometimes.,Highly disagree,10/94,Somewhat disagree,2,1708005331695,1708005338485,\Somewhat disagree\,\Somewhat disagree\,\2\,1708005338000,1708005338000,6305,6305,6790,buq,qns-item-noham,10,108209,0.0-1.0-0.9,65ce174cbf66fbd4ab0f1c16,AWAITING REVIEW,2024-02-15T13:53:21.861000Z,2024-02-15T14:09:13.111000Z,,2024-02-15T14:09:14.045624Z,952.0,CVPIIDEI,69,23,Female,Other,United States,United States,United States,English,No,DATA_EXPIRED,Not Applicable
656d3a23361febf855fab944,<b>I have lots of beliefs that I?m only sort of sure about.,Highly disagree,11/94,Somewhat agree,3,1708005338487,1708005343389,\Somewhat agree\,\Somewhat agree\,\3\,1708005342805,1708005342805,4318,4318,4902,buq,qns-item-noham,11,113113,0.0-1.0-0.10,65ce174cbf66fbd4ab0f1c16,AWAITING REVIEW,2024-02-15T13:53:21.861000Z,2024-02-15T14:09:13.111000Z,,2024-02-15T14:09:14.045624Z,952.0,CVPIIDEI,69,23,Female,Other,United States,United States,United States,English,No,DATA_EXPIRED,Not Applicable
656d3a23361febf855fab944,"<b>If I go to my favorite restaurant and the food is surprisingly bad, it reminds me there are many disappointments in life.",Highly disagree,12/94,Somewhat agree,3,1708005343391,1708005356787,\Somewhat agree\,\Somewhat agree\,\3\,1708005356136,1708005356136,12745,12745,13396,buq,qns-item-noham,12,126511,0.0-1.0-0.11,65ce174cbf66fbd4ab0f1c16,AWAITING REVIEW,2024-02-15T13:53:21.861000Z,2024-02-15T14:09:13.111000Z,,2024-02-15T14:09:14.045624Z,952.0,CVPIIDEI,69,23,Female,Other,United States,United States,United States,English,No,DATA_EXPIRED,Not Applicable
656d3a23361febf855fab944,"<b>If you are paying attention, please select ?Somewhat agree?",Highly disagree,13/94,Somewhat agree,3,1708005356788,1708005359990,\Somewhat agree\,\Somewhat agree\,\3\,1708005359273,1708005359273,2485,2485,3202,buq,qns-item-noham,13,129714,0.0-1.0-0.12,65ce174cbf66fbd4ab0f1c16,AWAITING REVIEW,2024-02-15T13:53:21.861000Z,2024-02-15T14:09:13.111000Z,,2024-02-15T14:09:14.045624Z,952.0,CVPIIDEI,69,23,Female,Other,United States,United States,United States,English,No,DATA_EXPIRED,Not Applicable
656d3a23361febf855fab944,"<b>When I talk to others, I often worry I?ll convince them of something I didn?t mean to.",Highly disagree,14/94,Somewhat disagree,2,1708005359992,1708005366080,\Somewhat disagree\,\Somewhat disagree\,\2\,1708005365429,1708005365429,5437,5437,6088,buq,qns-item-noham,14,135804,0.0-1.0-0.13,65ce174cbf66fbd4ab0f1c16,AWAITING REVIEW,2024-02-15T13:53:21.861000Z,2024-02-15T14:09:13.111000Z,,2024-02-15T14:09:14.045624Z,952.0,CVPIIDEI,69,23,Female,Other,United States,United States,United States,English,No,DATA_EXPIRED,Not Applicable
656d3a23361febf855fab944,<b>I would need to learn something utterly shocking about my party in order to change my political views.,Highly disagree,15/94,Somewhat agree,3,1708005366082,1708005376393,\Somewhat agree\,\Somewhat agree\,\3\,1708005375624,1708005375624,9542,9542,10311,buq,qns-item-noham,15,146117,0.0-1.0-0.14,65ce174cbf66fbd4ab0f1c16,AWAITING REVIEW,2024-02-15T13:53:21.861000Z,2024-02-15T14:09:13.111000Z,,2024-02-15T14:09:14.045624Z,952.0,CVPIIDEI,69,23,Female,Other,United States,United States,United States,English,No,DATA_EXPIRED,Not Applicable
656d3a23361febf855fab944,"<b>When I have new experiences, I tend to think of them as unique.",Highly disagree,16/94,Somewhat disagree,2,1708005376395,1708005381113,\Somewhat disagree\,\Somewhat disagree\,\2\,1708005380362,1708005380362,3967,3967,4718,buq,qns-item-noham,16,150837,0.0-1.0-0.15,65ce174cbf66fbd4ab0f1c16,AWAITING REVIEW,2024-02-15T13:53:21.861000Z,2024-02-15T14:09:13.111000Z,,2024-02-15T14:09:14.045624Z,952.0,CVPIIDEI,69,23,Female,Other,United States,United States,United States,English,No,DATA_EXPIRED,Not Applicable
656d3a23361febf855fab944,<b>I change my mind about specific policies pretty frequently.,Highly disagree,17/94,Somewhat disagree,2,1708005381114,1708005412764,\Somewhat disagree\,\Somewhat disagree\,\2\,1708005412263,1708005412263,31149,31149,31650,buq,qns-item-noham,17,182488,0.0-1.0-0.16,65ce174cbf66fbd4ab0f1c16,AWAITING REVIEW,2024-02-15T13:53:21.861000Z,2024-02-15T14:09:13.111000Z,,2024-02-15T14:09:14.045624Z,952.0,CVPIIDEI,69,23,Female,Other,United States,United States,United States,English,No,DATA_EXPIRED,Not Applicable
656d3a23361febf855fab944,"<b>If a politician in my political party supports something I disagree with, I give them the benefit of the doubt, as such issues often involve hidden complexities that aren?t obvious.   ",Highly disagree,18/94,Somewhat disagree,2,1708005412765,1708005421890,\Somewhat disagree\,\Somewhat disagree\,\2\,1708005421158,1708005421158,8393,8393,9125,buq,qns-item-noham,18,191614,0.0-1.0-0.17,65ce174cbf66fbd4ab0f1c16,AWAITING REVIEW,2024-02-15T13:53:21.861000Z,2024-02-15T14:09:13.111000Z,,2024-02-15T14:09:14.045624Z,952.0,CVPIIDEI,69,23,Female,Other,United States,United States,United States,English,No,DATA_EXPIRED,Not Applicable
656d3a23361febf855fab944,<b>People?s bad politics are usually motivated by hatefulness.,Highly disagree,19/94,Somewhat agree,3,1708005421892,1708005426195,\Somewhat agree\,\Somewhat agree\,\3\,1708005425596,1708005425596,3704,3704,4303,buq,qns-item-noham,19,195919,0.0-1.0-0.18,65ce174cbf66fbd4ab0f1c16,AWAITING REVIEW,2024-02-15T13:53:21.861000Z,2024-02-15T14:09:13.111000Z,,2024-02-15T14:09:14.045624Z,952.0,CVPIIDEI,69,23,Female,Other,United States,United States,United States,English,No,DATA_EXPIRED,Not Applicable
656d3a23361febf855fab944,<b>I think a lot about how to reconcile my beliefs with one another.,Highly disagree,20/94,Somewhat disagree,2,1708005426197,1708005459548,\Somewhat disagree\,\Somewhat disagree\,\2\,1708005458913,1708005458913,32716,32716,33351,buq,qns-item-noham,20,229272,0.0-1.0-0.19,65ce174cbf66fbd4ab0f1c16,AWAITING REVIEW,2024-02-15T13:53:21.861000Z,2024-02-15T14:09:13.111000Z,,2024-02-15T14:09:14.045624Z,952.0,CVPIIDEI,69,23,Female,Other,United States,United States,United States,English,No,DATA_EXPIRED,Not Applicable
656d3a23361febf855fab944,<b>I might have false beliefs about important topics.,Highly disagree,21/94,Somewhat disagree,2,1708005459549,1708005465604,\Somewhat disagree\,\Somewhat disagree\,\2\,1708005464970,1708005464970,5421,5421,6055,buq,qns-item-noham,21,235328,0.0-1.0-0.20,65ce174cbf66fbd4ab0f1c16,AWAITING REVIEW,2024-02-15T13:53:21.861000Z,2024-02-15T14:09:13.111000Z,,2024-02-15T14:09:14.045624Z,952.0,CVPIIDEI,69,23,Female,Other,United States,United States,United States,English,No,DATA_EXPIRED,Not Applicable
656d3a23361febf855fab944,"<b>If a good friend of mine does something unexpected that upsets me, I feel like I don?t know them anymore.",Highly disagree,22/94,Somewhat disagree,2,1708005465606,1708005567714,\Somewhat disagree\,\Somewhat disagree\,\2\,1708005567147,1708005567147,101541,101541,102108,buq,qns-item-noham,22,337438,0.0-1.0-0.21,65ce174cbf66fbd4ab0f1c16,AWAITING REVIEW,2024-02-15T13:53:21.861000Z,2024-02-15T14:09:13.111000Z,,2024-02-15T14:09:14.045624Z,952.0,CVPIIDEI,69,23,Female,Other,United States,United States,United States,English,No,DATA_EXPIRED,Not Applicable
656d3a23361febf855fab944,<b>Other people?s beliefs are often incoherent.,Highly disagree,23/94,Somewhat agree,3,1708005567716,1708005573620,\Somewhat agree\,\Somewhat agree\,\3\,1708005573053,1708005573053,5337,5337,5904,buq,qns-item-noham,23,343344,0.0-1.0-0.22,65ce174cbf66fbd4ab0f1c16,AWAITING REVIEW,2024-02-15T13:53:21.861000Z,2024-02-15T14:09:13.111000Z,,2024-02-15T14:09:14.045624Z,952.0,CVPIIDEI,69,23,Female,Other,United States,United States,United States,English,No,DATA_EXPIRED,Not Applicable
656d3a23361febf855fab944,"<b>Every now and then, a new experience will unsettle beliefs I?ve had for a while.",Highly disagree,24/94,Somewhat agree,3,1708005573622,1708005595460,\Somewhat agree\,\Somewhat agree\,\3\,1708005594926,1708005594926,21304,21304,21838,buq,qns-item-noham,24,365185,0.0-1.0-0.23,65ce174cbf66fbd4ab0f1c16,AWAITING REVIEW,2024-02-15T13:53:21.861000Z,2024-02-15T14:09:13.111000Z,,2024-02-15T14:09:14.045624Z,952.0,CVPIIDEI,69,23,Female,Other,United States,United States,United States,English,No,DATA_EXPIRED,Not Applicable
656d3a23361febf855fab944,<b>Some policies I agree with in principle are so bad I don?t support them. ,Highly disagree,25/94,Somewhat disagree,2,1708005595462,1708005602718,\Somewhat disagree\,\Somewhat disagree\,\2\,1708005602168,1708005602168,6706,6706,7256,buq,qns-item-noham,25,372442,0.0-1.0-0.24,65ce174cbf66fbd4ab0f1c16,AWAITING REVIEW,2024-02-15T13:53:21.861000Z,2024-02-15T14:09:13.111000Z,,2024-02-15T14:09:14.045624Z,952.0,CVPIIDEI,69,23,Female,Other,United States,United States,United States,English,No,DATA_EXPIRED,Not Applicable
656d3a23361febf855fab944,<b>I?m pretty sure I?ve accidentally spread false information.,Highly disagree,26/94,Somewhat agree,3,1708005602720,1708005606155,\Somewhat agree\,\Somewhat agree\,\3\,1708005605522,1708005605522,2802,2802,3435,buq,qns-item-noham,26,375879,0.0-1.0-0.25,65ce174cbf66fbd4ab0f1c16,AWAITING REVIEW,2024-02-15T13:53:21.861000Z,2024-02-15T14:09:13.111000Z,,2024-02-15T14:09:14.045624Z,952.0,CVPIIDEI,69,23,Female,Other,United States,United States,United States,English,No,DATA_EXPIRED,Not Applicable
656d3a23361febf855fab944,"<b>If I go to my favorite restaurant and the food is unexpectedly bad, then they have changed owners.",Highly disagree,27/94,Somewhat agree,3,1708005606157,1708005613313,\Somewhat agree\,\Somewhat agree\,\3\,1708005612712,1708005612712,6555,6555,7156,buq,qns-item-noham,27,383037,0.0-1.0-0.26,65ce174cbf66fbd4ab0f1c16,AWAITING REVIEW,2024-02-15T13:53:21.861000Z,2024-02-15T14:09:13.111000Z,,2024-02-15T14:09:14.045624Z,952.0,CVPIIDEI,69,23,Female,Other,United States,United States,United States,English,No,DATA_EXPIRED,Not Applicable
656d3a23361febf855fab944,"<b>In politics, it?s important to trust your friends and family.",Highly disagree,28/94,Somewhat disagree,2,1708005613315,1708005618669,\Somewhat disagree\,\Somewhat disagree\,\2\,1708005617918,1708005617918,4603,4603,5354,buq,qns-item-noham,28,388393,0.0-1.0-0.27,65ce174cbf66fbd4ab0f1c16,AWAITING REVIEW,2024-02-15T13:53:21.861000Z,2024-02-15T14:09:13.111000Z,,2024-02-15T14:09:14.045624Z,952.0,CVPIIDEI,69,23,Female,Other,United States,United States,United States,English,No,DATA_EXPIRED,Not Applicable
656d3a23361febf855fab944,<b>It?s OK to have some conflicting beliefs.,Highly disagree,29/94,Somewhat agree,3,1708005618671,1708005624675,\Somewhat agree\,\Somewhat agree\,\3\,1708005624141,1708005624141,5470,5470,6004,buq,qns-item-noham,29,394399,0.0-1.0-0.28,65ce174cbf66fbd4ab0f1c16,AWAITING REVIEW,2024-02-15T13:53:21.861000Z,2024-02-15T14:09:13.111000Z,,2024-02-15T14:09:14.045624Z,952.0,CVPIIDEI,69,23,Female,Other,United States,United States,United States,English,No,DATA_EXPIRED,Not Applicable
656d3a23361febf855fab944,<b>Listening to people I disagree with makes my opinions better.,Highly disagree,30/94,Somewhat agree,3,1708005624677,1708005631583,\Somewhat agree\,\Somewhat agree\,\3\,1708005630365,1708005630365,5688,5688,6906,buq,qns-item-noham,30,401307,0.0-1.0-0.29,65ce174cbf66fbd4ab0f1c16,AWAITING REVIEW,2024-02-15T13:53:21.861000Z,2024-02-15T14:09:13.111000Z,,2024-02-15T14:09:14.045624Z,952.0,CVPIIDEI,69,23,Female,Other,United States,United States,United States,English,No,DATA_EXPIRED,Not Applicable
656d3a23361febf855fab944,<b>My moral compass sometimes makes it harder to determine what?s true.,Highly disagree,31/94,Somewhat agree,3,1708005631584,1708005636672,\Somewhat agree\,\Somewhat agree\,\3\,1708005635687,1708005635687,4103,4103,5088,buq,qns-item-noham,31,406396,0.0-1.0-0.30,65ce174cbf66fbd4ab0f1c16,AWAITING REVIEW,2024-02-15T13:53:21.861000Z,2024-02-15T14:09:13.111000Z,,2024-02-15T14:09:14.045624Z,952.0,CVPIIDEI,69,23,Female,Other,United States,United States,United States,English,No,DATA_EXPIRED,Not Applicable
656d3a23361febf855fab944,<b>Evidence pointing in the wrong direction isn?t really evidence at all.,Highly disagree,32/94,Somewhat disagree,2,1708005636673,1708005643045,\Somewhat agree\,\Somewhat disagree\,\3\,1708005641727,1708005642295,5054,5622,6372,buq,qns-item-noham,32,412769,0.0-1.0-0.31,65ce174cbf66fbd4ab0f1c16,AWAITING REVIEW,2024-02-15T13:53:21.861000Z,2024-02-15T14:09:13.111000Z,,2024-02-15T14:09:14.045624Z,952.0,CVPIIDEI,69,23,Female,Other,United States,United States,United States,English,No,DATA_EXPIRED,Not Applicable
656d3a23361febf855fab944,"<b>If the political party I support messes up, it makes me think politics is rotten.",Highly disagree,33/94,Somewhat agree,3,1708005643047,1708005649018,\Somewhat agree\,\Somewhat agree\,\3\,1708005648484,1708005648484,5437,5437,5971,buq,qns-item-noham,33,418742,0.0-1.0-0.32,65ce174cbf66fbd4ab0f1c16,AWAITING REVIEW,2024-02-15T13:53:21.861000Z,2024-02-15T14:09:13.111000Z,,2024-02-15T14:09:14.045624Z,952.0,CVPIIDEI,69,23,Female,Other,United States,United States,United States,English,No,DATA_EXPIRED,Not Applicable
656d3a23361febf855fab944,<b>Lots of important topics can only really be understood by some groups of people.,Highly disagree,34/94,Somewhat agree,3,1708005649020,1708005662767,\Somewhat agree\,\Somewhat agree\,\3\,1708005661948,1708005661948,12928,12928,13747,buq,qns-item-noham,34,432492,0.0-1.0-0.33,65ce174cbf66fbd4ab0f1c16,AWAITING REVIEW,2024-02-15T13:53:21.861000Z,2024-02-15T14:09:13.111000Z,,2024-02-15T14:09:14.045624Z,952.0,CVPIIDEI,69,23,Female,Other,United States,United States,United States,English,No,DATA_EXPIRED,Not Applicable
656d3a23361febf855fab944,<b>Having conflicting beliefs means you haven?t thought about them enough.,Highly disagree,35/94,Highly disagree,1,1708005662769,1708005670241,\Highly disagree\,\Highly disagree\,\1\,1708005669757,1708005669757,6988,6988,7472,buq,qns-item-noham,35,439965,0.0-1.0-0.34,65ce174cbf66fbd4ab0f1c16,AWAITING REVIEW,2024-02-15T13:53:21.861000Z,2024-02-15T14:09:13.111000Z,,2024-02-15T14:09:14.045624Z,952.0,CVPIIDEI,69,23,Female,Other,United States,United States,United States,English,No,DATA_EXPIRED,Not Applicable
656d3a23361febf855fab944,<b>I do not often change my political opinions.,Highly disagree,36/94,Somewhat disagree,2,1708005670243,1708005673545,\Somewhat disagree\,\Somewhat disagree\,\2\,1708005672978,1708005672978,2735,2735,3302,buq,qns-item-noham,36,443269,0.0-1.0-0.35,65ce174cbf66fbd4ab0f1c16,AWAITING REVIEW,2024-02-15T13:53:21.861000Z,2024-02-15T14:09:13.111000Z,,2024-02-15T14:09:14.045624Z,952.0,CVPIIDEI,69,23,Female,Other,United States,United States,United States,English,No,DATA_EXPIRED,Not Applicable
656d3a23361febf855fab944,<b>It?s difficult to not have at least some conflicting beliefs.,Highly disagree,37/94,Highly agree,4,1708005673546,1708005677566,\Highly agree\,\Highly agree\,\4\,1708005676881,1708005676881,3335,3335,4020,buq,qns-item-noham,37,447290,0.0-1.0-0.36,65ce174cbf66fbd4ab0f1c16,AWAITING REVIEW,2024-02-15T13:53:21.861000Z,2024-02-15T14:09:13.111000Z,,2024-02-15T14:09:14.045624Z,952.0,CVPIIDEI,69,23,Female,Other,United States,United States,United States,English,No,DATA_EXPIRED,Not Applicable
656d3a23361febf855fab944,<b>Wishful thinking causes a lot of problems.,Highly disagree,38/94,Somewhat agree,3,1708005677568,1708005680953,\Somewhat agree\,\Somewhat agree\,\3\,1708005680419,1708005680419,2851,2851,3385,buq,qns-item-noham,38,450677,0.0-1.0-0.37,65ce174cbf66fbd4ab0f1c16,AWAITING REVIEW,2024-02-15T13:53:21.861000Z,2024-02-15T14:09:13.111000Z,,2024-02-15T14:09:14.045624Z,952.0,CVPIIDEI,69,23,Female,Other,United States,United States,United States,English,No,DATA_EXPIRED,Not Applicable
656d3a23361febf855fab944,<b>I judge a food item only once I try it many times.,Highly disagree,39/94,Somewhat disagree,2,1708005680954,1708005685274,\Somewhat disagree\,\Somewhat disagree\,\2\,1708005684773,1708005684773,3819,3819,4320,buq,qns-item-noham,39,454998,0.0-1.0-0.38,65ce174cbf66fbd4ab0f1c16,AWAITING REVIEW,2024-02-15T13:53:21.861000Z,2024-02-15T14:09:13.111000Z,,2024-02-15T14:09:14.045624Z,952.0,CVPIIDEI,69,23,Female,Other,United States,United States,United States,English,No,DATA_EXPIRED,Not Applicable
656d3a23361febf855fab944,"<b>When a person holds conflicting beliefs, they should really try to figure out what?s wrong.",Highly disagree,40/94,Somewhat disagree,2,1708005685276,1708005689762,\Somewhat disagree\,\Somewhat disagree\,\2\,1708005689146,1708005689146,3870,3870,4486,buq,qns-item-noham,40,459486,0.0-1.0-0.39,65ce174cbf66fbd4ab0f1c16,AWAITING REVIEW,2024-02-15T13:53:21.861000Z,2024-02-15T14:09:13.111000Z,,2024-02-15T14:09:14.045624Z,952.0,CVPIIDEI,69,23,Female,Other,United States,United States,United States,English,No,DATA_EXPIRED,Not Applicable
656d3a23361febf855fab944,<b>Knowing what?s important in life is easy.,Highly disagree,41/94,Somewhat disagree,2,1708005689764,1708005694050,\Somewhat disagree\,\Somewhat disagree\,\2\,1708005692282,1708005692282,2518,2518,4286,buq,qns-item-noham,41,463774,0.0-1.0-0.40,65ce174cbf66fbd4ab0f1c16,AWAITING REVIEW,2024-02-15T13:53:21.861000Z,2024-02-15T14:09:13.111000Z,,2024-02-15T14:09:14.045624Z,952.0,CVPIIDEI,69,23,Female,Other,United States,United States,United States,English,No,DATA_EXPIRED,Not Applicable
656d3a23361febf855fab944,<b>I swim across the Atlantic Ocean to get to work every day.,Highly disagree,42/94,Highly disagree,1,1708005694052,1708005698922,\Highly disagree\,\Highly disagree\,\1\,1708005697871,1708005697871,3819,3819,4870,buq,qns-item-noham,42,468646,0.0-1.0-0.41,65ce174cbf66fbd4ab0f1c16,AWAITING REVIEW,2024-02-15T13:53:21.861000Z,2024-02-15T14:09:13.111000Z,,2024-02-15T14:09:14.045624Z,952.0,CVPIIDEI,69,23,Female,Other,United States,United States,United States,English,No,DATA_EXPIRED,Not Applicable
656d3a23361febf855fab944,"<b>Sometimes, you just have to ignore evidence that you know is wrong.",Highly disagree,43/94,Somewhat agree,3,1708005698923,1708005707748,\Somewhat agree\,\Somewhat agree\,\3\,1708005704929,1708005704929,6006,6006,8825,buq,qns-item-noham,43,477472,0.0-1.0-0.42,65ce174cbf66fbd4ab0f1c16,AWAITING REVIEW,2024-02-15T13:53:21.861000Z,2024-02-15T14:09:13.111000Z,,2024-02-15T14:09:14.045624Z,952.0,CVPIIDEI,69,23,Female,Other,United States,United States,United States,English,No,DATA_EXPIRED,Not Applicable
656d3a23361febf855fab944,<b>I have had some false beliefs.,Highly disagree,44/94,Somewhat agree,3,1708005707750,1708005713939,\Somewhat agree\,\Somewhat agree\,\3\,1708005713287,1708005713287,5537,5537,6189,buq,qns-item-noham,44,483663,0.0-1.0-0.43,65ce174cbf66fbd4ab0f1c16,AWAITING REVIEW,2024-02-15T13:53:21.861000Z,2024-02-15T14:09:13.111000Z,,2024-02-15T14:09:14.045624Z,952.0,CVPIIDEI,69,23,Female,Other,United States,United States,United States,English,No,DATA_EXPIRED,Not Applicable
656d3a23361febf855fab944,"<b>If one friend does something that upsets me, I sometimes start to distrust people in general.",Highly disagree,45/94,Somewhat agree,3,1708005713940,1708005719662,\Somewhat agree\,\Somewhat agree\,\3\,1708005719128,1708005719128,5188,5188,5722,buq,qns-item-noham,45,489386,0.0-1.0-0.44,65ce174cbf66fbd4ab0f1c16,AWAITING REVIEW,2024-02-15T13:53:21.861000Z,2024-02-15T14:09:13.111000Z,,2024-02-15T14:09:14.045624Z,952.0,CVPIIDEI,69,23,Female,Other,United States,United States,United States,English,No,DATA_EXPIRED,Not Applicable
656d3a23361febf855fab944,<b>The facts about most important matters are easy to find.,Highly disagree,46/94,Somewhat disagree,2,1708005719663,1708005723966,\Somewhat disagree\,\Somewhat disagree\,\2\,1708005723365,1708005723365,3702,3702,4303,buq,qns-item-noham,46,493690,0.0-1.0-0.45,65ce174cbf66fbd4ab0f1c16,AWAITING REVIEW,2024-02-15T13:53:21.861000Z,2024-02-15T14:09:13.111000Z,,2024-02-15T14:09:14.045624Z,952.0,CVPIIDEI,69,23,Female,Other,United States,United States,United States,English,No,DATA_EXPIRED,Not Applicable
656d3a23361febf855fab944,<b>It?s better to know what?s true than to know what?s moral.,Highly disagree,47/94,Somewhat disagree,2,1708005723968,1708005736596,\Somewhat disagree\,\Somewhat disagree\,\2\,1708005735995,1708005735995,12027,12027,12628,buq,qns-item-noham,47,506320,0.0-1.0-0.46,65ce174cbf66fbd4ab0f1c16,AWAITING REVIEW,2024-02-15T13:53:21.861000Z,2024-02-15T14:09:13.111000Z,,2024-02-15T14:09:14.045624Z,952.0,CVPIIDEI,69,23,Female,Other,United States,United States,United States,English,No,DATA_EXPIRED,Not Applicable
656d3a23361febf855fab944,<b>I used to think the world was less complicated than I do now.,Highly disagree,48/94,Highly agree,4,1708005736598,1708005857162,\Highly agree\,\Highly agree\,\4\,1708005856395,1708005856395,119797,119797,120564,buq,qns-item-noham,48,626886,0.0-1.0-0.47,65ce174cbf66fbd4ab0f1c16,AWAITING REVIEW,2024-02-15T13:53:21.861000Z,2024-02-15T14:09:13.111000Z,,2024-02-15T14:09:14.045624Z,952.0,CVPIIDEI,69,23,Female,Other,United States,United States,United States,English,No,DATA_EXPIRED,Not Applicable
656d3a23361febf855fab944,<b>People are usually completely right or completely wrong.,Highly disagree,49/94,Somewhat disagree,2,1708005857164,1708005860443,\Somewhat disagree\,\Somewhat disagree\,\2\,1708005859926,1708005859926,2762,2762,3279,buq,qns-item-noham,49,630167,0.0-1.0-0.48,65ce174cbf66fbd4ab0f1c16,AWAITING REVIEW,2024-02-15T13:53:21.861000Z,2024-02-15T14:09:13.111000Z,,2024-02-15T14:09:14.045624Z,952.0,CVPIIDEI,69,23,Female,Other,United States,United States,United States,English,No,DATA_EXPIRED,Not Applicable
656d3a23361febf855fab944,<b>I spend a lot of time considering alternatives to my beliefs.,Highly disagree,50/94,Somewhat disagree,2,1708005860444,1708005863491,\Somewhat disagree\,\Somewhat disagree\,\2\,1708005862859,1708005862859,2415,2415,3047,buq,qns-item-noham,50,633215,0.0-1.0-0.49,65ce174cbf66fbd4ab0f1c16,AWAITING REVIEW,2024-02-15T13:53:21.861000Z,2024-02-15T14:09:13.111000Z,,2024-02-15T14:09:14.045624Z,952.0,CVPIIDEI,69,23,Female,Other,United States,United States,United States,English,No,DATA_EXPIRED,Not Applicable
656d3a23361febf855fab944,"<b>Political enemies need to be defeated, not convinced.",Highly disagree,51/94,Highly disagree,1,1708005863493,1708005868525,\Highly disagree\,\Highly disagree\,\1\,1708005867274,1708005867274,3781,3781,5032,buq,qns-item-noham,51,638249,0.0-1.0-0.50,65ce174cbf66fbd4ab0f1c16,AWAITING REVIEW,2024-02-15T13:53:21.861000Z,2024-02-15T14:09:13.111000Z,,2024-02-15T14:09:14.045624Z,952.0,CVPIIDEI,69,23,Female,Other,United States,United States,United States,English,No,DATA_EXPIRED,Not Applicable
656d3a23361febf855fab944,<b>I form my political views only after meticulously gathering historical and present information about their policies.,Highly disagree,52/94,Somewhat disagree,2,1708005868526,1708005874810,\Somewhat disagree\,\Somewhat disagree\,\2\,1708005874109,1708005874109,5583,5583,6284,buq,qns-item-noham,52,644534,0.0-1.0-0.51,65ce174cbf66fbd4ab0f1c16,AWAITING REVIEW,2024-02-15T13:53:21.861000Z,2024-02-15T14:09:13.111000Z,,2024-02-15T14:09:14.045624Z,952.0,CVPIIDEI,69,23,Female,Other,United States,United States,United States,English,No,DATA_EXPIRED,Not Applicable
656d3a23361febf855fab944,<b>It is difficult for me to remember the last time I was surprised by politics.,Highly disagree,53/94,Somewhat agree,3,1708005874812,1708005879896,\Somewhat agree\,\Somewhat agree\,\3\,1708005879062,1708005879062,4250,4250,5084,buq,qns-item-noham,53,649620,0.0-1.0-0.52,65ce174cbf66fbd4ab0f1c16,AWAITING REVIEW,2024-02-15T13:53:21.861000Z,2024-02-15T14:09:13.111000Z,,2024-02-15T14:09:14.045624Z,952.0,CVPIIDEI,69,23,Female,Other,United States,United States,United States,English,No,DATA_EXPIRED,Not Applicable
656d3a23361febf855fab944,"<b>When I find out I?m wrong, I think a lot about my related beliefs.",Highly disagree,54/94,Somewhat agree,3,1708005879898,1708005884616,\Somewhat agree\,\Somewhat agree\,\3\,1708005884082,1708005884082,4184,4184,4718,buq,qns-item-noham,54,654340,0.0-1.0-0.53,65ce174cbf66fbd4ab0f1c16,AWAITING REVIEW,2024-02-15T13:53:21.861000Z,2024-02-15T14:09:13.111000Z,,2024-02-15T14:09:14.045624Z,952.0,CVPIIDEI,69,23,Female,Other,United States,United States,United States,English,No,DATA_EXPIRED,Not Applicable
656d3a23361febf855fab944,"<b>If the political party I support messes up, it makes me think you can?t trust anyone these days",Highly disagree,55/94,Somewhat disagree,2,1708005884618,1708005889620,\Somewhat disagree\,\Somewhat disagree\,\2\,1708005888519,1708005888519,3901,3901,5002,buq,qns-item-noham,55,659344,0.0-1.0-0.54,65ce174cbf66fbd4ab0f1c16,AWAITING REVIEW,2024-02-15T13:53:21.861000Z,2024-02-15T14:09:13.111000Z,,2024-02-15T14:09:14.045624Z,952.0,CVPIIDEI,69,23,Female,Other,United States,United States,United States,English,No,DATA_EXPIRED,Not Applicable
656d3a23361febf855fab944,<b>People?s brains turn off when they talk about politics.,Highly disagree,56/94,Somewhat disagree,2,1708005889621,1708005892489,\Somewhat disagree\,\Somewhat disagree\,\2\,1708005892038,1708005892038,2417,2417,2868,buq,qns-item-noham,56,662213,0.0-1.0-0.55,65ce174cbf66fbd4ab0f1c16,AWAITING REVIEW,2024-02-15T13:53:21.861000Z,2024-02-15T14:09:13.111000Z,,2024-02-15T14:09:14.045624Z,952.0,CVPIIDEI,69,23,Female,Other,United States,United States,United States,English,No,DATA_EXPIRED,Not Applicable
656d3a23361febf855fab944,<b>People who are wrong are usually just ignoring the obvious.,Highly disagree,57/94,Somewhat agree,3,1708005892490,1708005898544,\Somewhat agree\,\Somewhat agree\,\3\,1708005897744,1708005897744,5254,5254,6054,buq,qns-item-noham,57,668268,0.0-1.0-0.56,65ce174cbf66fbd4ab0f1c16,AWAITING REVIEW,2024-02-15T13:53:21.861000Z,2024-02-15T14:09:13.111000Z,,2024-02-15T14:09:14.045624Z,952.0,CVPIIDEI,69,23,Female,Other,United States,United States,United States,English,No,DATA_EXPIRED,Not Applicable
656d3a23361febf855fab944,"<b>When forming my views on people, I rely more on what they are like now rather than rely on my past experience with them.",Highly disagree,58/94,Somewhat agree,3,1708005898546,1708005906118,\Somewhat agree\,\Somewhat agree\,\3\,1708005905334,1708005905334,6788,6788,7572,buq,qns-item-noham,58,675842,0.0-1.0-0.57,65ce174cbf66fbd4ab0f1c16,AWAITING REVIEW,2024-02-15T13:53:21.861000Z,2024-02-15T14:09:13.111000Z,,2024-02-15T14:09:14.045624Z,952.0,CVPIIDEI,69,23,Female,Other,United States,United States,United States,English,No,DATA_EXPIRED,Not Applicable
656d3a23361febf855fab944,"<b>When people contradict my beliefs, I usually know about their evidence already.",Highly disagree,59/94,Somewhat disagree,2,1708005906119,1708005911306,\Somewhat disagree\,\Somewhat disagree\,\2\,1708005910723,1708005910723,4604,4604,5187,buq,qns-item-noham,59,681030,0.0-1.0-0.58,65ce174cbf66fbd4ab0f1c16,AWAITING REVIEW,2024-02-15T13:53:21.861000Z,2024-02-15T14:09:13.111000Z,,2024-02-15T14:09:14.045624Z,952.0,CVPIIDEI,69,23,Female,Other,United States,United States,United States,English,No,DATA_EXPIRED,Not Applicable
656d3a23361febf855fab944,<b>Figuring out what?s true and what?s false mainly requires a strong moral compass.,Highly disagree,60/94,Somewhat disagree,2,1708005911308,1708005929242,\Somewhat agree\,\Somewhat disagree\,\3\,1708005917146,1708005924236,5838,12928,17934,buq,qns-item-noham,60,698966,0.0-1.0-0.59,65ce174cbf66fbd4ab0f1c16,AWAITING REVIEW,2024-02-15T13:53:21.861000Z,2024-02-15T14:09:13.111000Z,,2024-02-15T14:09:14.045624Z,952.0,CVPIIDEI,69,23,Female,Other,United States,United States,United States,English,No,DATA_EXPIRED,Not Applicable
656d3a23361febf855fab944,"<b>Usually I?m wrong about simple things, not complicated ones.",Highly disagree,61/94,Somewhat disagree,2,1708005929243,1708005933095,\Somewhat disagree\,\Somewhat disagree\,\2\,1708005932311,1708005932311,3068,3068,3852,buq,qns-item-noham,61,702820,0.0-1.0-0.60,65ce174cbf66fbd4ab0f1c16,AWAITING REVIEW,2024-02-15T13:53:21.861000Z,2024-02-15T14:09:13.111000Z,,2024-02-15T14:09:14.045624Z,952.0,CVPIIDEI,69,23,Female,Other,United States,United States,United States,English,No,DATA_EXPIRED,Not Applicable
656d3a23361febf855fab944,<b>Getting all the information I want about important things is hard.,Highly disagree,62/94,Somewhat agree,3,1708005933097,1708005943357,\Somewhat agree\,\Somewhat agree\,\3\,1708005942639,1708005942639,9542,9542,10260,buq,qns-item-noham,62,713081,0.0-1.0-0.61,65ce174cbf66fbd4ab0f1c16,AWAITING REVIEW,2024-02-15T13:53:21.861000Z,2024-02-15T14:09:13.111000Z,,2024-02-15T14:09:14.045624Z,952.0,CVPIIDEI,69,23,Female,Other,United States,United States,United States,English,No,DATA_EXPIRED,Not Applicable
656d3a23361febf855fab944,<b>Most false beliefs spread because people try to deceive one another.,Highly disagree,63/94,Somewhat agree,3,1708005943359,1708005948579,\Somewhat agree\,\Somewhat agree\,\3\,1708005947677,1708005947677,4318,4318,5220,buq,qns-item-noham,63,718303,0.0-1.0-0.62,65ce174cbf66fbd4ab0f1c16,AWAITING REVIEW,2024-02-15T13:53:21.861000Z,2024-02-15T14:09:13.111000Z,,2024-02-15T14:09:14.045624Z,952.0,CVPIIDEI,69,23,Female,Other,United States,United States,United States,English,No,DATA_EXPIRED,Not Applicable
656d3a23361febf855fab944,<b>I can usually find something to agree with in most people?s beliefs.,Highly disagree,64/94,Somewhat agree,3,1708005948580,1708005956387,\Somewhat agree\,\Somewhat agree\,\3\,1708005955719,1708005955719,7139,7139,7807,buq,qns-item-noham,64,726111,0.0-1.0-0.63,65ce174cbf66fbd4ab0f1c16,AWAITING REVIEW,2024-02-15T13:53:21.861000Z,2024-02-15T14:09:13.111000Z,,2024-02-15T14:09:14.045624Z,952.0,CVPIIDEI,69,23,Female,Other,United States,United States,United States,English,No,DATA_EXPIRED,Not Applicable
656d3a23361febf855fab944,<b>I only form my views of people once I get to know them very well.,Highly disagree,65/94,Somewhat disagree,2,1708005956388,1708005961359,\Somewhat disagree\,\Somewhat disagree\,\2\,1708005960709,1708005960709,4321,4321,4971,buq,qns-item-noham,65,731083,0.0-1.0-0.64,65ce174cbf66fbd4ab0f1c16,AWAITING REVIEW,2024-02-15T13:53:21.861000Z,2024-02-15T14:09:13.111000Z,,2024-02-15T14:09:14.045624Z,952.0,CVPIIDEI,69,23,Female,Other,United States,United States,United States,English,No,DATA_EXPIRED,Not Applicable
656d3a23361febf855fab944,"<b>When people tell me important things about the world, I usually believe them.",Highly disagree,66/94,Somewhat agree,3,1708005961361,1708005965965,\Somewhat agree\,\Somewhat agree\,\3\,1708005965413,1708005965413,4052,4052,4604,buq,qns-item-noham,66,735689,0.0-1.0-0.65,65ce174cbf66fbd4ab0f1c16,AWAITING REVIEW,2024-02-15T13:53:21.861000Z,2024-02-15T14:09:13.111000Z,,2024-02-15T14:09:14.045624Z,952.0,CVPIIDEI,69,23,Female,Other,United States,United States,United States,English,No,DATA_EXPIRED,Not Applicable
656d3a23361febf855fab944,"<b>If a friend does something that upsets me, it reminds me what an unpredictable place the world is.",Highly disagree,67/94,Somewhat agree,3,1708005965967,1708005994427,\Somewhat agree\,\Somewhat agree\,\3\,1708005971953,1708005971953,5986,5986,28460,buq,qns-item-noham,67,764151,0.0-1.0-0.66,65ce174cbf66fbd4ab0f1c16,AWAITING REVIEW,2024-02-15T13:53:21.861000Z,2024-02-15T14:09:13.111000Z,,2024-02-15T14:09:14.045624Z,952.0,CVPIIDEI,69,23,Female,Other,United States,United States,United States,English,No,DATA_EXPIRED,Not Applicable
656d3a23361febf855fab944,<b>People tend to believe whatever is good for their friends.,Highly disagree,68/94,Somewhat disagree,2,1708005994429,1708006007441,\Somewhat disagree\,\Somewhat disagree\,\2\,1708006006890,1708006006890,12461,12461,13012,buq,qns-item-noham,68,777165,0.0-1.0-0.67,65ce174cbf66fbd4ab0f1c16,AWAITING REVIEW,2024-02-15T13:53:21.861000Z,2024-02-15T14:09:13.111000Z,,2024-02-15T14:09:14.045624Z,952.0,CVPIIDEI,69,23,Female,Other,United States,United States,United States,English,No,DATA_EXPIRED,Not Applicable
656d3a23361febf855fab944,<b>I used to be more certain my beliefs were true.,Highly disagree,69/94,Somewhat agree,3,1708006007443,1708006011679,\Somewhat agree\,\Somewhat agree\,\3\,1708006011078,1708006011078,3635,3635,4236,buq,qns-item-noham,69,781403,0.0-1.0-0.68,65ce174cbf66fbd4ab0f1c16,AWAITING REVIEW,2024-02-15T13:53:21.861000Z,2024-02-15T14:09:13.111000Z,,2024-02-15T14:09:14.045624Z,952.0,CVPIIDEI,69,23,Female,Other,United States,United States,United States,English,No,DATA_EXPIRED,Not Applicable
656d3a23361febf855fab944,<b>It?s often pretty easy to figure out whether something is true based on who said it.,Highly disagree,70/94,Somewhat disagree,2,1708006011680,1708006016518,\Somewhat disagree\,\Somewhat disagree\,\2\,1708006015850,1708006015850,4170,4170,4838,buq,qns-item-noham,70,786242,0.0-1.0-0.69,65ce174cbf66fbd4ab0f1c16,AWAITING REVIEW,2024-02-15T13:53:21.861000Z,2024-02-15T14:09:13.111000Z,,2024-02-15T14:09:14.045624Z,952.0,CVPIIDEI,69,23,Female,Other,United States,United States,United States,English,No,DATA_EXPIRED,Not Applicable
656d3a23361febf855fab944,<b>I transform into a hummingbird every day.,Highly disagree,71/94,Highly disagree,1,1708006016520,1708006020605,\Highly disagree\,\Highly disagree\,\1\,1708006019587,1708006019587,3067,3067,4085,buq,qns-item-noham,71,790329,0.0-1.0-0.70,65ce174cbf66fbd4ab0f1c16,AWAITING REVIEW,2024-02-15T13:53:21.861000Z,2024-02-15T14:09:13.111000Z,,2024-02-15T14:09:14.045624Z,952.0,CVPIIDEI,69,23,Female,Other,United States,United States,United States,English,No,DATA_EXPIRED,Not Applicable
656d3a23361febf855fab944,<b>I think a lot about arguments against my views.,Highly disagree,72/94,Somewhat disagree,2,1708006020606,1708006025093,\Somewhat disagree\,\Somewhat disagree\,\2\,1708006024443,1708006024443,3837,3837,4487,buq,qns-item-noham,72,794817,0.0-1.0-0.71,65ce174cbf66fbd4ab0f1c16,AWAITING REVIEW,2024-02-15T13:53:21.861000Z,2024-02-15T14:09:13.111000Z,,2024-02-15T14:09:14.045624Z,952.0,CVPIIDEI,69,23,Female,Other,United States,United States,United States,English,No,DATA_EXPIRED,Not Applicable
656d3a23361febf855fab944,<b>Personal experience is usually more important than facts and figures.,Highly disagree,73/94,Somewhat agree,3,1708006025094,1708006029664,\Somewhat agree\,\Somewhat agree\,\3\,1708006028830,1708006028830,3736,3736,4570,buq,qns-item-noham,73,799388,0.0-1.0-0.72,65ce174cbf66fbd4ab0f1c16,AWAITING REVIEW,2024-02-15T13:53:21.861000Z,2024-02-15T14:09:13.111000Z,,2024-02-15T14:09:14.045624Z,952.0,CVPIIDEI,69,23,Female,Other,United States,United States,United States,English,No,DATA_EXPIRED,Not Applicable
656d3a23361febf855fab944,<b>I?ve been tricked before about important matters.,Highly disagree,74/94,Somewhat agree,3,1708006029666,1708006033452,\Somewhat agree\,\Somewhat agree\,\3\,1708006031633,1708006032951,1967,3285,3786,buq,qns-item-noham,74,803176,0.0-1.0-0.73,65ce174cbf66fbd4ab0f1c16,AWAITING REVIEW,2024-02-15T13:53:21.861000Z,2024-02-15T14:09:13.111000Z,,2024-02-15T14:09:14.045624Z,952.0,CVPIIDEI,69,23,Female,Other,United States,United States,United States,English,No,DATA_EXPIRED,Not Applicable
656d3a23361febf855fab944,<b>I would need to be totally wowed if I were to change my opinion of a restaurant I don?t like.,Highly disagree,75/94,Somewhat agree,3,1708006033454,1708006039675,\Somewhat agree\,\Somewhat agree\,\3\,1708006039124,1708006039124,5670,5670,6221,buq,qns-item-noham,75,809399,0.0-1.0-0.74,65ce174cbf66fbd4ab0f1c16,AWAITING REVIEW,2024-02-15T13:53:21.861000Z,2024-02-15T14:09:13.111000Z,,2024-02-15T14:09:14.045624Z,952.0,CVPIIDEI,69,23,Female,Other,United States,United States,United States,English,No,DATA_EXPIRED,Not Applicable
656d3a23361febf855fab944,<b>I care a lot about politics.,Highly disagree,76/94,Somewhat disagree,2,1708006039677,1708006041811,\Somewhat disagree\,\Somewhat disagree\,\2\,1708006041327,1708006041327,1650,1650,2134,buq,qns-item-noham,76,811535,0.0-1.0-0.75,65ce174cbf66fbd4ab0f1c16,AWAITING REVIEW,2024-02-15T13:53:21.861000Z,2024-02-15T14:09:13.111000Z,,2024-02-15T14:09:14.045624Z,952.0,CVPIIDEI,69,23,Female,Other,United States,United States,United States,English,No,DATA_EXPIRED,Not Applicable
656d3a23361febf855fab944,<b>There are some topics I?ve been really wrong about.,Highly disagree,77/94,Highly agree,4,1708006041813,1708006046182,\Highly agree\,\Highly agree\,\4\,1708006045431,1708006045431,3618,3618,4369,buq,qns-item-noham,77,815906,0.0-1.0-0.76,65ce174cbf66fbd4ab0f1c16,AWAITING REVIEW,2024-02-15T13:53:21.861000Z,2024-02-15T14:09:13.111000Z,,2024-02-15T14:09:14.045624Z,952.0,CVPIIDEI,69,23,Female,Other,United States,United States,United States,English,No,DATA_EXPIRED,Not Applicable
656d3a23361febf855fab944,<b>Most beliefs can be supported with at least some evidence.,Highly disagree,78/94,Somewhat agree,3,1708006046184,1708006050720,\Somewhat agree\,\Somewhat agree\,\3\,1708006049803,1708006049803,3619,3619,4536,buq,qns-item-noham,78,820444,0.0-1.0-0.77,65ce174cbf66fbd4ab0f1c16,AWAITING REVIEW,2024-02-15T13:53:21.861000Z,2024-02-15T14:09:13.111000Z,,2024-02-15T14:09:14.045624Z,952.0,CVPIIDEI,69,23,Female,Other,United States,United States,United States,English,No,DATA_EXPIRED,Not Applicable
656d3a23361febf855fab944,<b>Other people make life out to be more complicated than it really is.,Highly disagree,79/94,Somewhat disagree,2,1708006050722,1708006057460,\Somewhat disagree\,\Somewhat disagree\,\2\,1708006054457,1708006054457,3735,3735,6738,buq,qns-item-noham,79,827184,0.0-1.0-0.78,65ce174cbf66fbd4ab0f1c16,AWAITING REVIEW,2024-02-15T13:53:21.861000Z,2024-02-15T14:09:13.111000Z,,2024-02-15T14:09:14.045624Z,952.0,CVPIIDEI,69,23,Female,Other,United States,United States,United States,English,No,DATA_EXPIRED,Not Applicable
656d3a23361febf855fab944,"<b>Policy details don?t matter much, just the big picture.",Highly disagree,80/94,Somewhat disagree,2,1708006057462,1708006063367,\Somewhat disagree\,\Somewhat disagree\,\2\,1708006062649,1708006062649,5187,5187,5905,buq,qns-item-noham,80,833091,0.0-1.0-0.79,65ce174cbf66fbd4ab0f1c16,AWAITING REVIEW,2024-02-15T13:53:21.861000Z,2024-02-15T14:09:13.111000Z,,2024-02-15T14:09:14.045624Z,952.0,CVPIIDEI,69,23,Female,Other,United States,United States,United States,English,No,DATA_EXPIRED,Not Applicable
656d3a23361febf855fab944,<b>I know my friends so well they can hardly ever surprise me.,Highly disagree,81/94,Somewhat disagree,2,1708006063369,1708006066954,\Somewhat disagree\,\Somewhat disagree\,\2\,1708006066303,1708006066303,2934,2934,3585,buq,qns-item-noham,81,836678,0.0-1.0-0.80,65ce174cbf66fbd4ab0f1c16,AWAITING REVIEW,2024-02-15T13:53:21.861000Z,2024-02-15T14:09:13.111000Z,,2024-02-15T14:09:14.045624Z,952.0,CVPIIDEI,69,23,Female,Other,United States,United States,United States,English,No,DATA_EXPIRED,Not Applicable
656d3a23361febf855fab944,<b>I do not often change my views on people.,Highly disagree,82/94,Highly disagree,1,1708006066956,1708006071475,\Highly disagree\,\Highly disagree\,\1\,1708006070625,1708006070625,3669,3669,4519,buq,qns-item-noham,82,841199,0.0-1.0-0.81,65ce174cbf66fbd4ab0f1c16,AWAITING REVIEW,2024-02-15T13:53:21.861000Z,2024-02-15T14:09:13.111000Z,,2024-02-15T14:09:14.045624Z,952.0,CVPIIDEI,69,23,Female,Other,United States,United States,United States,English,No,DATA_EXPIRED,Not Applicable
656d3a23361febf855fab944,<b>I?m more certain about my beliefs than I used to be.,Highly disagree,83/94,Somewhat agree,3,1708006071477,1708006075730,\Somewhat agree\,\Somewhat agree\,\3\,1708006075013,1708006075013,3536,3536,4253,buq,qns-item-noham,83,845454,0.0-1.0-0.82,65ce174cbf66fbd4ab0f1c16,AWAITING REVIEW,2024-02-15T13:53:21.861000Z,2024-02-15T14:09:13.111000Z,,2024-02-15T14:09:14.045624Z,952.0,CVPIIDEI,69,23,Female,Other,United States,United States,United States,English,No,DATA_EXPIRED,Not Applicable
656d3a23361febf855fab944,<b>People often tell falsehoods unintentionally.,Highly disagree,84/94,Somewhat agree,3,1708006075731,1708006079634,\Somewhat agree\,\Somewhat agree\,\3\,1708006079050,1708006079050,3319,3319,3903,buq,qns-item-noham,84,849358,0.0-1.0-0.83,65ce174cbf66fbd4ab0f1c16,AWAITING REVIEW,2024-02-15T13:53:21.861000Z,2024-02-15T14:09:13.111000Z,,2024-02-15T14:09:14.045624Z,952.0,CVPIIDEI,69,23,Female,Other,United States,United States,United States,English,No,DATA_EXPIRED,Not Applicable
656d3a23361febf855fab944,<b>Most people don?t know much about most things.,Highly disagree,85/94,Somewhat disagree,2,1708006079635,1708006083788,\Somewhat disagree\,\Somewhat disagree\,\2\,1708006083288,1708006083288,3653,3653,4153,buq,qns-item-noham,85,853512,0.0-1.0-0.84,65ce174cbf66fbd4ab0f1c16,AWAITING REVIEW,2024-02-15T13:53:21.861000Z,2024-02-15T14:09:13.111000Z,,2024-02-15T14:09:14.045624Z,952.0,CVPIIDEI,69,23,Female,Other,United States,United States,United States,English,No,DATA_EXPIRED,Not Applicable
656d3a23361febf855fab944,"<b>If I find out something new about someone, I easily change my views about them.",Highly disagree,86/94,Somewhat agree,3,1708006083790,1708006087576,\Somewhat agree\,\Somewhat agree\,\3\,1708006087042,1708006087042,3252,3252,3786,buq,qns-item-noham,86,857300,0.0-1.0-0.85,65ce174cbf66fbd4ab0f1c16,AWAITING REVIEW,2024-02-15T13:53:21.861000Z,2024-02-15T14:09:13.111000Z,,2024-02-15T14:09:14.045624Z,952.0,CVPIIDEI,69,23,Female,Other,United States,United States,United States,English,No,DATA_EXPIRED,Not Applicable
656d3a23361febf855fab944,<b>Having true beliefs is difficult.,Highly disagree,87/94,Somewhat disagree,2,1708006087577,1708006091763,\Somewhat disagree\,\Somewhat disagree\,\2\,1708006090546,1708006090546,2969,2969,4186,buq,qns-item-noham,87,861487,0.0-1.0-0.86,65ce174cbf66fbd4ab0f1c16,AWAITING REVIEW,2024-02-15T13:53:21.861000Z,2024-02-15T14:09:13.111000Z,,2024-02-15T14:09:14.045624Z,952.0,CVPIIDEI,69,23,Female,Other,United States,United States,United States,English,No,DATA_EXPIRED,Not Applicable
656d3a23361febf855fab944,<b>I don?t try new foods since I know I won?t like them.,Highly disagree,88/94,Highly disagree,1,1708006091765,1708006095668,\Highly disagree\,\Highly disagree\,\1\,1708006095067,1708006095067,3302,3302,3903,buq,qns-item-noham,88,865392,0.0-1.0-0.87,65ce174cbf66fbd4ab0f1c16,AWAITING REVIEW,2024-02-15T13:53:21.861000Z,2024-02-15T14:09:13.111000Z,,2024-02-15T14:09:14.045624Z,952.0,CVPIIDEI,69,23,Female,Other,United States,United States,United States,English,No,DATA_EXPIRED,Not Applicable
656d3a23361febf855fab944,<b>Other people trick each other a lot.,Highly disagree,89/94,Somewhat agree,3,1708006095669,1708006098404,\Somewhat agree\,\Somewhat agree\,\3\,1708006097736,1708006097736,2067,2067,2735,buq,qns-item-noham,89,868128,0.0-1.0-0.88,65ce174cbf66fbd4ab0f1c16,AWAITING REVIEW,2024-02-15T13:53:21.861000Z,2024-02-15T14:09:13.111000Z,,2024-02-15T14:09:14.045624Z,952.0,CVPIIDEI,69,23,Female,Other,United States,United States,United States,English,No,DATA_EXPIRED,Not Applicable
656d3a23361febf855fab944,<b>I would need to learn a lot about a person for my opinion of them to be swayed.,Highly disagree,90/94,Somewhat disagree,2,1708006098406,1708006106813,\Somewhat agree\,\Somewhat disagree\,\3\,1708006105446,1708006106212,7040,7806,8407,buq,qns-item-noham,90,876537,0.0-1.0-0.89,65ce174cbf66fbd4ab0f1c16,AWAITING REVIEW,2024-02-15T13:53:21.861000Z,2024-02-15T14:09:13.111000Z,,2024-02-15T14:09:14.045624Z,952.0,CVPIIDEI,69,23,Female,Other,United States,United States,United States,English,No,DATA_EXPIRED,Not Applicable
656d3a23361febf855fab944,<b>People can?t usually trick me when it comes to topics I care about.,Highly disagree,91/94,Somewhat agree,3,1708006106814,1708006111101,\Somewhat agree\,\Somewhat agree\,\3\,1708006110317,1708006110317,3503,3503,4287,buq,qns-item-noham,91,880825,0.0-1.0-0.90,65ce174cbf66fbd4ab0f1c16,AWAITING REVIEW,2024-02-15T13:53:21.861000Z,2024-02-15T14:09:13.111000Z,,2024-02-15T14:09:14.045624Z,952.0,CVPIIDEI,69,23,Female,Other,United States,United States,United States,English,No,DATA_EXPIRED,Not Applicable
656d3a23361febf855fab944,<b>I do not often change my views on food.,Highly disagree,92/94,Somewhat disagree,2,1708006111104,1708006115255,\Somewhat disagree\,\Somewhat disagree\,\2\,1708006114705,1708006114705,3601,3601,4151,buq,qns-item-noham,92,884979,0.0-1.0-0.91,65ce174cbf66fbd4ab0f1c16,AWAITING REVIEW,2024-02-15T13:53:21.861000Z,2024-02-15T14:09:13.111000Z,,2024-02-15T14:09:14.045624Z,952.0,CVPIIDEI,69,23,Female,Other,United States,United States,United States,English,No,DATA_EXPIRED,Not Applicable
656d3a23361febf855fab944,<b>Specific policies are often very important to me.,Highly disagree,93/94,Somewhat disagree,2,1708006115257,1708006122713,\Somewhat disagree\,\Somewhat disagree\,\2\,1708006122162,1708006122162,6905,6905,7456,buq,qns-item-noham,93,892437,0.0-1.0-0.92,65ce174cbf66fbd4ab0f1c16,AWAITING REVIEW,2024-02-15T13:53:21.861000Z,2024-02-15T14:09:13.111000Z,,2024-02-15T14:09:14.045624Z,952.0,CVPIIDEI,69,23,Female,Other,United States,United States,United States,English,No,DATA_EXPIRED,Not Applicable
656d3a23361febf855fab944,<b>Most people are woefully under-informed.,Highly disagree,94/94,Somewhat agree,3,1708006122715,1708006126867,\Somewhat agree\,\Somewhat agree\,\3\,1708006126367,1708006126367,3652,3652,4152,buq,qns-item-noham,94,896592,0.0-1.0-0.93,65ce174cbf66fbd4ab0f1c16,AWAITING REVIEW,2024-02-15T13:53:21.861000Z,2024-02-15T14:09:13.111000Z,,2024-02-15T14:09:14.045624Z,952.0,CVPIIDEI,69,23,Female,Other,United States,United States,United States,English,No,DATA_EXPIRED,Not Applicable
656d3a23361febf855fab944,,,,,,,,,,,,,,,,,,,,,65ce174cbf66fbd4ab0f1c16,AWAITING REVIEW,2024-02-15T13:53:21.861000Z,2024-02-15T14:09:13.111000Z,,2024-02-15T14:09:14.045624Z,952.0,CVPIIDEI,69,23,Female,Other,United States,United States,United States,English,No,DATA_EXPIRED,Not Applicable
