PROLIFIC_PID,Question,qns_options,quest_num,answer,answer_num,question_load_timestamp,next_btn_timestamp,text_selected,final_text_selected,option_num_selected,preview_timestamps,final_text_selected_time_stamp,rt_first_option_click,rt_final_option_click,rt_submit_click,questionnaire,trial_type,trial_index,time_elapsed,internal_node_id,Demographic_Submission id,Demographic_Status,Demographic_Started at,Demographic_Completed at,Demographic_Reviewed at,Demographic_Archived at,Demographic_Time taken,Demographic_Completion code,Demographic_Total approvals,Demographic_Age,Demographic_Sex,Demographic_Ethnicity simplified,Demographic_Country of birth,Demographic_Country of residence,Demographic_Nationality,Demographic_Language,Demographic_Student status,Demographic_Employment status,Demographic_Custom study tncs accepted at
610971ac8159690397a047c5,<b>Knowing what?s true and knowing what to do about it are usually basically the same.,Highly disagree,1/94,Highly disagree,1,1708004526881,1708004537240,\Highly disagree\,\Highly disagree\,\1\,1708004536106,1708004536106,9225,9225,10359,buq,qns-item-noham,1,14581,0.0-1.0-0.0,65ce1492e8be14e55bc04ebd,AWAITING REVIEW,2024-02-15T13:41:44.249000Z,2024-02-15T13:50:26.184000Z,,2024-02-15T13:50:27.086099Z,522.0,CVPIIDEI,2499,32,Female,White,United States,United States,United States,English,Yes,Part-Time,Not Applicable
610971ac8159690397a047c5,<b>Most people just believe whatever is convenient for them.,Highly disagree,2/94,Somewhat agree,3,1708004537273,1708004542596,\Somewhat agree\,\Somewhat agree\,\3\,1708004540423,1708004540423,3150,3150,5323,buq,qns-item-noham,2,19937,0.0-1.0-0.1,65ce1492e8be14e55bc04ebd,AWAITING REVIEW,2024-02-15T13:41:44.249000Z,2024-02-15T13:50:26.184000Z,,2024-02-15T13:50:27.086099Z,522.0,CVPIIDEI,2499,32,Female,White,United States,United States,United States,English,Yes,Part-Time,Not Applicable
610971ac8159690397a047c5,<b>Having some big beliefs helps me sort out minor ones.,Highly disagree,3/94,Highly agree,4,1708004542604,1708004546908,\Highly agree\,\Highly agree\,\4\,1708004545787,1708004545787,3183,3183,4304,buq,qns-item-noham,3,24249,0.0-1.0-0.2,65ce1492e8be14e55bc04ebd,AWAITING REVIEW,2024-02-15T13:41:44.249000Z,2024-02-15T13:50:26.184000Z,,2024-02-15T13:50:27.086099Z,522.0,CVPIIDEI,2499,32,Female,White,United States,United States,United States,English,Yes,Part-Time,Not Applicable
610971ac8159690397a047c5,<b>Political questions are usually pretty complicated.,Highly disagree,4/94,Highly agree,4,1708004546915,1708004549839,\Highly agree\,\Highly agree\,\4\,1708004549144,1708004549144,2229,2229,2924,buq,qns-item-noham,4,27180,0.0-1.0-0.3,65ce1492e8be14e55bc04ebd,AWAITING REVIEW,2024-02-15T13:41:44.249000Z,2024-02-15T13:50:26.184000Z,,2024-02-15T13:50:27.086099Z,522.0,CVPIIDEI,2499,32,Female,White,United States,United States,United States,English,Yes,Part-Time,Not Applicable
610971ac8159690397a047c5,<b>Figuring out what?s important in life requires learning a lot of facts.,Highly disagree,5/94,Somewhat disagree,2,1708004549844,1708004554969,\Highly agree\,\Somewhat disagree\,\4\,1708004551793,1708004553958,1949,4114,5125,buq,qns-item-noham,5,32310,0.0-1.0-0.4,65ce1492e8be14e55bc04ebd,AWAITING REVIEW,2024-02-15T13:41:44.249000Z,2024-02-15T13:50:26.184000Z,,2024-02-15T13:50:27.086099Z,522.0,CVPIIDEI,2499,32,Female,White,United States,United States,United States,English,Yes,Part-Time,Not Applicable
610971ac8159690397a047c5,<b>It is difficult for me to remember the last time I was surprised by politics.,Highly disagree,6/94,Somewhat disagree,2,1708004554979,1708004560856,\Somewhat disagree\,\Somewhat disagree\,\2\,1708004559987,1708004559987,5008,5008,5877,buq,qns-item-noham,6,38197,0.0-1.0-0.5,65ce1492e8be14e55bc04ebd,AWAITING REVIEW,2024-02-15T13:41:44.249000Z,2024-02-15T13:50:26.184000Z,,2024-02-15T13:50:27.086099Z,522.0,CVPIIDEI,2499,32,Female,White,United States,United States,United States,English,Yes,Part-Time,Not Applicable
610971ac8159690397a047c5,<b>People?s false beliefs are understandable.,Highly disagree,7/94,Somewhat agree,3,1708004560865,1708004563856,\Somewhat agree\,\Somewhat agree\,\3\,1708004563074,1708004563074,2209,2209,2991,buq,qns-item-noham,7,41198,0.0-1.0-0.6,65ce1492e8be14e55bc04ebd,AWAITING REVIEW,2024-02-15T13:41:44.249000Z,2024-02-15T13:50:26.184000Z,,2024-02-15T13:50:27.086099Z,522.0,CVPIIDEI,2499,32,Female,White,United States,United States,United States,English,Yes,Part-Time,Not Applicable
610971ac8159690397a047c5,<b>I spend a lot of time trying to be informed about politics.,Highly disagree,8/94,Somewhat agree,3,1708004563870,1708004566649,\Somewhat agree\,\Somewhat agree\,\3\,1708004565942,1708004565942,2072,2072,2779,buq,qns-item-noham,8,43990,0.0-1.0-0.7,65ce1492e8be14e55bc04ebd,AWAITING REVIEW,2024-02-15T13:41:44.249000Z,2024-02-15T13:50:26.184000Z,,2024-02-15T13:50:27.086099Z,522.0,CVPIIDEI,2499,32,Female,White,United States,United States,United States,English,Yes,Part-Time,Not Applicable
610971ac8159690397a047c5,<b>I think a lot about whether my beliefs are right.,Highly disagree,9/94,Somewhat agree,3,1708004566662,1708004570069,\Highly agree\,\Somewhat agree\,\4\,1708004568786,1708004569432,2124,2770,3407,buq,qns-item-noham,9,47410,0.0-1.0-0.8,65ce1492e8be14e55bc04ebd,AWAITING REVIEW,2024-02-15T13:41:44.249000Z,2024-02-15T13:50:26.184000Z,,2024-02-15T13:50:27.086099Z,522.0,CVPIIDEI,2499,32,Female,White,United States,United States,United States,English,Yes,Part-Time,Not Applicable
610971ac8159690397a047c5,<b>Statistics can be pretty misleading sometimes.,Highly disagree,10/94,Somewhat agree,3,1708004570080,1708004572737,\Somewhat agree\,\Somewhat agree\,\3\,1708004571990,1708004571990,1910,1910,2657,buq,qns-item-noham,10,50078,0.0-1.0-0.9,65ce1492e8be14e55bc04ebd,AWAITING REVIEW,2024-02-15T13:41:44.249000Z,2024-02-15T13:50:26.184000Z,,2024-02-15T13:50:27.086099Z,522.0,CVPIIDEI,2499,32,Female,White,United States,United States,United States,English,Yes,Part-Time,Not Applicable
610971ac8159690397a047c5,<b>I have lots of beliefs that I?m only sort of sure about.,Highly disagree,11/94,Somewhat disagree,2,1708004572744,1708004577238,\Somewhat disagree\,\Somewhat disagree\,\2\,1708004576023,1708004576023,3279,3279,4494,buq,qns-item-noham,11,54579,0.0-1.0-0.10,65ce1492e8be14e55bc04ebd,AWAITING REVIEW,2024-02-15T13:41:44.249000Z,2024-02-15T13:50:26.184000Z,,2024-02-15T13:50:27.086099Z,522.0,CVPIIDEI,2499,32,Female,White,United States,United States,United States,English,Yes,Part-Time,Not Applicable
610971ac8159690397a047c5,"<b>If I go to my favorite restaurant and the food is surprisingly bad, it reminds me there are many disappointments in life.",Highly disagree,12/94,Highly disagree,1,1708004577244,1708004585463,\Somewhat disagree\,\Highly disagree\,\2\,1708004582450,1708004583997,5206,6753,8219,buq,qns-item-noham,12,62805,0.0-1.0-0.11,65ce1492e8be14e55bc04ebd,AWAITING REVIEW,2024-02-15T13:41:44.249000Z,2024-02-15T13:50:26.184000Z,,2024-02-15T13:50:27.086099Z,522.0,CVPIIDEI,2499,32,Female,White,United States,United States,United States,English,Yes,Part-Time,Not Applicable
610971ac8159690397a047c5,"<b>If you are paying attention, please select ?Somewhat agree?",Highly disagree,13/94,Somewhat agree,3,1708004585473,1708004588053,\Somewhat agree\,\Somewhat agree\,\3\,1708004587246,1708004587246,1773,1773,2580,buq,qns-item-noham,13,65394,0.0-1.0-0.12,65ce1492e8be14e55bc04ebd,AWAITING REVIEW,2024-02-15T13:41:44.249000Z,2024-02-15T13:50:26.184000Z,,2024-02-15T13:50:27.086099Z,522.0,CVPIIDEI,2499,32,Female,White,United States,United States,United States,English,Yes,Part-Time,Not Applicable
610971ac8159690397a047c5,"<b>When I talk to others, I often worry I?ll convince them of something I didn?t mean to.",Highly disagree,14/94,Somewhat agree,3,1708004588064,1708004593634,\Somewhat disagree\,\Somewhat agree\,\2\,1708004592076,1708004593038,4012,4974,5570,buq,qns-item-noham,14,70975,0.0-1.0-0.13,65ce1492e8be14e55bc04ebd,AWAITING REVIEW,2024-02-15T13:41:44.249000Z,2024-02-15T13:50:26.184000Z,,2024-02-15T13:50:27.086099Z,522.0,CVPIIDEI,2499,32,Female,White,United States,United States,United States,English,Yes,Part-Time,Not Applicable
610971ac8159690397a047c5,<b>I would need to learn something utterly shocking about my party in order to change my political views.,Highly disagree,15/94,Somewhat disagree,2,1708004593641,1708004603521,\Somewhat disagree\,\Somewhat disagree\,\2\,1708004598326,1708004602100,4685,8459,9880,buq,qns-item-noham,15,80863,0.0-1.0-0.14,65ce1492e8be14e55bc04ebd,AWAITING REVIEW,2024-02-15T13:41:44.249000Z,2024-02-15T13:50:26.184000Z,,2024-02-15T13:50:27.086099Z,522.0,CVPIIDEI,2499,32,Female,White,United States,United States,United States,English,Yes,Part-Time,Not Applicable
610971ac8159690397a047c5,"<b>When I have new experiences, I tend to think of them as unique.",Highly disagree,16/94,Somewhat agree,3,1708004603531,1708004607886,\Somewhat agree\,\Somewhat agree\,\3\,1708004606607,1708004606607,3076,3076,4355,buq,qns-item-noham,16,85227,0.0-1.0-0.15,65ce1492e8be14e55bc04ebd,AWAITING REVIEW,2024-02-15T13:41:44.249000Z,2024-02-15T13:50:26.184000Z,,2024-02-15T13:50:27.086099Z,522.0,CVPIIDEI,2499,32,Female,White,United States,United States,United States,English,Yes,Part-Time,Not Applicable
610971ac8159690397a047c5,<b>I change my mind about specific policies pretty frequently.,Highly disagree,17/94,Highly disagree,1,1708004607896,1708004611320,\Highly disagree\,\Highly disagree\,\1\,1708004610620,1708004610620,2724,2724,3424,buq,qns-item-noham,17,88661,0.0-1.0-0.16,65ce1492e8be14e55bc04ebd,AWAITING REVIEW,2024-02-15T13:41:44.249000Z,2024-02-15T13:50:26.184000Z,,2024-02-15T13:50:27.086099Z,522.0,CVPIIDEI,2499,32,Female,White,United States,United States,United States,English,Yes,Part-Time,Not Applicable
610971ac8159690397a047c5,"<b>If a politician in my political party supports something I disagree with, I give them the benefit of the doubt, as such issues often involve hidden complexities that aren?t obvious.   ",Highly disagree,18/94,Somewhat agree,3,1708004611325,1708004616971,\Somewhat agree\,\Somewhat agree\,\3\,1708004616003,1708004616003,4678,4678,5646,buq,qns-item-noham,18,94312,0.0-1.0-0.17,65ce1492e8be14e55bc04ebd,AWAITING REVIEW,2024-02-15T13:41:44.249000Z,2024-02-15T13:50:26.184000Z,,2024-02-15T13:50:27.086099Z,522.0,CVPIIDEI,2499,32,Female,White,United States,United States,United States,English,Yes,Part-Time,Not Applicable
610971ac8159690397a047c5,<b>People?s bad politics are usually motivated by hatefulness.,Highly disagree,19/94,Somewhat disagree,2,1708004616979,1708004622472,\Somewhat disagree\,\Somewhat disagree\,\2\,1708004621885,1708004621885,4906,4906,5493,buq,qns-item-noham,19,99813,0.0-1.0-0.18,65ce1492e8be14e55bc04ebd,AWAITING REVIEW,2024-02-15T13:41:44.249000Z,2024-02-15T13:50:26.184000Z,,2024-02-15T13:50:27.086099Z,522.0,CVPIIDEI,2499,32,Female,White,United States,United States,United States,English,Yes,Part-Time,Not Applicable
610971ac8159690397a047c5,<b>I think a lot about how to reconcile my beliefs with one another.,Highly disagree,20/94,Somewhat disagree,2,1708004622484,1708004628347,\Somewhat disagree\,\Somewhat disagree\,\2\,1708004627737,1708004627737,5253,5253,5863,buq,qns-item-noham,20,105688,0.0-1.0-0.19,65ce1492e8be14e55bc04ebd,AWAITING REVIEW,2024-02-15T13:41:44.249000Z,2024-02-15T13:50:26.184000Z,,2024-02-15T13:50:27.086099Z,522.0,CVPIIDEI,2499,32,Female,White,United States,United States,United States,English,Yes,Part-Time,Not Applicable
610971ac8159690397a047c5,<b>I might have false beliefs about important topics.,Highly disagree,21/94,Somewhat agree,3,1708004628355,1708004631502,\Somewhat agree\,\Somewhat agree\,\3\,1708004630882,1708004630882,2527,2527,3147,buq,qns-item-noham,21,108843,0.0-1.0-0.20,65ce1492e8be14e55bc04ebd,AWAITING REVIEW,2024-02-15T13:41:44.249000Z,2024-02-15T13:50:26.184000Z,,2024-02-15T13:50:27.086099Z,522.0,CVPIIDEI,2499,32,Female,White,United States,United States,United States,English,Yes,Part-Time,Not Applicable
610971ac8159690397a047c5,"<b>If a good friend of mine does something unexpected that upsets me, I feel like I don?t know them anymore.",Highly disagree,22/94,Somewhat agree,3,1708004631509,1708004636091,\Somewhat agree\,\Somewhat agree\,\3\,1708004635502,1708004635502,3993,3993,4582,buq,qns-item-noham,22,113432,0.0-1.0-0.21,65ce1492e8be14e55bc04ebd,AWAITING REVIEW,2024-02-15T13:41:44.249000Z,2024-02-15T13:50:26.184000Z,,2024-02-15T13:50:27.086099Z,522.0,CVPIIDEI,2499,32,Female,White,United States,United States,United States,English,Yes,Part-Time,Not Applicable
610971ac8159690397a047c5,<b>Other people?s beliefs are often incoherent.,Highly disagree,23/94,Somewhat disagree,2,1708004636101,1708004639270,\Somewhat disagree\,\Somewhat disagree\,\2\,1708004638104,1708004638104,2003,2003,3169,buq,qns-item-noham,23,116611,0.0-1.0-0.22,65ce1492e8be14e55bc04ebd,AWAITING REVIEW,2024-02-15T13:41:44.249000Z,2024-02-15T13:50:26.184000Z,,2024-02-15T13:50:27.086099Z,522.0,CVPIIDEI,2499,32,Female,White,United States,United States,United States,English,Yes,Part-Time,Not Applicable
610971ac8159690397a047c5,"<b>Every now and then, a new experience will unsettle beliefs I?ve had for a while.",Highly disagree,24/94,Somewhat agree,3,1708004639281,1708004644665,\Somewhat agree\,\Somewhat agree\,\3\,1708004643283,1708004643283,4002,4002,5384,buq,qns-item-noham,24,122006,0.0-1.0-0.23,65ce1492e8be14e55bc04ebd,AWAITING REVIEW,2024-02-15T13:41:44.249000Z,2024-02-15T13:50:26.184000Z,,2024-02-15T13:50:27.086099Z,522.0,CVPIIDEI,2499,32,Female,White,United States,United States,United States,English,Yes,Part-Time,Not Applicable
610971ac8159690397a047c5,<b>Some policies I agree with in principle are so bad I don?t support them. ,Highly disagree,25/94,Somewhat disagree,2,1708004644674,1708004651936,\Somewhat disagree\,\Somewhat disagree\,\2\,1708004650977,1708004650977,6303,6303,7262,buq,qns-item-noham,25,129277,0.0-1.0-0.24,65ce1492e8be14e55bc04ebd,AWAITING REVIEW,2024-02-15T13:41:44.249000Z,2024-02-15T13:50:26.184000Z,,2024-02-15T13:50:27.086099Z,522.0,CVPIIDEI,2499,32,Female,White,United States,United States,United States,English,Yes,Part-Time,Not Applicable
610971ac8159690397a047c5,<b>I?m pretty sure I?ve accidentally spread false information.,Highly disagree,26/94,Somewhat agree,3,1708004651941,1708004654512,\Somewhat agree\,\Somewhat agree\,\3\,1708004653969,1708004653969,2028,2028,2571,buq,qns-item-noham,26,131853,0.0-1.0-0.25,65ce1492e8be14e55bc04ebd,AWAITING REVIEW,2024-02-15T13:41:44.249000Z,2024-02-15T13:50:26.184000Z,,2024-02-15T13:50:27.086099Z,522.0,CVPIIDEI,2499,32,Female,White,United States,United States,United States,English,Yes,Part-Time,Not Applicable
610971ac8159690397a047c5,"<b>If I go to my favorite restaurant and the food is unexpectedly bad, then they have changed owners.",Highly disagree,27/94,Somewhat disagree,2,1708004654518,1708004659931,\Somewhat disagree\,\Somewhat disagree\,\2\,1708004659300,1708004659300,4782,4782,5413,buq,qns-item-noham,27,137272,0.0-1.0-0.26,65ce1492e8be14e55bc04ebd,AWAITING REVIEW,2024-02-15T13:41:44.249000Z,2024-02-15T13:50:26.184000Z,,2024-02-15T13:50:27.086099Z,522.0,CVPIIDEI,2499,32,Female,White,United States,United States,United States,English,Yes,Part-Time,Not Applicable
610971ac8159690397a047c5,"<b>In politics, it?s important to trust your friends and family.",Highly disagree,28/94,Highly disagree,1,1708004659944,1708004663810,\Highly disagree\,\Highly disagree\,\1\,1708004662647,1708004662647,2703,2703,3866,buq,qns-item-noham,28,141151,0.0-1.0-0.27,65ce1492e8be14e55bc04ebd,AWAITING REVIEW,2024-02-15T13:41:44.249000Z,2024-02-15T13:50:26.184000Z,,2024-02-15T13:50:27.086099Z,522.0,CVPIIDEI,2499,32,Female,White,United States,United States,United States,English,Yes,Part-Time,Not Applicable
610971ac8159690397a047c5,<b>It?s OK to have some conflicting beliefs.,Highly disagree,29/94,Highly agree,4,1708004663823,1708004666838,\Highly agree\,\Highly agree\,\4\,1708004665307,1708004665307,1484,1484,3015,buq,qns-item-noham,29,144179,0.0-1.0-0.28,65ce1492e8be14e55bc04ebd,AWAITING REVIEW,2024-02-15T13:41:44.249000Z,2024-02-15T13:50:26.184000Z,,2024-02-15T13:50:27.086099Z,522.0,CVPIIDEI,2499,32,Female,White,United States,United States,United States,English,Yes,Part-Time,Not Applicable
610971ac8159690397a047c5,<b>Listening to people I disagree with makes my opinions better.,Highly disagree,30/94,Somewhat disagree,2,1708004666849,1708004670379,\Somewhat disagree\,\Somewhat disagree\,\2\,1708004669673,1708004669673,2824,2824,3530,buq,qns-item-noham,30,147721,0.0-1.0-0.29,65ce1492e8be14e55bc04ebd,AWAITING REVIEW,2024-02-15T13:41:44.249000Z,2024-02-15T13:50:26.184000Z,,2024-02-15T13:50:27.086099Z,522.0,CVPIIDEI,2499,32,Female,White,United States,United States,United States,English,Yes,Part-Time,Not Applicable
610971ac8159690397a047c5,<b>My moral compass sometimes makes it harder to determine what?s true.,Highly disagree,31/94,Highly disagree,1,1708004670390,1708004673262,\Highly disagree\,\Highly disagree\,\1\,1708004672483,1708004672483,2093,2093,2872,buq,qns-item-noham,31,150603,0.0-1.0-0.30,65ce1492e8be14e55bc04ebd,AWAITING REVIEW,2024-02-15T13:41:44.249000Z,2024-02-15T13:50:26.184000Z,,2024-02-15T13:50:27.086099Z,522.0,CVPIIDEI,2499,32,Female,White,United States,United States,United States,English,Yes,Part-Time,Not Applicable
610971ac8159690397a047c5,<b>Evidence pointing in the wrong direction isn?t really evidence at all.,Highly disagree,32/94,Somewhat disagree,2,1708004673270,1708004678715,\Somewhat disagree\,\Somewhat disagree\,\2\,1708004678180,1708004678180,4910,4910,5445,buq,qns-item-noham,32,156056,0.0-1.0-0.31,65ce1492e8be14e55bc04ebd,AWAITING REVIEW,2024-02-15T13:41:44.249000Z,2024-02-15T13:50:26.184000Z,,2024-02-15T13:50:27.086099Z,522.0,CVPIIDEI,2499,32,Female,White,United States,United States,United States,English,Yes,Part-Time,Not Applicable
610971ac8159690397a047c5,"<b>If the political party I support messes up, it makes me think politics is rotten.",Highly disagree,33/94,Somewhat agree,3,1708004678723,1708004682894,\Somewhat agree\,\Somewhat agree\,\3\,1708004681921,1708004681921,3198,3198,4171,buq,qns-item-noham,33,160236,0.0-1.0-0.32,65ce1492e8be14e55bc04ebd,AWAITING REVIEW,2024-02-15T13:41:44.249000Z,2024-02-15T13:50:26.184000Z,,2024-02-15T13:50:27.086099Z,522.0,CVPIIDEI,2499,32,Female,White,United States,United States,United States,English,Yes,Part-Time,Not Applicable
610971ac8159690397a047c5,<b>Lots of important topics can only really be understood by some groups of people.,Highly disagree,34/94,Highly disagree,1,1708004682899,1708004687724,\Highly disagree\,\Highly disagree\,\1\,1708004687053,1708004687053,4154,4154,4825,buq,qns-item-noham,34,165065,0.0-1.0-0.33,65ce1492e8be14e55bc04ebd,AWAITING REVIEW,2024-02-15T13:41:44.249000Z,2024-02-15T13:50:26.184000Z,,2024-02-15T13:50:27.086099Z,522.0,CVPIIDEI,2499,32,Female,White,United States,United States,United States,English,Yes,Part-Time,Not Applicable
610971ac8159690397a047c5,<b>Having conflicting beliefs means you haven?t thought about them enough.,Highly disagree,35/94,Somewhat disagree,2,1708004687729,1708004691788,\Somewhat disagree\,\Somewhat disagree\,\2\,1708004690695,1708004690695,2966,2966,4059,buq,qns-item-noham,35,169129,0.0-1.0-0.34,65ce1492e8be14e55bc04ebd,AWAITING REVIEW,2024-02-15T13:41:44.249000Z,2024-02-15T13:50:26.184000Z,,2024-02-15T13:50:27.086099Z,522.0,CVPIIDEI,2499,32,Female,White,United States,United States,United States,English,Yes,Part-Time,Not Applicable
610971ac8159690397a047c5,<b>I do not often change my political opinions.,Highly disagree,36/94,Somewhat agree,3,1708004691794,1708004694737,\Somewhat agree\,\Somewhat agree\,\3\,1708004694071,1708004694071,2277,2277,2943,buq,qns-item-noham,36,172078,0.0-1.0-0.35,65ce1492e8be14e55bc04ebd,AWAITING REVIEW,2024-02-15T13:41:44.249000Z,2024-02-15T13:50:26.184000Z,,2024-02-15T13:50:27.086099Z,522.0,CVPIIDEI,2499,32,Female,White,United States,United States,United States,English,Yes,Part-Time,Not Applicable
610971ac8159690397a047c5,<b>It?s difficult to not have at least some conflicting beliefs.,Highly disagree,37/94,Somewhat agree,3,1708004694742,1708004697466,\Somewhat agree\,\Somewhat agree\,\3\,1708004696894,1708004696894,2152,2152,2724,buq,qns-item-noham,37,174807,0.0-1.0-0.36,65ce1492e8be14e55bc04ebd,AWAITING REVIEW,2024-02-15T13:41:44.249000Z,2024-02-15T13:50:26.184000Z,,2024-02-15T13:50:27.086099Z,522.0,CVPIIDEI,2499,32,Female,White,United States,United States,United States,English,Yes,Part-Time,Not Applicable
610971ac8159690397a047c5,<b>Wishful thinking causes a lot of problems.,Highly disagree,38/94,Highly agree,4,1708004697469,1708004701397,\Somewhat disagree\,\Highly agree\,\2\,1708004699104,1708004700723,1635,3254,3928,buq,qns-item-noham,38,178738,0.0-1.0-0.37,65ce1492e8be14e55bc04ebd,AWAITING REVIEW,2024-02-15T13:41:44.249000Z,2024-02-15T13:50:26.184000Z,,2024-02-15T13:50:27.086099Z,522.0,CVPIIDEI,2499,32,Female,White,United States,United States,United States,English,Yes,Part-Time,Not Applicable
610971ac8159690397a047c5,<b>I judge a food item only once I try it many times.,Highly disagree,39/94,Somewhat disagree,2,1708004701410,1708004706053,\Somewhat disagree\,\Somewhat disagree\,\2\,1708004705101,1708004705101,3691,3691,4643,buq,qns-item-noham,39,183394,0.0-1.0-0.38,65ce1492e8be14e55bc04ebd,AWAITING REVIEW,2024-02-15T13:41:44.249000Z,2024-02-15T13:50:26.184000Z,,2024-02-15T13:50:27.086099Z,522.0,CVPIIDEI,2499,32,Female,White,United States,United States,United States,English,Yes,Part-Time,Not Applicable
610971ac8159690397a047c5,"<b>When a person holds conflicting beliefs, they should really try to figure out what?s wrong.",Highly disagree,40/94,Somewhat agree,3,1708004706066,1708004709776,\Somewhat agree\,\Somewhat agree\,\3\,1708004708765,1708004708765,2699,2699,3710,buq,qns-item-noham,40,187117,0.0-1.0-0.39,65ce1492e8be14e55bc04ebd,AWAITING REVIEW,2024-02-15T13:41:44.249000Z,2024-02-15T13:50:26.184000Z,,2024-02-15T13:50:27.086099Z,522.0,CVPIIDEI,2499,32,Female,White,United States,United States,United States,English,Yes,Part-Time,Not Applicable
610971ac8159690397a047c5,<b>Knowing what?s important in life is easy.,Highly disagree,41/94,Highly agree,4,1708004709780,1708004715513,\Highly agree\,\Highly agree\,\4\,1708004714467,1708004714467,4687,4687,5733,buq,qns-item-noham,41,192854,0.0-1.0-0.40,65ce1492e8be14e55bc04ebd,AWAITING REVIEW,2024-02-15T13:41:44.249000Z,2024-02-15T13:50:26.184000Z,,2024-02-15T13:50:27.086099Z,522.0,CVPIIDEI,2499,32,Female,White,United States,United States,United States,English,Yes,Part-Time,Not Applicable
610971ac8159690397a047c5,<b>I swim across the Atlantic Ocean to get to work every day.,Highly disagree,42/94,Highly disagree,1,1708004715517,1708004718587,\Highly disagree\,\Highly disagree\,\1\,1708004717260,1708004717260,1743,1743,3070,buq,qns-item-noham,42,195928,0.0-1.0-0.41,65ce1492e8be14e55bc04ebd,AWAITING REVIEW,2024-02-15T13:41:44.249000Z,2024-02-15T13:50:26.184000Z,,2024-02-15T13:50:27.086099Z,522.0,CVPIIDEI,2499,32,Female,White,United States,United States,United States,English,Yes,Part-Time,Not Applicable
610971ac8159690397a047c5,"<b>Sometimes, you just have to ignore evidence that you know is wrong.",Highly disagree,43/94,Highly agree,4,1708004718593,1708004722930,\Highly agree\,\Highly agree\,\4\,1708004721788,1708004721788,3195,3195,4337,buq,qns-item-noham,43,200271,0.0-1.0-0.42,65ce1492e8be14e55bc04ebd,AWAITING REVIEW,2024-02-15T13:41:44.249000Z,2024-02-15T13:50:26.184000Z,,2024-02-15T13:50:27.086099Z,522.0,CVPIIDEI,2499,32,Female,White,United States,United States,United States,English,Yes,Part-Time,Not Applicable
610971ac8159690397a047c5,<b>I have had some false beliefs.,Highly disagree,44/94,Somewhat agree,3,1708004722936,1708004725361,\Somewhat agree\,\Somewhat agree\,\3\,1708004724549,1708004724549,1613,1613,2425,buq,qns-item-noham,44,202703,0.0-1.0-0.43,65ce1492e8be14e55bc04ebd,AWAITING REVIEW,2024-02-15T13:41:44.249000Z,2024-02-15T13:50:26.184000Z,,2024-02-15T13:50:27.086099Z,522.0,CVPIIDEI,2499,32,Female,White,United States,United States,United States,English,Yes,Part-Time,Not Applicable
610971ac8159690397a047c5,"<b>If one friend does something that upsets me, I sometimes start to distrust people in general.",Highly disagree,45/94,Somewhat disagree,2,1708004725367,1708004730437,\Somewhat disagree\,\Somewhat disagree\,\2\,1708004729839,1708004729839,4472,4472,5070,buq,qns-item-noham,45,207778,0.0-1.0-0.44,65ce1492e8be14e55bc04ebd,AWAITING REVIEW,2024-02-15T13:41:44.249000Z,2024-02-15T13:50:26.184000Z,,2024-02-15T13:50:27.086099Z,522.0,CVPIIDEI,2499,32,Female,White,United States,United States,United States,English,Yes,Part-Time,Not Applicable
610971ac8159690397a047c5,<b>The facts about most important matters are easy to find.,Highly disagree,46/94,Somewhat disagree,2,1708004730448,1708004736130,\Somewhat disagree\,\Somewhat disagree\,\2\,1708004735572,1708004735572,5124,5124,5682,buq,qns-item-noham,46,213471,0.0-1.0-0.45,65ce1492e8be14e55bc04ebd,AWAITING REVIEW,2024-02-15T13:41:44.249000Z,2024-02-15T13:50:26.184000Z,,2024-02-15T13:50:27.086099Z,522.0,CVPIIDEI,2499,32,Female,White,United States,United States,United States,English,Yes,Part-Time,Not Applicable
610971ac8159690397a047c5,<b>It?s better to know what?s true than to know what?s moral.,Highly disagree,47/94,Somewhat agree,3,1708004736142,1708004742120,\Somewhat agree\,\Somewhat agree\,\3\,1708004741115,1708004741115,4973,4973,5978,buq,qns-item-noham,47,219461,0.0-1.0-0.46,65ce1492e8be14e55bc04ebd,AWAITING REVIEW,2024-02-15T13:41:44.249000Z,2024-02-15T13:50:26.184000Z,,2024-02-15T13:50:27.086099Z,522.0,CVPIIDEI,2499,32,Female,White,United States,United States,United States,English,Yes,Part-Time,Not Applicable
610971ac8159690397a047c5,<b>I used to think the world was less complicated than I do now.,Highly disagree,48/94,Somewhat agree,3,1708004742124,1708004746138,\Somewhat agree\,\Somewhat agree\,\3\,1708004745085,1708004745085,2961,2961,4014,buq,qns-item-noham,48,223479,0.0-1.0-0.47,65ce1492e8be14e55bc04ebd,AWAITING REVIEW,2024-02-15T13:41:44.249000Z,2024-02-15T13:50:26.184000Z,,2024-02-15T13:50:27.086099Z,522.0,CVPIIDEI,2499,32,Female,White,United States,United States,United States,English,Yes,Part-Time,Not Applicable
610971ac8159690397a047c5,<b>People are usually completely right or completely wrong.,Highly disagree,49/94,Highly disagree,1,1708004746145,1708004748544,\Highly disagree\,\Highly disagree\,\1\,1708004747918,1708004747918,1773,1773,2399,buq,qns-item-noham,49,225885,0.0-1.0-0.48,65ce1492e8be14e55bc04ebd,AWAITING REVIEW,2024-02-15T13:41:44.249000Z,2024-02-15T13:50:26.184000Z,,2024-02-15T13:50:27.086099Z,522.0,CVPIIDEI,2499,32,Female,White,United States,United States,United States,English,Yes,Part-Time,Not Applicable
610971ac8159690397a047c5,<b>I spend a lot of time considering alternatives to my beliefs.,Highly disagree,50/94,Somewhat disagree,2,1708004748549,1708004753074,\Somewhat agree\,\Somewhat disagree\,\3\,1708004751106,1708004752345,2557,3796,4525,buq,qns-item-noham,50,230415,0.0-1.0-0.49,65ce1492e8be14e55bc04ebd,AWAITING REVIEW,2024-02-15T13:41:44.249000Z,2024-02-15T13:50:26.184000Z,,2024-02-15T13:50:27.086099Z,522.0,CVPIIDEI,2499,32,Female,White,United States,United States,United States,English,Yes,Part-Time,Not Applicable
610971ac8159690397a047c5,"<b>Political enemies need to be defeated, not convinced.",Highly disagree,51/94,Somewhat agree,3,1708004753081,1708004758808,\Somewhat agree\,\Somewhat agree\,\3\,1708004757713,1708004757713,4632,4632,5727,buq,qns-item-noham,51,236150,0.0-1.0-0.50,65ce1492e8be14e55bc04ebd,AWAITING REVIEW,2024-02-15T13:41:44.249000Z,2024-02-15T13:50:26.184000Z,,2024-02-15T13:50:27.086099Z,522.0,CVPIIDEI,2499,32,Female,White,United States,United States,United States,English,Yes,Part-Time,Not Applicable
610971ac8159690397a047c5,<b>I form my political views only after meticulously gathering historical and present information about their policies.,Highly disagree,52/94,Highly agree,4,1708004758818,1708004763897,\Highly agree\,\Highly agree\,\4\,1708004762717,1708004762717,3899,3899,5079,buq,qns-item-noham,52,241238,0.0-1.0-0.51,65ce1492e8be14e55bc04ebd,AWAITING REVIEW,2024-02-15T13:41:44.249000Z,2024-02-15T13:50:26.184000Z,,2024-02-15T13:50:27.086099Z,522.0,CVPIIDEI,2499,32,Female,White,United States,United States,United States,English,Yes,Part-Time,Not Applicable
610971ac8159690397a047c5,<b>It is difficult for me to remember the last time I was surprised by politics.,Highly disagree,53/94,Somewhat disagree,2,1708004763908,1708004769848,\Somewhat agree\,\Somewhat disagree\,\3\,1708004766585,1708004769019,2677,5111,5940,buq,qns-item-noham,53,247189,0.0-1.0-0.52,65ce1492e8be14e55bc04ebd,AWAITING REVIEW,2024-02-15T13:41:44.249000Z,2024-02-15T13:50:26.184000Z,,2024-02-15T13:50:27.086099Z,522.0,CVPIIDEI,2499,32,Female,White,United States,United States,United States,English,Yes,Part-Time,Not Applicable
610971ac8159690397a047c5,"<b>When I find out I?m wrong, I think a lot about my related beliefs.",Highly disagree,54/94,Highly agree,4,1708004769855,1708004775380,\Highly agree\,\Highly agree\,\4\,1708004771904,1708004774690,2049,4835,5525,buq,qns-item-noham,54,252721,0.0-1.0-0.53,65ce1492e8be14e55bc04ebd,AWAITING REVIEW,2024-02-15T13:41:44.249000Z,2024-02-15T13:50:26.184000Z,,2024-02-15T13:50:27.086099Z,522.0,CVPIIDEI,2499,32,Female,White,United States,United States,United States,English,Yes,Part-Time,Not Applicable
610971ac8159690397a047c5,"<b>If the political party I support messes up, it makes me think you can?t trust anyone these days",Highly disagree,55/94,Somewhat disagree,2,1708004775387,1708004779360,\Somewhat disagree\,\Somewhat disagree\,\2\,1708004778307,1708004778307,2920,2920,3973,buq,qns-item-noham,55,256701,0.0-1.0-0.54,65ce1492e8be14e55bc04ebd,AWAITING REVIEW,2024-02-15T13:41:44.249000Z,2024-02-15T13:50:26.184000Z,,2024-02-15T13:50:27.086099Z,522.0,CVPIIDEI,2499,32,Female,White,United States,United States,United States,English,Yes,Part-Time,Not Applicable
610971ac8159690397a047c5,<b>People?s brains turn off when they talk about politics.,Highly disagree,56/94,Somewhat disagree,2,1708004779367,1708004783904,\Somewhat disagree\,\Somewhat disagree\,\2\,1708004782831,1708004782831,3464,3464,4537,buq,qns-item-noham,56,261246,0.0-1.0-0.55,65ce1492e8be14e55bc04ebd,AWAITING REVIEW,2024-02-15T13:41:44.249000Z,2024-02-15T13:50:26.184000Z,,2024-02-15T13:50:27.086099Z,522.0,CVPIIDEI,2499,32,Female,White,United States,United States,United States,English,Yes,Part-Time,Not Applicable
610971ac8159690397a047c5,<b>People who are wrong are usually just ignoring the obvious.,Highly disagree,57/94,Somewhat disagree,2,1708004783911,1708004788293,\Somewhat disagree\,\Somewhat disagree\,\2\,1708004787603,1708004787603,3692,3692,4382,buq,qns-item-noham,57,265634,0.0-1.0-0.56,65ce1492e8be14e55bc04ebd,AWAITING REVIEW,2024-02-15T13:41:44.249000Z,2024-02-15T13:50:26.184000Z,,2024-02-15T13:50:27.086099Z,522.0,CVPIIDEI,2499,32,Female,White,United States,United States,United States,English,Yes,Part-Time,Not Applicable
610971ac8159690397a047c5,"<b>When forming my views on people, I rely more on what they are like now rather than rely on my past experience with them.",Highly disagree,58/94,Somewhat agree,3,1708004788303,1708004794000,\Somewhat agree\,\Somewhat agree\,\3\,1708004793172,1708004793172,4869,4869,5697,buq,qns-item-noham,58,271341,0.0-1.0-0.57,65ce1492e8be14e55bc04ebd,AWAITING REVIEW,2024-02-15T13:41:44.249000Z,2024-02-15T13:50:26.184000Z,,2024-02-15T13:50:27.086099Z,522.0,CVPIIDEI,2499,32,Female,White,United States,United States,United States,English,Yes,Part-Time,Not Applicable
610971ac8159690397a047c5,"<b>When people contradict my beliefs, I usually know about their evidence already.",Highly disagree,59/94,Somewhat agree,3,1708004794004,1708004798293,\Somewhat agree\,\Somewhat agree\,\3\,1708004797631,1708004797631,3627,3627,4289,buq,qns-item-noham,59,275635,0.0-1.0-0.58,65ce1492e8be14e55bc04ebd,AWAITING REVIEW,2024-02-15T13:41:44.249000Z,2024-02-15T13:50:26.184000Z,,2024-02-15T13:50:27.086099Z,522.0,CVPIIDEI,2499,32,Female,White,United States,United States,United States,English,Yes,Part-Time,Not Applicable
610971ac8159690397a047c5,<b>Figuring out what?s true and what?s false mainly requires a strong moral compass.,Highly disagree,60/94,Somewhat agree,3,1708004798307,1708004805027,\Somewhat agree\,\Somewhat agree\,\3\,1708004804340,1708004804340,6033,6033,6720,buq,qns-item-noham,60,282368,0.0-1.0-0.59,65ce1492e8be14e55bc04ebd,AWAITING REVIEW,2024-02-15T13:41:44.249000Z,2024-02-15T13:50:26.184000Z,,2024-02-15T13:50:27.086099Z,522.0,CVPIIDEI,2499,32,Female,White,United States,United States,United States,English,Yes,Part-Time,Not Applicable
610971ac8159690397a047c5,"<b>Usually I?m wrong about simple things, not complicated ones.",Highly disagree,61/94,Somewhat agree,3,1708004805031,1708004812545,\Somewhat disagree\,\Somewhat agree\,\2\,1708004810784,1708004811283,5753,6252,7514,buq,qns-item-noham,61,289886,0.0-1.0-0.60,65ce1492e8be14e55bc04ebd,AWAITING REVIEW,2024-02-15T13:41:44.249000Z,2024-02-15T13:50:26.184000Z,,2024-02-15T13:50:27.086099Z,522.0,CVPIIDEI,2499,32,Female,White,United States,United States,United States,English,Yes,Part-Time,Not Applicable
610971ac8159690397a047c5,<b>Getting all the information I want about important things is hard.,Highly disagree,62/94,Somewhat disagree,2,1708004812552,1708004816472,\Somewhat disagree\,\Somewhat disagree\,\2\,1708004815423,1708004815423,2871,2871,3920,buq,qns-item-noham,62,293814,0.0-1.0-0.61,65ce1492e8be14e55bc04ebd,AWAITING REVIEW,2024-02-15T13:41:44.249000Z,2024-02-15T13:50:26.184000Z,,2024-02-15T13:50:27.086099Z,522.0,CVPIIDEI,2499,32,Female,White,United States,United States,United States,English,Yes,Part-Time,Not Applicable
610971ac8159690397a047c5,<b>Most false beliefs spread because people try to deceive one another.,Highly disagree,63/94,Somewhat disagree,2,1708004816482,1708004819988,\Somewhat disagree\,\Somewhat disagree\,\2\,1708004819164,1708004819164,2682,2682,3506,buq,qns-item-noham,63,297329,0.0-1.0-0.62,65ce1492e8be14e55bc04ebd,AWAITING REVIEW,2024-02-15T13:41:44.249000Z,2024-02-15T13:50:26.184000Z,,2024-02-15T13:50:27.086099Z,522.0,CVPIIDEI,2499,32,Female,White,United States,United States,United States,English,Yes,Part-Time,Not Applicable
610971ac8159690397a047c5,<b>I can usually find something to agree with in most people?s beliefs.,Highly disagree,64/94,Highly agree,4,1708004819998,1708004825254,\Highly agree\,\Highly agree\,\4\,1708004823057,1708004823057,3059,3059,5256,buq,qns-item-noham,64,302595,0.0-1.0-0.63,65ce1492e8be14e55bc04ebd,AWAITING REVIEW,2024-02-15T13:41:44.249000Z,2024-02-15T13:50:26.184000Z,,2024-02-15T13:50:27.086099Z,522.0,CVPIIDEI,2499,32,Female,White,United States,United States,United States,English,Yes,Part-Time,Not Applicable
610971ac8159690397a047c5,<b>I only form my views of people once I get to know them very well.,Highly disagree,65/94,Somewhat agree,3,1708004825260,1708004831031,\Somewhat agree\,\Somewhat agree\,\3\,1708004830026,1708004830026,4766,4766,5771,buq,qns-item-noham,65,308372,0.0-1.0-0.64,65ce1492e8be14e55bc04ebd,AWAITING REVIEW,2024-02-15T13:41:44.249000Z,2024-02-15T13:50:26.184000Z,,2024-02-15T13:50:27.086099Z,522.0,CVPIIDEI,2499,32,Female,White,United States,United States,United States,English,Yes,Part-Time,Not Applicable
610971ac8159690397a047c5,"<b>When people tell me important things about the world, I usually believe them.",Highly disagree,66/94,Highly disagree,1,1708004831036,1708004847005,\Somewhat disagree\,\Highly disagree\,\2\,1708004845554,1708004846330,14518,15294,15969,buq,qns-item-noham,66,324346,0.0-1.0-0.65,65ce1492e8be14e55bc04ebd,AWAITING REVIEW,2024-02-15T13:41:44.249000Z,2024-02-15T13:50:26.184000Z,,2024-02-15T13:50:27.086099Z,522.0,CVPIIDEI,2499,32,Female,White,United States,United States,United States,English,Yes,Part-Time,Not Applicable
610971ac8159690397a047c5,"<b>If a friend does something that upsets me, it reminds me what an unpredictable place the world is.",Highly disagree,67/94,Somewhat disagree,2,1708004847012,1708004879326,\Somewhat disagree\,\Somewhat disagree\,\2\,1708004878250,1708004878250,31238,31238,32314,buq,qns-item-noham,67,356667,0.0-1.0-0.66,65ce1492e8be14e55bc04ebd,AWAITING REVIEW,2024-02-15T13:41:44.249000Z,2024-02-15T13:50:26.184000Z,,2024-02-15T13:50:27.086099Z,522.0,CVPIIDEI,2499,32,Female,White,United States,United States,United States,English,Yes,Part-Time,Not Applicable
610971ac8159690397a047c5,<b>People tend to believe whatever is good for their friends.,Highly disagree,68/94,Highly agree,4,1708004879332,1708004882971,\Somewhat agree\,\Highly agree\,\3\,1708004881500,1708004882236,2168,2904,3639,buq,qns-item-noham,68,360312,0.0-1.0-0.67,65ce1492e8be14e55bc04ebd,AWAITING REVIEW,2024-02-15T13:41:44.249000Z,2024-02-15T13:50:26.184000Z,,2024-02-15T13:50:27.086099Z,522.0,CVPIIDEI,2499,32,Female,White,United States,United States,United States,English,Yes,Part-Time,Not Applicable
610971ac8159690397a047c5,<b>I used to be more certain my beliefs were true.,Highly disagree,69/94,Somewhat disagree,2,1708004882977,1708004885477,\Somewhat disagree\,\Somewhat disagree\,\2\,1708004884879,1708004884879,1902,1902,2500,buq,qns-item-noham,69,362818,0.0-1.0-0.68,65ce1492e8be14e55bc04ebd,AWAITING REVIEW,2024-02-15T13:41:44.249000Z,2024-02-15T13:50:26.184000Z,,2024-02-15T13:50:27.086099Z,522.0,CVPIIDEI,2499,32,Female,White,United States,United States,United States,English,Yes,Part-Time,Not Applicable
610971ac8159690397a047c5,<b>It?s often pretty easy to figure out whether something is true based on who said it.,Highly disagree,70/94,Somewhat disagree,2,1708004885483,1708004889570,\Somewhat disagree\,\Somewhat disagree\,\2\,1708004888593,1708004888593,3110,3110,4087,buq,qns-item-noham,70,366911,0.0-1.0-0.69,65ce1492e8be14e55bc04ebd,AWAITING REVIEW,2024-02-15T13:41:44.249000Z,2024-02-15T13:50:26.184000Z,,2024-02-15T13:50:27.086099Z,522.0,CVPIIDEI,2499,32,Female,White,United States,United States,United States,English,Yes,Part-Time,Not Applicable
610971ac8159690397a047c5,<b>I transform into a hummingbird every day.,Highly disagree,71/94,Highly disagree,1,1708004889574,1708004892338,\Highly disagree\,\Highly disagree\,\1\,1708004891529,1708004891529,1955,1955,2764,buq,qns-item-noham,71,369680,0.0-1.0-0.70,65ce1492e8be14e55bc04ebd,AWAITING REVIEW,2024-02-15T13:41:44.249000Z,2024-02-15T13:50:26.184000Z,,2024-02-15T13:50:27.086099Z,522.0,CVPIIDEI,2499,32,Female,White,United States,United States,United States,English,Yes,Part-Time,Not Applicable
610971ac8159690397a047c5,<b>I think a lot about arguments against my views.,Highly disagree,72/94,Highly agree,4,1708004892349,1708004895793,\Somewhat agree\,\Highly agree\,\3\,1708004894286,1708004895092,1937,2743,3444,buq,qns-item-noham,72,373134,0.0-1.0-0.71,65ce1492e8be14e55bc04ebd,AWAITING REVIEW,2024-02-15T13:41:44.249000Z,2024-02-15T13:50:26.184000Z,,2024-02-15T13:50:27.086099Z,522.0,CVPIIDEI,2499,32,Female,White,United States,United States,United States,English,Yes,Part-Time,Not Applicable
610971ac8159690397a047c5,<b>Personal experience is usually more important than facts and figures.,Highly disagree,73/94,Highly disagree,1,1708004895802,1708004898446,\Highly disagree\,\Highly disagree\,\1\,1708004897805,1708004897805,2003,2003,2644,buq,qns-item-noham,73,375788,0.0-1.0-0.72,65ce1492e8be14e55bc04ebd,AWAITING REVIEW,2024-02-15T13:41:44.249000Z,2024-02-15T13:50:26.184000Z,,2024-02-15T13:50:27.086099Z,522.0,CVPIIDEI,2499,32,Female,White,United States,United States,United States,English,Yes,Part-Time,Not Applicable
610971ac8159690397a047c5,<b>I?ve been tricked before about important matters.,Highly disagree,74/94,Highly disagree,1,1708004898458,1708004901555,\Highly disagree\,\Highly disagree\,\1\,1708004900465,1708004900465,2007,2007,3097,buq,qns-item-noham,74,378896,0.0-1.0-0.73,65ce1492e8be14e55bc04ebd,AWAITING REVIEW,2024-02-15T13:41:44.249000Z,2024-02-15T13:50:26.184000Z,,2024-02-15T13:50:27.086099Z,522.0,CVPIIDEI,2499,32,Female,White,United States,United States,United States,English,Yes,Part-Time,Not Applicable
610971ac8159690397a047c5,<b>I would need to be totally wowed if I were to change my opinion of a restaurant I don?t like.,Highly disagree,75/94,Somewhat agree,3,1708004901562,1708004907692,\Somewhat agree\,\Somewhat agree\,\3\,1708004906703,1708004906703,5141,5141,6130,buq,qns-item-noham,75,385033,0.0-1.0-0.74,65ce1492e8be14e55bc04ebd,AWAITING REVIEW,2024-02-15T13:41:44.249000Z,2024-02-15T13:50:26.184000Z,,2024-02-15T13:50:27.086099Z,522.0,CVPIIDEI,2499,32,Female,White,United States,United States,United States,English,Yes,Part-Time,Not Applicable
610971ac8159690397a047c5,<b>I care a lot about politics.,Highly disagree,76/94,Somewhat agree,3,1708004907705,1708004909909,\Somewhat agree\,\Somewhat agree\,\3\,1708004909170,1708004909170,1465,1465,2204,buq,qns-item-noham,76,387250,0.0-1.0-0.75,65ce1492e8be14e55bc04ebd,AWAITING REVIEW,2024-02-15T13:41:44.249000Z,2024-02-15T13:50:26.184000Z,,2024-02-15T13:50:27.086099Z,522.0,CVPIIDEI,2499,32,Female,White,United States,United States,United States,English,Yes,Part-Time,Not Applicable
610971ac8159690397a047c5,<b>There are some topics I?ve been really wrong about.,Highly disagree,77/94,Somewhat agree,3,1708004909918,1708004914111,\Somewhat disagree\,\Somewhat agree\,\2\,1708004911861,1708004912967,1943,3049,4193,buq,qns-item-noham,77,391453,0.0-1.0-0.76,65ce1492e8be14e55bc04ebd,AWAITING REVIEW,2024-02-15T13:41:44.249000Z,2024-02-15T13:50:26.184000Z,,2024-02-15T13:50:27.086099Z,522.0,CVPIIDEI,2499,32,Female,White,United States,United States,United States,English,Yes,Part-Time,Not Applicable
610971ac8159690397a047c5,<b>Most beliefs can be supported with at least some evidence.,Highly disagree,78/94,Highly agree,4,1708004914118,1708004916745,\Highly agree\,\Highly agree\,\4\,1708004916088,1708004916088,1970,1970,2627,buq,qns-item-noham,78,394086,0.0-1.0-0.77,65ce1492e8be14e55bc04ebd,AWAITING REVIEW,2024-02-15T13:41:44.249000Z,2024-02-15T13:50:26.184000Z,,2024-02-15T13:50:27.086099Z,522.0,CVPIIDEI,2499,32,Female,White,United States,United States,United States,English,Yes,Part-Time,Not Applicable
610971ac8159690397a047c5,<b>Other people make life out to be more complicated than it really is.,Highly disagree,79/94,Somewhat disagree,2,1708004916751,1708004920522,\Somewhat disagree\,\Somewhat disagree\,\2\,1708004919939,1708004919939,3188,3188,3771,buq,qns-item-noham,79,397864,0.0-1.0-0.78,65ce1492e8be14e55bc04ebd,AWAITING REVIEW,2024-02-15T13:41:44.249000Z,2024-02-15T13:50:26.184000Z,,2024-02-15T13:50:27.086099Z,522.0,CVPIIDEI,2499,32,Female,White,United States,United States,United States,English,Yes,Part-Time,Not Applicable
610971ac8159690397a047c5,"<b>Policy details don?t matter much, just the big picture.",Highly disagree,80/94,Somewhat disagree,2,1708004920529,1708004924235,\Somewhat disagree\,\Somewhat disagree\,\2\,1708004923330,1708004923330,2801,2801,3706,buq,qns-item-noham,80,401576,0.0-1.0-0.79,65ce1492e8be14e55bc04ebd,AWAITING REVIEW,2024-02-15T13:41:44.249000Z,2024-02-15T13:50:26.184000Z,,2024-02-15T13:50:27.086099Z,522.0,CVPIIDEI,2499,32,Female,White,United States,United States,United States,English,Yes,Part-Time,Not Applicable
610971ac8159690397a047c5,<b>I know my friends so well they can hardly ever surprise me.,Highly disagree,81/94,Somewhat disagree,2,1708004924241,1708004927209,\Somewhat disagree\,\Somewhat disagree\,\2\,1708004926514,1708004926514,2273,2273,2968,buq,qns-item-noham,81,404550,0.0-1.0-0.80,65ce1492e8be14e55bc04ebd,AWAITING REVIEW,2024-02-15T13:41:44.249000Z,2024-02-15T13:50:26.184000Z,,2024-02-15T13:50:27.086099Z,522.0,CVPIIDEI,2499,32,Female,White,United States,United States,United States,English,Yes,Part-Time,Not Applicable
610971ac8159690397a047c5,<b>I do not often change my views on people.,Highly disagree,82/94,Highly disagree,1,1708004927215,1708004930731,\Somewhat disagree\,\Highly disagree\,\2\,1708004929371,1708004929822,2156,2607,3516,buq,qns-item-noham,82,408072,0.0-1.0-0.81,65ce1492e8be14e55bc04ebd,AWAITING REVIEW,2024-02-15T13:41:44.249000Z,2024-02-15T13:50:26.184000Z,,2024-02-15T13:50:27.086099Z,522.0,CVPIIDEI,2499,32,Female,White,United States,United States,United States,English,Yes,Part-Time,Not Applicable
610971ac8159690397a047c5,<b>I?m more certain about my beliefs than I used to be.,Highly disagree,83/94,Somewhat agree,3,1708004930743,1708004933858,\Somewhat agree\,\Somewhat agree\,\3\,1708004933013,1708004933013,2270,2270,3115,buq,qns-item-noham,83,411199,0.0-1.0-0.82,65ce1492e8be14e55bc04ebd,AWAITING REVIEW,2024-02-15T13:41:44.249000Z,2024-02-15T13:50:26.184000Z,,2024-02-15T13:50:27.086099Z,522.0,CVPIIDEI,2499,32,Female,White,United States,United States,United States,English,Yes,Part-Time,Not Applicable
610971ac8159690397a047c5,<b>People often tell falsehoods unintentionally.,Highly disagree,84/94,Somewhat agree,3,1708004933864,1708004937159,\Somewhat agree\,\Somewhat agree\,\3\,1708004936319,1708004936319,2455,2455,3295,buq,qns-item-noham,84,414500,0.0-1.0-0.83,65ce1492e8be14e55bc04ebd,AWAITING REVIEW,2024-02-15T13:41:44.249000Z,2024-02-15T13:50:26.184000Z,,2024-02-15T13:50:27.086099Z,522.0,CVPIIDEI,2499,32,Female,White,United States,United States,United States,English,Yes,Part-Time,Not Applicable
610971ac8159690397a047c5,<b>Most people don?t know much about most things.,Highly disagree,85/94,Somewhat disagree,2,1708004937171,1708004940301,\Somewhat disagree\,\Somewhat disagree\,\2\,1708004939343,1708004939343,2172,2172,3130,buq,qns-item-noham,85,417643,0.0-1.0-0.84,65ce1492e8be14e55bc04ebd,AWAITING REVIEW,2024-02-15T13:41:44.249000Z,2024-02-15T13:50:26.184000Z,,2024-02-15T13:50:27.086099Z,522.0,CVPIIDEI,2499,32,Female,White,United States,United States,United States,English,Yes,Part-Time,Not Applicable
610971ac8159690397a047c5,"<b>If I find out something new about someone, I easily change my views about them.",Highly disagree,86/94,Highly agree,4,1708004940313,1708004945081,\Highly agree\,\Highly agree\,\4\,1708004943700,1708004943700,3387,3387,4768,buq,qns-item-noham,86,422422,0.0-1.0-0.85,65ce1492e8be14e55bc04ebd,AWAITING REVIEW,2024-02-15T13:41:44.249000Z,2024-02-15T13:50:26.184000Z,,2024-02-15T13:50:27.086099Z,522.0,CVPIIDEI,2499,32,Female,White,United States,United States,United States,English,Yes,Part-Time,Not Applicable
610971ac8159690397a047c5,<b>Having true beliefs is difficult.,Highly disagree,87/94,Somewhat disagree,2,1708004945088,1708004949166,\Somewhat agree\,\Somewhat disagree\,\3\,1708004947249,1708004948365,2161,3277,4078,buq,qns-item-noham,87,426507,0.0-1.0-0.86,65ce1492e8be14e55bc04ebd,AWAITING REVIEW,2024-02-15T13:41:44.249000Z,2024-02-15T13:50:26.184000Z,,2024-02-15T13:50:27.086099Z,522.0,CVPIIDEI,2499,32,Female,White,United States,United States,United States,English,Yes,Part-Time,Not Applicable
610971ac8159690397a047c5,<b>I don?t try new foods since I know I won?t like them.,Highly disagree,88/94,Highly disagree,1,1708004949172,1708004952117,\Highly disagree\,\Highly disagree\,\1\,1708004951482,1708004951482,2310,2310,2945,buq,qns-item-noham,88,429458,0.0-1.0-0.87,65ce1492e8be14e55bc04ebd,AWAITING REVIEW,2024-02-15T13:41:44.249000Z,2024-02-15T13:50:26.184000Z,,2024-02-15T13:50:27.086099Z,522.0,CVPIIDEI,2499,32,Female,White,United States,United States,United States,English,Yes,Part-Time,Not Applicable
610971ac8159690397a047c5,<b>Other people trick each other a lot.,Highly disagree,89/94,Somewhat agree,3,1708004952127,1708004956875,\Somewhat disagree\,\Somewhat agree\,\2\,1708004955521,1708004956010,3394,3883,4748,buq,qns-item-noham,89,434216,0.0-1.0-0.88,65ce1492e8be14e55bc04ebd,AWAITING REVIEW,2024-02-15T13:41:44.249000Z,2024-02-15T13:50:26.184000Z,,2024-02-15T13:50:27.086099Z,522.0,CVPIIDEI,2499,32,Female,White,United States,United States,United States,English,Yes,Part-Time,Not Applicable
610971ac8159690397a047c5,<b>I would need to learn a lot about a person for my opinion of them to be swayed.,Highly disagree,90/94,Somewhat disagree,2,1708004956890,1708004964086,\Somewhat disagree\,\Somewhat disagree\,\2\,1708004963179,1708004963179,6289,6289,7196,buq,qns-item-noham,90,441427,0.0-1.0-0.89,65ce1492e8be14e55bc04ebd,AWAITING REVIEW,2024-02-15T13:41:44.249000Z,2024-02-15T13:50:26.184000Z,,2024-02-15T13:50:27.086099Z,522.0,CVPIIDEI,2499,32,Female,White,United States,United States,United States,English,Yes,Part-Time,Not Applicable
610971ac8159690397a047c5,<b>People can?t usually trick me when it comes to topics I care about.,Highly disagree,91/94,Highly agree,4,1708004964092,1708004971417,\Highly agree\,\Highly agree\,\4\,1708004970603,1708004970603,6511,6511,7325,buq,qns-item-noham,91,448758,0.0-1.0-0.90,65ce1492e8be14e55bc04ebd,AWAITING REVIEW,2024-02-15T13:41:44.249000Z,2024-02-15T13:50:26.184000Z,,2024-02-15T13:50:27.086099Z,522.0,CVPIIDEI,2499,32,Female,White,United States,United States,United States,English,Yes,Part-Time,Not Applicable
610971ac8159690397a047c5,<b>I do not often change my views on food.,Highly disagree,92/94,Somewhat disagree,2,1708004971425,1708004974455,\Somewhat disagree\,\Somewhat disagree\,\2\,1708004973843,1708004973843,2418,2418,3030,buq,qns-item-noham,92,451796,0.0-1.0-0.91,65ce1492e8be14e55bc04ebd,AWAITING REVIEW,2024-02-15T13:41:44.249000Z,2024-02-15T13:50:26.184000Z,,2024-02-15T13:50:27.086099Z,522.0,CVPIIDEI,2499,32,Female,White,United States,United States,United States,English,Yes,Part-Time,Not Applicable
610971ac8159690397a047c5,<b>Specific policies are often very important to me.,Highly disagree,93/94,Somewhat disagree,2,1708004974462,1708004979812,\Somewhat disagree\,\Somewhat disagree\,\2\,1708004979011,1708004979011,4549,4549,5350,buq,qns-item-noham,93,457153,0.0-1.0-0.92,65ce1492e8be14e55bc04ebd,AWAITING REVIEW,2024-02-15T13:41:44.249000Z,2024-02-15T13:50:26.184000Z,,2024-02-15T13:50:27.086099Z,522.0,CVPIIDEI,2499,32,Female,White,United States,United States,United States,English,Yes,Part-Time,Not Applicable
610971ac8159690397a047c5,<b>Most people are woefully under-informed.,Highly disagree,94/94,Highly agree,4,1708004979820,1708004982197,\Highly agree\,\Highly agree\,\4\,1708004981531,1708004981531,1711,1711,2377,buq,qns-item-noham,94,459538,0.0-1.0-0.93,65ce1492e8be14e55bc04ebd,AWAITING REVIEW,2024-02-15T13:41:44.249000Z,2024-02-15T13:50:26.184000Z,,2024-02-15T13:50:27.086099Z,522.0,CVPIIDEI,2499,32,Female,White,United States,United States,United States,English,Yes,Part-Time,Not Applicable
610971ac8159690397a047c5,,,,,,,,,,,,,,,,,,,,,65ce1492e8be14e55bc04ebd,AWAITING REVIEW,2024-02-15T13:41:44.249000Z,2024-02-15T13:50:26.184000Z,,2024-02-15T13:50:27.086099Z,522.0,CVPIIDEI,2499,32,Female,White,United States,United States,United States,English,Yes,Part-Time,Not Applicable
