PROLIFIC_PID,Question,qns_options,quest_num,answer,answer_num,question_load_timestamp,next_btn_timestamp,text_selected,final_text_selected,option_num_selected,preview_timestamps,final_text_selected_time_stamp,rt_first_option_click,rt_final_option_click,rt_submit_click,questionnaire,trial_type,trial_index,time_elapsed,internal_node_id,Demographic_Submission id,Demographic_Status,Demographic_Started at,Demographic_Completed at,Demographic_Reviewed at,Demographic_Archived at,Demographic_Time taken,Demographic_Completion code,Demographic_Total approvals,Demographic_Age,Demographic_Sex,Demographic_Ethnicity simplified,Demographic_Country of birth,Demographic_Country of residence,Demographic_Nationality,Demographic_Language,Demographic_Student status,Demographic_Employment status,Demographic_Custom study tncs accepted at
60ccbffae161aadb1880ad6c,<b>Knowing what?s true and knowing what to do about it are usually basically the same.,Highly disagree,1/94,Somewhat agree,3,1708003793577,1708003799527,\Somewhat agree\,\Somewhat agree\,\3\,1708003798216,1708003798216,4639,4639,5950,buq,qns-item-noham,1,9712,0.0-1.0-0.0,65ce117bfc16dcdd98a93de4,AWAITING REVIEW,2024-02-15T13:28:30.398000Z,2024-02-15T13:41:21.242000Z,,2024-02-15T13:41:21.704233Z,771.0,CVPIIDEI,5826,35,Female,White,United States,United States,United States,English,No,Full-Time,Not Applicable
60ccbffae161aadb1880ad6c,<b>Most people just believe whatever is convenient for them.,Highly disagree,2/94,Somewhat disagree,2,1708003799544,1708003801900,\Somewhat disagree\,\Somewhat disagree\,\2\,1708003801269,1708003801269,1725,1725,2356,buq,qns-item-noham,2,12085,0.0-1.0-0.1,65ce117bfc16dcdd98a93de4,AWAITING REVIEW,2024-02-15T13:28:30.398000Z,2024-02-15T13:41:21.242000Z,,2024-02-15T13:41:21.704233Z,771.0,CVPIIDEI,5826,35,Female,White,United States,United States,United States,English,No,Full-Time,Not Applicable
60ccbffae161aadb1880ad6c,<b>Having some big beliefs helps me sort out minor ones.,Highly disagree,3/94,Highly agree,4,1708003801904,1708003804283,\Highly agree\,\Highly agree\,\4\,1708003803725,1708003803725,1821,1821,2379,buq,qns-item-noham,3,14467,0.0-1.0-0.2,65ce117bfc16dcdd98a93de4,AWAITING REVIEW,2024-02-15T13:28:30.398000Z,2024-02-15T13:41:21.242000Z,,2024-02-15T13:41:21.704233Z,771.0,CVPIIDEI,5826,35,Female,White,United States,United States,United States,English,No,Full-Time,Not Applicable
60ccbffae161aadb1880ad6c,<b>Political questions are usually pretty complicated.,Highly disagree,4/94,Somewhat agree,3,1708003804286,1708003806955,\Somewhat agree\,\Somewhat agree\,\3\,1708003806411,1708003806411,2125,2125,2669,buq,qns-item-noham,4,17139,0.0-1.0-0.3,65ce117bfc16dcdd98a93de4,AWAITING REVIEW,2024-02-15T13:28:30.398000Z,2024-02-15T13:41:21.242000Z,,2024-02-15T13:41:21.704233Z,771.0,CVPIIDEI,5826,35,Female,White,United States,United States,United States,English,No,Full-Time,Not Applicable
60ccbffae161aadb1880ad6c,<b>Figuring out what?s important in life requires learning a lot of facts.,Highly disagree,5/94,Somewhat agree,3,1708003806957,1708003993769,\Somewhat agree\,\Somewhat agree\,\3\,1708003976657,1708003976657,169700,169700,186812,buq,qns-item-noham,5,203953,0.0-1.0-0.4,65ce117bfc16dcdd98a93de4,AWAITING REVIEW,2024-02-15T13:28:30.398000Z,2024-02-15T13:41:21.242000Z,,2024-02-15T13:41:21.704233Z,771.0,CVPIIDEI,5826,35,Female,White,United States,United States,United States,English,No,Full-Time,Not Applicable
60ccbffae161aadb1880ad6c,<b>It is difficult for me to remember the last time I was surprised by politics.,Highly disagree,6/94,Somewhat disagree,2,1708003993781,1708004004731,\Somewhat disagree\,\Somewhat disagree\,\2\,1708004003636,1708004003636,9855,9855,10950,buq,qns-item-noham,6,214915,0.0-1.0-0.5,65ce117bfc16dcdd98a93de4,AWAITING REVIEW,2024-02-15T13:28:30.398000Z,2024-02-15T13:41:21.242000Z,,2024-02-15T13:41:21.704233Z,771.0,CVPIIDEI,5826,35,Female,White,United States,United States,United States,English,No,Full-Time,Not Applicable
60ccbffae161aadb1880ad6c,<b>People?s false beliefs are understandable.,Highly disagree,7/94,Somewhat agree,3,1708004004739,1708004012834,\Somewhat agree\,\Somewhat agree\,\3\,1708004012033,1708004012033,7294,7294,8095,buq,qns-item-noham,7,223019,0.0-1.0-0.6,65ce117bfc16dcdd98a93de4,AWAITING REVIEW,2024-02-15T13:28:30.398000Z,2024-02-15T13:41:21.242000Z,,2024-02-15T13:41:21.704233Z,771.0,CVPIIDEI,5826,35,Female,White,United States,United States,United States,English,No,Full-Time,Not Applicable
60ccbffae161aadb1880ad6c,<b>I spend a lot of time trying to be informed about politics.,Highly disagree,8/94,Somewhat agree,3,1708004012837,1708004014696,\Somewhat agree\,\Somewhat agree\,\3\,1708004013618,1708004013618,781,781,1859,buq,qns-item-noham,8,224880,0.0-1.0-0.7,65ce117bfc16dcdd98a93de4,AWAITING REVIEW,2024-02-15T13:28:30.398000Z,2024-02-15T13:41:21.242000Z,,2024-02-15T13:41:21.704233Z,771.0,CVPIIDEI,5826,35,Female,White,United States,United States,United States,English,No,Full-Time,Not Applicable
60ccbffae161aadb1880ad6c,<b>I think a lot about whether my beliefs are right.,Highly disagree,9/94,Highly agree,4,1708004014701,1708004016502,\Highly agree\,\Highly agree\,\4\,1708004016023,1708004016023,1322,1322,1801,buq,qns-item-noham,9,226686,0.0-1.0-0.8,65ce117bfc16dcdd98a93de4,AWAITING REVIEW,2024-02-15T13:28:30.398000Z,2024-02-15T13:41:21.242000Z,,2024-02-15T13:41:21.704233Z,771.0,CVPIIDEI,5826,35,Female,White,United States,United States,United States,English,No,Full-Time,Not Applicable
60ccbffae161aadb1880ad6c,<b>Statistics can be pretty misleading sometimes.,Highly disagree,10/94,Somewhat agree,3,1708004016505,1708004020285,\Somewhat agree\,\Somewhat agree\,\3\,1708004019686,1708004019686,3181,3181,3780,buq,qns-item-noham,10,230469,0.0-1.0-0.9,65ce117bfc16dcdd98a93de4,AWAITING REVIEW,2024-02-15T13:28:30.398000Z,2024-02-15T13:41:21.242000Z,,2024-02-15T13:41:21.704233Z,771.0,CVPIIDEI,5826,35,Female,White,United States,United States,United States,English,No,Full-Time,Not Applicable
60ccbffae161aadb1880ad6c,<b>I have lots of beliefs that I?m only sort of sure about.,Highly disagree,11/94,Somewhat agree,3,1708004020287,1708004023027,\Somewhat agree\,\Somewhat agree\,\3\,1708004022548,1708004022548,2261,2261,2740,buq,qns-item-noham,11,233211,0.0-1.0-0.10,65ce117bfc16dcdd98a93de4,AWAITING REVIEW,2024-02-15T13:28:30.398000Z,2024-02-15T13:41:21.242000Z,,2024-02-15T13:41:21.704233Z,771.0,CVPIIDEI,5826,35,Female,White,United States,United States,United States,English,No,Full-Time,Not Applicable
60ccbffae161aadb1880ad6c,"<b>If I go to my favorite restaurant and the food is surprisingly bad, it reminds me there are many disappointments in life.",Highly disagree,12/94,Highly agree,4,1708004023029,1708004025611,\Highly agree\,\Highly agree\,\4\,1708004024730,1708004024730,1701,1701,2582,buq,qns-item-noham,12,235795,0.0-1.0-0.11,65ce117bfc16dcdd98a93de4,AWAITING REVIEW,2024-02-15T13:28:30.398000Z,2024-02-15T13:41:21.242000Z,,2024-02-15T13:41:21.704233Z,771.0,CVPIIDEI,5826,35,Female,White,United States,United States,United States,English,No,Full-Time,Not Applicable
60ccbffae161aadb1880ad6c,"<b>If you are paying attention, please select ?Somewhat agree?",Highly disagree,13/94,Somewhat agree,3,1708004025613,1708004027505,\Somewhat agree\,\Somewhat agree\,\3\,1708004027026,1708004027026,1413,1413,1892,buq,qns-item-noham,13,237689,0.0-1.0-0.12,65ce117bfc16dcdd98a93de4,AWAITING REVIEW,2024-02-15T13:28:30.398000Z,2024-02-15T13:41:21.242000Z,,2024-02-15T13:41:21.704233Z,771.0,CVPIIDEI,5826,35,Female,White,United States,United States,United States,English,No,Full-Time,Not Applicable
60ccbffae161aadb1880ad6c,"<b>When I talk to others, I often worry I?ll convince them of something I didn?t mean to.",Highly disagree,14/94,Highly disagree,1,1708004027507,1708004034366,\Somewhat agree\,\Highly disagree\,\3\,1708004031944,1708004033472,4437,5965,6859,buq,qns-item-noham,14,244550,0.0-1.0-0.13,65ce117bfc16dcdd98a93de4,AWAITING REVIEW,2024-02-15T13:28:30.398000Z,2024-02-15T13:41:21.242000Z,,2024-02-15T13:41:21.704233Z,771.0,CVPIIDEI,5826,35,Female,White,United States,United States,United States,English,No,Full-Time,Not Applicable
60ccbffae161aadb1880ad6c,<b>I would need to learn something utterly shocking about my party in order to change my political views.,Highly disagree,15/94,Somewhat agree,3,1708004034369,1708004037133,\Somewhat agree\,\Somewhat agree\,\3\,1708004036150,1708004036150,1781,1781,2764,buq,qns-item-noham,15,247318,0.0-1.0-0.14,65ce117bfc16dcdd98a93de4,AWAITING REVIEW,2024-02-15T13:28:30.398000Z,2024-02-15T13:41:21.242000Z,,2024-02-15T13:41:21.704233Z,771.0,CVPIIDEI,5826,35,Female,White,United States,United States,United States,English,No,Full-Time,Not Applicable
60ccbffae161aadb1880ad6c,"<b>When I have new experiences, I tend to think of them as unique.",Highly disagree,16/94,Somewhat agree,3,1708004037136,1708004039221,\Somewhat agree\,\Somewhat agree\,\3\,1708004038637,1708004038637,1501,1501,2085,buq,qns-item-noham,16,249405,0.0-1.0-0.15,65ce117bfc16dcdd98a93de4,AWAITING REVIEW,2024-02-15T13:28:30.398000Z,2024-02-15T13:41:21.242000Z,,2024-02-15T13:41:21.704233Z,771.0,CVPIIDEI,5826,35,Female,White,United States,United States,United States,English,No,Full-Time,Not Applicable
60ccbffae161aadb1880ad6c,<b>I change my mind about specific policies pretty frequently.,Highly disagree,17/94,Highly agree,4,1708004039223,1708004041308,\Highly agree\,\Highly agree\,\4\,1708004040772,1708004040772,1549,1549,2085,buq,qns-item-noham,17,251492,0.0-1.0-0.16,65ce117bfc16dcdd98a93de4,AWAITING REVIEW,2024-02-15T13:28:30.398000Z,2024-02-15T13:41:21.242000Z,,2024-02-15T13:41:21.704233Z,771.0,CVPIIDEI,5826,35,Female,White,United States,United States,United States,English,No,Full-Time,Not Applicable
60ccbffae161aadb1880ad6c,"<b>If a politician in my political party supports something I disagree with, I give them the benefit of the doubt, as such issues often involve hidden complexities that aren?t obvious.   ",Highly disagree,18/94,Somewhat agree,3,1708004041309,1708004045330,\Somewhat agree\,\Somewhat agree\,\3\,1708004042028,1708004042028,719,719,4021,buq,qns-item-noham,18,255514,0.0-1.0-0.17,65ce117bfc16dcdd98a93de4,AWAITING REVIEW,2024-02-15T13:28:30.398000Z,2024-02-15T13:41:21.242000Z,,2024-02-15T13:41:21.704233Z,771.0,CVPIIDEI,5826,35,Female,White,United States,United States,United States,English,No,Full-Time,Not Applicable
60ccbffae161aadb1880ad6c,<b>People?s bad politics are usually motivated by hatefulness.,Highly disagree,19/94,Somewhat agree,3,1708004045334,1708004048114,\Somewhat agree\,\Somewhat agree\,\3\,1708004046786,1708004046786,1452,1452,2780,buq,qns-item-noham,19,258298,0.0-1.0-0.18,65ce117bfc16dcdd98a93de4,AWAITING REVIEW,2024-02-15T13:28:30.398000Z,2024-02-15T13:41:21.242000Z,,2024-02-15T13:41:21.704233Z,771.0,CVPIIDEI,5826,35,Female,White,United States,United States,United States,English,No,Full-Time,Not Applicable
60ccbffae161aadb1880ad6c,<b>I think a lot about how to reconcile my beliefs with one another.,Highly disagree,20/94,Highly agree,4,1708004048118,1708004052654,\Highly agree\,\Highly agree\,\4\,1708004051768,1708004051768,3650,3650,4536,buq,qns-item-noham,20,262839,0.0-1.0-0.19,65ce117bfc16dcdd98a93de4,AWAITING REVIEW,2024-02-15T13:28:30.398000Z,2024-02-15T13:41:21.242000Z,,2024-02-15T13:41:21.704233Z,771.0,CVPIIDEI,5826,35,Female,White,United States,United States,United States,English,No,Full-Time,Not Applicable
60ccbffae161aadb1880ad6c,<b>I might have false beliefs about important topics.,Highly disagree,21/94,Somewhat agree,3,1708004052657,1708004056214,\Somewhat agree\,\Somewhat agree\,\3\,1708004055774,1708004055774,3117,3117,3557,buq,qns-item-noham,21,266398,0.0-1.0-0.20,65ce117bfc16dcdd98a93de4,AWAITING REVIEW,2024-02-15T13:28:30.398000Z,2024-02-15T13:41:21.242000Z,,2024-02-15T13:41:21.704233Z,771.0,CVPIIDEI,5826,35,Female,White,United States,United States,United States,English,No,Full-Time,Not Applicable
60ccbffae161aadb1880ad6c,"<b>If a good friend of mine does something unexpected that upsets me, I feel like I don?t know them anymore.",Highly disagree,22/94,Somewhat disagree,2,1708004056218,1708004060116,\Somewhat disagree\,\Somewhat disagree\,\2\,1708004059516,1708004059516,3298,3298,3898,buq,qns-item-noham,22,270300,0.0-1.0-0.21,65ce117bfc16dcdd98a93de4,AWAITING REVIEW,2024-02-15T13:28:30.398000Z,2024-02-15T13:41:21.242000Z,,2024-02-15T13:41:21.704233Z,771.0,CVPIIDEI,5826,35,Female,White,United States,United States,United States,English,No,Full-Time,Not Applicable
60ccbffae161aadb1880ad6c,<b>Other people?s beliefs are often incoherent.,Highly disagree,23/94,Somewhat disagree,2,1708004060119,1708004062194,\Somewhat disagree\,\Somewhat disagree\,\2\,1708004061707,1708004061707,1588,1588,2075,buq,qns-item-noham,23,272378,0.0-1.0-0.22,65ce117bfc16dcdd98a93de4,AWAITING REVIEW,2024-02-15T13:28:30.398000Z,2024-02-15T13:41:21.242000Z,,2024-02-15T13:41:21.704233Z,771.0,CVPIIDEI,5826,35,Female,White,United States,United States,United States,English,No,Full-Time,Not Applicable
60ccbffae161aadb1880ad6c,"<b>Every now and then, a new experience will unsettle beliefs I?ve had for a while.",Highly disagree,24/94,Somewhat agree,3,1708004062196,1708004064169,\Somewhat agree\,\Somewhat agree\,\3\,1708004063514,1708004063514,1318,1318,1973,buq,qns-item-noham,24,274353,0.0-1.0-0.23,65ce117bfc16dcdd98a93de4,AWAITING REVIEW,2024-02-15T13:28:30.398000Z,2024-02-15T13:41:21.242000Z,,2024-02-15T13:41:21.704233Z,771.0,CVPIIDEI,5826,35,Female,White,United States,United States,United States,English,No,Full-Time,Not Applicable
60ccbffae161aadb1880ad6c,<b>Some policies I agree with in principle are so bad I don?t support them. ,Highly disagree,25/94,Somewhat disagree,2,1708004064172,1708004067481,\Somewhat disagree\,\Somewhat disagree\,\2\,1708004066841,1708004066841,2669,2669,3309,buq,qns-item-noham,25,277665,0.0-1.0-0.24,65ce117bfc16dcdd98a93de4,AWAITING REVIEW,2024-02-15T13:28:30.398000Z,2024-02-15T13:41:21.242000Z,,2024-02-15T13:41:21.704233Z,771.0,CVPIIDEI,5826,35,Female,White,United States,United States,United States,English,No,Full-Time,Not Applicable
60ccbffae161aadb1880ad6c,<b>I?m pretty sure I?ve accidentally spread false information.,Highly disagree,26/94,Somewhat agree,3,1708004067483,1708004070529,\Somewhat agree\,\Somewhat agree\,\3\,1708004069272,1708004069272,1789,1789,3046,buq,qns-item-noham,26,280713,0.0-1.0-0.25,65ce117bfc16dcdd98a93de4,AWAITING REVIEW,2024-02-15T13:28:30.398000Z,2024-02-15T13:41:21.242000Z,,2024-02-15T13:41:21.704233Z,771.0,CVPIIDEI,5826,35,Female,White,United States,United States,United States,English,No,Full-Time,Not Applicable
60ccbffae161aadb1880ad6c,"<b>If I go to my favorite restaurant and the food is unexpectedly bad, then they have changed owners.",Highly disagree,27/94,Highly agree,4,1708004070532,1708004074350,\Highly agree\,\Highly agree\,\4\,1708004073806,1708004073806,3274,3274,3818,buq,qns-item-noham,27,284534,0.0-1.0-0.26,65ce117bfc16dcdd98a93de4,AWAITING REVIEW,2024-02-15T13:28:30.398000Z,2024-02-15T13:41:21.242000Z,,2024-02-15T13:41:21.704233Z,771.0,CVPIIDEI,5826,35,Female,White,United States,United States,United States,English,No,Full-Time,Not Applicable
60ccbffae161aadb1880ad6c,"<b>In politics, it?s important to trust your friends and family.",Highly disagree,28/94,Somewhat agree,3,1708004074353,1708004075924,\Somewhat agree\,\Somewhat agree\,\3\,1708004075358,1708004075358,1005,1005,1571,buq,qns-item-noham,28,286108,0.0-1.0-0.27,65ce117bfc16dcdd98a93de4,AWAITING REVIEW,2024-02-15T13:28:30.398000Z,2024-02-15T13:41:21.242000Z,,2024-02-15T13:41:21.704233Z,771.0,CVPIIDEI,5826,35,Female,White,United States,United States,United States,English,No,Full-Time,Not Applicable
60ccbffae161aadb1880ad6c,<b>It?s OK to have some conflicting beliefs.,Highly disagree,29/94,Somewhat agree,3,1708004075926,1708004077571,\Somewhat agree\,\Somewhat agree\,\3\,1708004077020,1708004077020,1094,1094,1645,buq,qns-item-noham,29,287755,0.0-1.0-0.28,65ce117bfc16dcdd98a93de4,AWAITING REVIEW,2024-02-15T13:28:30.398000Z,2024-02-15T13:41:21.242000Z,,2024-02-15T13:41:21.704233Z,771.0,CVPIIDEI,5826,35,Female,White,United States,United States,United States,English,No,Full-Time,Not Applicable
60ccbffae161aadb1880ad6c,<b>Listening to people I disagree with makes my opinions better.,Highly disagree,30/94,Somewhat disagree,2,1708004077574,1708004080226,\Somewhat disagree\,\Somewhat disagree\,\2\,1708004079603,1708004079603,2029,2029,2652,buq,qns-item-noham,30,290410,0.0-1.0-0.29,65ce117bfc16dcdd98a93de4,AWAITING REVIEW,2024-02-15T13:28:30.398000Z,2024-02-15T13:41:21.242000Z,,2024-02-15T13:41:21.704233Z,771.0,CVPIIDEI,5826,35,Female,White,United States,United States,United States,English,No,Full-Time,Not Applicable
60ccbffae161aadb1880ad6c,<b>My moral compass sometimes makes it harder to determine what?s true.,Highly disagree,31/94,Somewhat agree,3,1708004080228,1708004089303,\Somewhat agree\,\Somewhat agree\,\3\,1708004088607,1708004088607,8379,8379,9075,buq,qns-item-noham,31,299487,0.0-1.0-0.30,65ce117bfc16dcdd98a93de4,AWAITING REVIEW,2024-02-15T13:28:30.398000Z,2024-02-15T13:41:21.242000Z,,2024-02-15T13:41:21.704233Z,771.0,CVPIIDEI,5826,35,Female,White,United States,United States,United States,English,No,Full-Time,Not Applicable
60ccbffae161aadb1880ad6c,<b>Evidence pointing in the wrong direction isn?t really evidence at all.,Highly disagree,32/94,Highly agree,4,1708004089305,1708004094029,\Highly agree\,\Highly agree\,\4\,1708004093430,1708004093430,4125,4125,4724,buq,qns-item-noham,32,304213,0.0-1.0-0.31,65ce117bfc16dcdd98a93de4,AWAITING REVIEW,2024-02-15T13:28:30.398000Z,2024-02-15T13:41:21.242000Z,,2024-02-15T13:41:21.704233Z,771.0,CVPIIDEI,5826,35,Female,White,United States,United States,United States,English,No,Full-Time,Not Applicable
60ccbffae161aadb1880ad6c,"<b>If the political party I support messes up, it makes me think politics is rotten.",Highly disagree,33/94,Somewhat disagree,2,1708004094031,1708004096948,\Somewhat agree\,\Somewhat disagree\,\3\,1708004094869,1708004096460,838,2429,2917,buq,qns-item-noham,33,307132,0.0-1.0-0.32,65ce117bfc16dcdd98a93de4,AWAITING REVIEW,2024-02-15T13:28:30.398000Z,2024-02-15T13:41:21.242000Z,,2024-02-15T13:41:21.704233Z,771.0,CVPIIDEI,5826,35,Female,White,United States,United States,United States,English,No,Full-Time,Not Applicable
60ccbffae161aadb1880ad6c,<b>Lots of important topics can only really be understood by some groups of people.,Highly disagree,34/94,Somewhat agree,3,1708004096952,1708004097954,\Somewhat agree\,\Somewhat agree\,\3\,1708004097492,1708004097492,540,540,1002,buq,qns-item-noham,34,308139,0.0-1.0-0.33,65ce117bfc16dcdd98a93de4,AWAITING REVIEW,2024-02-15T13:28:30.398000Z,2024-02-15T13:41:21.242000Z,,2024-02-15T13:41:21.704233Z,771.0,CVPIIDEI,5826,35,Female,White,United States,United States,United States,English,No,Full-Time,Not Applicable
60ccbffae161aadb1880ad6c,<b>Having conflicting beliefs means you haven?t thought about them enough.,Highly disagree,35/94,Highly disagree,1,1708004097956,1708004122928,\Somewhat agree\,\Highly disagree\,\3\,1708004119297,1708004122097,21341,24141,24972,buq,qns-item-noham,35,333112,0.0-1.0-0.34,65ce117bfc16dcdd98a93de4,AWAITING REVIEW,2024-02-15T13:28:30.398000Z,2024-02-15T13:41:21.242000Z,,2024-02-15T13:41:21.704233Z,771.0,CVPIIDEI,5826,35,Female,White,United States,United States,United States,English,No,Full-Time,Not Applicable
60ccbffae161aadb1880ad6c,<b>I do not often change my political opinions.,Highly disagree,36/94,Somewhat disagree,2,1708004122932,1708004124886,\Somewhat disagree\,\Somewhat disagree\,\2\,1708004124423,1708004124423,1491,1491,1954,buq,qns-item-noham,36,335070,0.0-1.0-0.35,65ce117bfc16dcdd98a93de4,AWAITING REVIEW,2024-02-15T13:28:30.398000Z,2024-02-15T13:41:21.242000Z,,2024-02-15T13:41:21.704233Z,771.0,CVPIIDEI,5826,35,Female,White,United States,United States,United States,English,No,Full-Time,Not Applicable
60ccbffae161aadb1880ad6c,<b>It?s difficult to not have at least some conflicting beliefs.,Highly disagree,37/94,Somewhat disagree,2,1708004124889,1708004127574,\Somewhat disagree\,\Somewhat disagree\,\2\,1708004127126,1708004127126,2237,2237,2685,buq,qns-item-noham,37,337758,0.0-1.0-0.36,65ce117bfc16dcdd98a93de4,AWAITING REVIEW,2024-02-15T13:28:30.398000Z,2024-02-15T13:41:21.242000Z,,2024-02-15T13:41:21.704233Z,771.0,CVPIIDEI,5826,35,Female,White,United States,United States,United States,English,No,Full-Time,Not Applicable
60ccbffae161aadb1880ad6c,<b>Wishful thinking causes a lot of problems.,Highly disagree,38/94,Somewhat agree,3,1708004127577,1708004129358,\Somewhat agree\,\Somewhat agree\,\3\,1708004128750,1708004128750,1173,1173,1781,buq,qns-item-noham,38,339542,0.0-1.0-0.37,65ce117bfc16dcdd98a93de4,AWAITING REVIEW,2024-02-15T13:28:30.398000Z,2024-02-15T13:41:21.242000Z,,2024-02-15T13:41:21.704233Z,771.0,CVPIIDEI,5826,35,Female,White,United States,United States,United States,English,No,Full-Time,Not Applicable
60ccbffae161aadb1880ad6c,<b>I judge a food item only once I try it many times.,Highly disagree,39/94,Highly agree,4,1708004129360,1708004131652,\Highly agree\,\Highly agree\,\4\,1708004130845,1708004130845,1485,1485,2292,buq,qns-item-noham,39,341836,0.0-1.0-0.38,65ce117bfc16dcdd98a93de4,AWAITING REVIEW,2024-02-15T13:28:30.398000Z,2024-02-15T13:41:21.242000Z,,2024-02-15T13:41:21.704233Z,771.0,CVPIIDEI,5826,35,Female,White,United States,United States,United States,English,No,Full-Time,Not Applicable
60ccbffae161aadb1880ad6c,"<b>When a person holds conflicting beliefs, they should really try to figure out what?s wrong.",Highly disagree,40/94,Somewhat agree,3,1708004131656,1708004134170,\Somewhat agree\,\Somewhat agree\,\3\,1708004133532,1708004133532,1876,1876,2514,buq,qns-item-noham,40,344354,0.0-1.0-0.39,65ce117bfc16dcdd98a93de4,AWAITING REVIEW,2024-02-15T13:28:30.398000Z,2024-02-15T13:41:21.242000Z,,2024-02-15T13:41:21.704233Z,771.0,CVPIIDEI,5826,35,Female,White,United States,United States,United States,English,No,Full-Time,Not Applicable
60ccbffae161aadb1880ad6c,<b>Knowing what?s important in life is easy.,Highly disagree,41/94,Somewhat agree,3,1708004134172,1708004135938,\Somewhat agree\,\Somewhat agree\,\3\,1708004135339,1708004135339,1167,1167,1766,buq,qns-item-noham,41,346122,0.0-1.0-0.40,65ce117bfc16dcdd98a93de4,AWAITING REVIEW,2024-02-15T13:28:30.398000Z,2024-02-15T13:41:21.242000Z,,2024-02-15T13:41:21.704233Z,771.0,CVPIIDEI,5826,35,Female,White,United States,United States,United States,English,No,Full-Time,Not Applicable
60ccbffae161aadb1880ad6c,<b>I swim across the Atlantic Ocean to get to work every day.,Highly disagree,42/94,Highly disagree,1,1708004135940,1708004138185,\Highly disagree\,\Highly disagree\,\1\,1708004137402,1708004137402,1462,1462,2245,buq,qns-item-noham,42,348369,0.0-1.0-0.41,65ce117bfc16dcdd98a93de4,AWAITING REVIEW,2024-02-15T13:28:30.398000Z,2024-02-15T13:41:21.242000Z,,2024-02-15T13:41:21.704233Z,771.0,CVPIIDEI,5826,35,Female,White,United States,United States,United States,English,No,Full-Time,Not Applicable
60ccbffae161aadb1880ad6c,"<b>Sometimes, you just have to ignore evidence that you know is wrong.",Highly disagree,43/94,Somewhat agree,3,1708004138187,1708004141432,\Somewhat agree\,\Somewhat agree\,\3\,1708004140817,1708004140817,2630,2630,3245,buq,qns-item-noham,43,351616,0.0-1.0-0.42,65ce117bfc16dcdd98a93de4,AWAITING REVIEW,2024-02-15T13:28:30.398000Z,2024-02-15T13:41:21.242000Z,,2024-02-15T13:41:21.704233Z,771.0,CVPIIDEI,5826,35,Female,White,United States,United States,United States,English,No,Full-Time,Not Applicable
60ccbffae161aadb1880ad6c,<b>I have had some false beliefs.,Highly disagree,44/94,Highly agree,4,1708004141434,1708004143727,\Highly agree\,\Highly agree\,\4\,1708004143231,1708004143231,1797,1797,2293,buq,qns-item-noham,44,353911,0.0-1.0-0.43,65ce117bfc16dcdd98a93de4,AWAITING REVIEW,2024-02-15T13:28:30.398000Z,2024-02-15T13:41:21.242000Z,,2024-02-15T13:41:21.704233Z,771.0,CVPIIDEI,5826,35,Female,White,United States,United States,United States,English,No,Full-Time,Not Applicable
60ccbffae161aadb1880ad6c,"<b>If one friend does something that upsets me, I sometimes start to distrust people in general.",Highly disagree,45/94,Somewhat disagree,2,1708004143729,1708004146310,\Somewhat agree\,\Somewhat disagree\,\3\,1708004144903,1708004145694,1174,1965,2581,buq,qns-item-noham,45,356494,0.0-1.0-0.44,65ce117bfc16dcdd98a93de4,AWAITING REVIEW,2024-02-15T13:28:30.398000Z,2024-02-15T13:41:21.242000Z,,2024-02-15T13:41:21.704233Z,771.0,CVPIIDEI,5826,35,Female,White,United States,United States,United States,English,No,Full-Time,Not Applicable
60ccbffae161aadb1880ad6c,<b>The facts about most important matters are easy to find.,Highly disagree,46/94,Somewhat agree,3,1708004146314,1708004149798,\Somewhat agree\,\Somewhat agree\,\3\,1708004147997,1708004147997,1683,1683,3484,buq,qns-item-noham,46,359982,0.0-1.0-0.45,65ce117bfc16dcdd98a93de4,AWAITING REVIEW,2024-02-15T13:28:30.398000Z,2024-02-15T13:41:21.242000Z,,2024-02-15T13:41:21.704233Z,771.0,CVPIIDEI,5826,35,Female,White,United States,United States,United States,English,No,Full-Time,Not Applicable
60ccbffae161aadb1880ad6c,<b>It?s better to know what?s true than to know what?s moral.,Highly disagree,47/94,Highly agree,4,1708004149802,1708004151876,\Highly agree\,\Highly agree\,\4\,1708004151363,1708004151363,1561,1561,2074,buq,qns-item-noham,47,362060,0.0-1.0-0.46,65ce117bfc16dcdd98a93de4,AWAITING REVIEW,2024-02-15T13:28:30.398000Z,2024-02-15T13:41:21.242000Z,,2024-02-15T13:41:21.704233Z,771.0,CVPIIDEI,5826,35,Female,White,United States,United States,United States,English,No,Full-Time,Not Applicable
60ccbffae161aadb1880ad6c,<b>I used to think the world was less complicated than I do now.,Highly disagree,48/94,Highly agree,4,1708004151879,1708004159455,\Somewhat disagree\,\Highly agree\,\2\,1708004154035,1708004158360,2156,6481,7576,buq,qns-item-noham,48,369640,0.0-1.0-0.47,65ce117bfc16dcdd98a93de4,AWAITING REVIEW,2024-02-15T13:28:30.398000Z,2024-02-15T13:41:21.242000Z,,2024-02-15T13:41:21.704233Z,771.0,CVPIIDEI,5826,35,Female,White,United States,United States,United States,English,No,Full-Time,Not Applicable
60ccbffae161aadb1880ad6c,<b>People are usually completely right or completely wrong.,Highly disagree,49/94,Somewhat disagree,2,1708004159458,1708004162119,\Somewhat agree\,\Somewhat disagree\,\3\,1708004160248,1708004161695,790,2237,2661,buq,qns-item-noham,49,372303,0.0-1.0-0.48,65ce117bfc16dcdd98a93de4,AWAITING REVIEW,2024-02-15T13:28:30.398000Z,2024-02-15T13:41:21.242000Z,,2024-02-15T13:41:21.704233Z,771.0,CVPIIDEI,5826,35,Female,White,United States,United States,United States,English,No,Full-Time,Not Applicable
60ccbffae161aadb1880ad6c,<b>I spend a lot of time considering alternatives to my beliefs.,Highly disagree,50/94,Somewhat agree,3,1708004162123,1708004168676,\Somewhat agree\,\Somewhat agree\,\3\,1708004167853,1708004167853,5730,5730,6553,buq,qns-item-noham,50,378860,0.0-1.0-0.49,65ce117bfc16dcdd98a93de4,AWAITING REVIEW,2024-02-15T13:28:30.398000Z,2024-02-15T13:41:21.242000Z,,2024-02-15T13:41:21.704233Z,771.0,CVPIIDEI,5826,35,Female,White,United States,United States,United States,English,No,Full-Time,Not Applicable
60ccbffae161aadb1880ad6c,"<b>Political enemies need to be defeated, not convinced.",Highly disagree,51/94,Somewhat disagree,2,1708004168678,1708004174115,\Highly agree\,\Somewhat disagree\,\4\,1708004172307,1708004173322,3629,4644,5437,buq,qns-item-noham,51,384299,0.0-1.0-0.50,65ce117bfc16dcdd98a93de4,AWAITING REVIEW,2024-02-15T13:28:30.398000Z,2024-02-15T13:41:21.242000Z,,2024-02-15T13:41:21.704233Z,771.0,CVPIIDEI,5826,35,Female,White,United States,United States,United States,English,No,Full-Time,Not Applicable
60ccbffae161aadb1880ad6c,<b>I form my political views only after meticulously gathering historical and present information about their policies.,Highly disagree,52/94,Somewhat agree,3,1708004174118,1708004176906,\Somewhat agree\,\Somewhat agree\,\3\,1708004175505,1708004175505,1387,1387,2788,buq,qns-item-noham,52,387090,0.0-1.0-0.51,65ce117bfc16dcdd98a93de4,AWAITING REVIEW,2024-02-15T13:28:30.398000Z,2024-02-15T13:41:21.242000Z,,2024-02-15T13:41:21.704233Z,771.0,CVPIIDEI,5826,35,Female,White,United States,United States,United States,English,No,Full-Time,Not Applicable
60ccbffae161aadb1880ad6c,<b>It is difficult for me to remember the last time I was surprised by politics.,Highly disagree,53/94,Somewhat disagree,2,1708004176909,1708004180759,\Somewhat agree\,\Somewhat disagree\,\3\,1708004177896,1708004180087,987,3178,3850,buq,qns-item-noham,53,390943,0.0-1.0-0.52,65ce117bfc16dcdd98a93de4,AWAITING REVIEW,2024-02-15T13:28:30.398000Z,2024-02-15T13:41:21.242000Z,,2024-02-15T13:41:21.704233Z,771.0,CVPIIDEI,5826,35,Female,White,United States,United States,United States,English,No,Full-Time,Not Applicable
60ccbffae161aadb1880ad6c,"<b>When I find out I?m wrong, I think a lot about my related beliefs.",Highly disagree,54/94,Somewhat agree,3,1708004180763,1708004182926,\Somewhat agree\,\Somewhat agree\,\3\,1708004182102,1708004182102,1339,1339,2163,buq,qns-item-noham,54,393110,0.0-1.0-0.53,65ce117bfc16dcdd98a93de4,AWAITING REVIEW,2024-02-15T13:28:30.398000Z,2024-02-15T13:41:21.242000Z,,2024-02-15T13:41:21.704233Z,771.0,CVPIIDEI,5826,35,Female,White,United States,United States,United States,English,No,Full-Time,Not Applicable
60ccbffae161aadb1880ad6c,"<b>If the political party I support messes up, it makes me think you can?t trust anyone these days",Highly disagree,55/94,Somewhat disagree,2,1708004182928,1708004186444,\Highly agree\,\Somewhat disagree\,\4\,1708004183902,1708004186029,974,3101,3516,buq,qns-item-noham,55,396628,0.0-1.0-0.54,65ce117bfc16dcdd98a93de4,AWAITING REVIEW,2024-02-15T13:28:30.398000Z,2024-02-15T13:41:21.242000Z,,2024-02-15T13:41:21.704233Z,771.0,CVPIIDEI,5826,35,Female,White,United States,United States,United States,English,No,Full-Time,Not Applicable
60ccbffae161aadb1880ad6c,<b>People?s brains turn off when they talk about politics.,Highly disagree,56/94,Highly disagree,1,1708004186448,1708004189459,\Somewhat agree\,\Highly disagree\,\3\,1708004187508,1708004188852,1060,2404,3011,buq,qns-item-noham,56,399643,0.0-1.0-0.55,65ce117bfc16dcdd98a93de4,AWAITING REVIEW,2024-02-15T13:28:30.398000Z,2024-02-15T13:41:21.242000Z,,2024-02-15T13:41:21.704233Z,771.0,CVPIIDEI,5826,35,Female,White,United States,United States,United States,English,No,Full-Time,Not Applicable
60ccbffae161aadb1880ad6c,<b>People who are wrong are usually just ignoring the obvious.,Highly disagree,57/94,Somewhat agree,3,1708004189463,1708004190969,\Somewhat agree\,\Somewhat agree\,\3\,1708004190099,1708004190099,636,636,1506,buq,qns-item-noham,57,401153,0.0-1.0-0.56,65ce117bfc16dcdd98a93de4,AWAITING REVIEW,2024-02-15T13:28:30.398000Z,2024-02-15T13:41:21.242000Z,,2024-02-15T13:41:21.704233Z,771.0,CVPIIDEI,5826,35,Female,White,United States,United States,United States,English,No,Full-Time,Not Applicable
60ccbffae161aadb1880ad6c,"<b>When forming my views on people, I rely more on what they are like now rather than rely on my past experience with them.",Highly disagree,58/94,Somewhat agree,3,1708004190971,1708004193601,\Somewhat agree\,\Somewhat agree\,\3\,1708004193082,1708004193082,2111,2111,2630,buq,qns-item-noham,58,403785,0.0-1.0-0.57,65ce117bfc16dcdd98a93de4,AWAITING REVIEW,2024-02-15T13:28:30.398000Z,2024-02-15T13:41:21.242000Z,,2024-02-15T13:41:21.704233Z,771.0,CVPIIDEI,5826,35,Female,White,United States,United States,United States,English,No,Full-Time,Not Applicable
60ccbffae161aadb1880ad6c,"<b>When people contradict my beliefs, I usually know about their evidence already.",Highly disagree,59/94,Highly agree,4,1708004193605,1708004195776,\Highly agree\,\Highly agree\,\4\,1708004195289,1708004195289,1684,1684,2171,buq,qns-item-noham,59,405960,0.0-1.0-0.58,65ce117bfc16dcdd98a93de4,AWAITING REVIEW,2024-02-15T13:28:30.398000Z,2024-02-15T13:41:21.242000Z,,2024-02-15T13:41:21.704233Z,771.0,CVPIIDEI,5826,35,Female,White,United States,United States,United States,English,No,Full-Time,Not Applicable
60ccbffae161aadb1880ad6c,<b>Figuring out what?s true and what?s false mainly requires a strong moral compass.,Highly disagree,60/94,Somewhat agree,3,1708004195778,1708004197447,\Somewhat agree\,\Somewhat agree\,\3\,1708004196514,1708004196514,736,736,1669,buq,qns-item-noham,60,407632,0.0-1.0-0.59,65ce117bfc16dcdd98a93de4,AWAITING REVIEW,2024-02-15T13:28:30.398000Z,2024-02-15T13:41:21.242000Z,,2024-02-15T13:41:21.704233Z,771.0,CVPIIDEI,5826,35,Female,White,United States,United States,United States,English,No,Full-Time,Not Applicable
60ccbffae161aadb1880ad6c,"<b>Usually I?m wrong about simple things, not complicated ones.",Highly disagree,61/94,Somewhat disagree,2,1708004197450,1708004199279,\Somewhat disagree\,\Somewhat disagree\,\2\,1708004198799,1708004198799,1349,1349,1829,buq,qns-item-noham,61,409463,0.0-1.0-0.60,65ce117bfc16dcdd98a93de4,AWAITING REVIEW,2024-02-15T13:28:30.398000Z,2024-02-15T13:41:21.242000Z,,2024-02-15T13:41:21.704233Z,771.0,CVPIIDEI,5826,35,Female,White,United States,United States,United States,English,No,Full-Time,Not Applicable
60ccbffae161aadb1880ad6c,<b>Getting all the information I want about important things is hard.,Highly disagree,62/94,Somewhat agree,3,1708004199281,1708004200717,\Somewhat agree\,\Somewhat agree\,\3\,1708004200126,1708004200126,845,845,1436,buq,qns-item-noham,62,410902,0.0-1.0-0.61,65ce117bfc16dcdd98a93de4,AWAITING REVIEW,2024-02-15T13:28:30.398000Z,2024-02-15T13:41:21.242000Z,,2024-02-15T13:41:21.704233Z,771.0,CVPIIDEI,5826,35,Female,White,United States,United States,United States,English,No,Full-Time,Not Applicable
60ccbffae161aadb1880ad6c,<b>Most false beliefs spread because people try to deceive one another.,Highly disagree,63/94,Somewhat disagree,2,1708004200720,1708004202877,\Somewhat disagree\,\Somewhat disagree\,\2\,1708004201918,1708004201918,1198,1198,2157,buq,qns-item-noham,63,413061,0.0-1.0-0.62,65ce117bfc16dcdd98a93de4,AWAITING REVIEW,2024-02-15T13:28:30.398000Z,2024-02-15T13:41:21.242000Z,,2024-02-15T13:41:21.704233Z,771.0,CVPIIDEI,5826,35,Female,White,United States,United States,United States,English,No,Full-Time,Not Applicable
60ccbffae161aadb1880ad6c,<b>I can usually find something to agree with in most people?s beliefs.,Highly disagree,64/94,Somewhat agree,3,1708004202879,1708004206060,\Somewhat agree\,\Somewhat agree\,\3\,1708004203733,1708004203733,854,854,3181,buq,qns-item-noham,64,416244,0.0-1.0-0.63,65ce117bfc16dcdd98a93de4,AWAITING REVIEW,2024-02-15T13:28:30.398000Z,2024-02-15T13:41:21.242000Z,,2024-02-15T13:41:21.704233Z,771.0,CVPIIDEI,5826,35,Female,White,United States,United States,United States,English,No,Full-Time,Not Applicable
60ccbffae161aadb1880ad6c,<b>I only form my views of people once I get to know them very well.,Highly disagree,65/94,Somewhat disagree,2,1708004206064,1708004273070,\Somewhat disagree\,\Somewhat disagree\,\2\,1708004224076,1708004224076,18012,18012,67006,buq,qns-item-noham,65,483254,0.0-1.0-0.64,65ce117bfc16dcdd98a93de4,AWAITING REVIEW,2024-02-15T13:28:30.398000Z,2024-02-15T13:41:21.242000Z,,2024-02-15T13:41:21.704233Z,771.0,CVPIIDEI,5826,35,Female,White,United States,United States,United States,English,No,Full-Time,Not Applicable
60ccbffae161aadb1880ad6c,"<b>When people tell me important things about the world, I usually believe them.",Highly disagree,66/94,Somewhat agree,3,1708004273074,1708004277452,\Somewhat agree\,\Somewhat agree\,\3\,1708004276253,1708004276253,3179,3179,4378,buq,qns-item-noham,66,487636,0.0-1.0-0.65,65ce117bfc16dcdd98a93de4,AWAITING REVIEW,2024-02-15T13:28:30.398000Z,2024-02-15T13:41:21.242000Z,,2024-02-15T13:41:21.704233Z,771.0,CVPIIDEI,5826,35,Female,White,United States,United States,United States,English,No,Full-Time,Not Applicable
60ccbffae161aadb1880ad6c,"<b>If a friend does something that upsets me, it reminds me what an unpredictable place the world is.",Highly disagree,67/94,Somewhat agree,3,1708004277455,1708004285977,\Somewhat agree\,\Somewhat agree\,\3\,1708004282059,1708004282059,4604,4604,8522,buq,qns-item-noham,67,496162,0.0-1.0-0.66,65ce117bfc16dcdd98a93de4,AWAITING REVIEW,2024-02-15T13:28:30.398000Z,2024-02-15T13:41:21.242000Z,,2024-02-15T13:41:21.704233Z,771.0,CVPIIDEI,5826,35,Female,White,United States,United States,United States,English,No,Full-Time,Not Applicable
60ccbffae161aadb1880ad6c,<b>People tend to believe whatever is good for their friends.,Highly disagree,68/94,Highly disagree,1,1708004285981,1708004289007,\Highly disagree\,\Highly disagree\,\1\,1708004288312,1708004288312,2331,2331,3026,buq,qns-item-noham,68,499191,0.0-1.0-0.67,65ce117bfc16dcdd98a93de4,AWAITING REVIEW,2024-02-15T13:28:30.398000Z,2024-02-15T13:41:21.242000Z,,2024-02-15T13:41:21.704233Z,771.0,CVPIIDEI,5826,35,Female,White,United States,United States,United States,English,No,Full-Time,Not Applicable
60ccbffae161aadb1880ad6c,<b>I used to be more certain my beliefs were true.,Highly disagree,69/94,Somewhat disagree,2,1708004289009,1708004290366,\Somewhat disagree\,\Somewhat disagree\,\2\,1708004289767,1708004289767,758,758,1357,buq,qns-item-noham,69,500550,0.0-1.0-0.68,65ce117bfc16dcdd98a93de4,AWAITING REVIEW,2024-02-15T13:28:30.398000Z,2024-02-15T13:41:21.242000Z,,2024-02-15T13:41:21.704233Z,771.0,CVPIIDEI,5826,35,Female,White,United States,United States,United States,English,No,Full-Time,Not Applicable
60ccbffae161aadb1880ad6c,<b>It?s often pretty easy to figure out whether something is true based on who said it.,Highly disagree,70/94,Somewhat agree,3,1708004290369,1708004291790,\Somewhat agree\,\Somewhat agree\,\3\,1708004290959,1708004290959,590,590,1421,buq,qns-item-noham,70,501974,0.0-1.0-0.69,65ce117bfc16dcdd98a93de4,AWAITING REVIEW,2024-02-15T13:28:30.398000Z,2024-02-15T13:41:21.242000Z,,2024-02-15T13:41:21.704233Z,771.0,CVPIIDEI,5826,35,Female,White,United States,United States,United States,English,No,Full-Time,Not Applicable
60ccbffae161aadb1880ad6c,<b>I transform into a hummingbird every day.,Highly disagree,71/94,Highly disagree,1,1708004291792,1708004293884,\Highly disagree\,\Highly disagree\,\1\,1708004293230,1708004293230,1438,1438,2092,buq,qns-item-noham,71,504068,0.0-1.0-0.70,65ce117bfc16dcdd98a93de4,AWAITING REVIEW,2024-02-15T13:28:30.398000Z,2024-02-15T13:41:21.242000Z,,2024-02-15T13:41:21.704233Z,771.0,CVPIIDEI,5826,35,Female,White,United States,United States,United States,English,No,Full-Time,Not Applicable
60ccbffae161aadb1880ad6c,<b>I think a lot about arguments against my views.,Highly disagree,72/94,Somewhat disagree,2,1708004293886,1708004301474,\Somewhat disagree\,\Somewhat disagree\,\2\,1708004295580,1708004295580,1694,1694,7588,buq,qns-item-noham,72,511658,0.0-1.0-0.71,65ce117bfc16dcdd98a93de4,AWAITING REVIEW,2024-02-15T13:28:30.398000Z,2024-02-15T13:41:21.242000Z,,2024-02-15T13:41:21.704233Z,771.0,CVPIIDEI,5826,35,Female,White,United States,United States,United States,English,No,Full-Time,Not Applicable
60ccbffae161aadb1880ad6c,<b>Personal experience is usually more important than facts and figures.,Highly disagree,73/94,Somewhat agree,3,1708004301478,1708004304265,\Somewhat agree\,\Somewhat agree\,\3\,1708004302665,1708004302665,1187,1187,2787,buq,qns-item-noham,73,514450,0.0-1.0-0.72,65ce117bfc16dcdd98a93de4,AWAITING REVIEW,2024-02-15T13:28:30.398000Z,2024-02-15T13:41:21.242000Z,,2024-02-15T13:41:21.704233Z,771.0,CVPIIDEI,5826,35,Female,White,United States,United States,United States,English,No,Full-Time,Not Applicable
60ccbffae161aadb1880ad6c,<b>I?ve been tricked before about important matters.,Highly disagree,74/94,Somewhat agree,3,1708004304269,1708004315708,\Somewhat agree\,\Somewhat agree\,\3\,1708004314940,1708004314940,10671,10671,11439,buq,qns-item-noham,74,525892,0.0-1.0-0.73,65ce117bfc16dcdd98a93de4,AWAITING REVIEW,2024-02-15T13:28:30.398000Z,2024-02-15T13:41:21.242000Z,,2024-02-15T13:41:21.704233Z,771.0,CVPIIDEI,5826,35,Female,White,United States,United States,United States,English,No,Full-Time,Not Applicable
60ccbffae161aadb1880ad6c,<b>I would need to be totally wowed if I were to change my opinion of a restaurant I don?t like.,Highly disagree,75/94,Somewhat disagree,2,1708004315710,1708004322305,\Highly agree\,\Somewhat disagree\,\4\,1708004318411,1708004321713,2701,6003,6595,buq,qns-item-noham,75,532489,0.0-1.0-0.74,65ce117bfc16dcdd98a93de4,AWAITING REVIEW,2024-02-15T13:28:30.398000Z,2024-02-15T13:41:21.242000Z,,2024-02-15T13:41:21.704233Z,771.0,CVPIIDEI,5826,35,Female,White,United States,United States,United States,English,No,Full-Time,Not Applicable
60ccbffae161aadb1880ad6c,<b>I care a lot about politics.,Highly disagree,76/94,Somewhat agree,3,1708004322309,1708004323720,\Somewhat agree\,\Somewhat agree\,\3\,1708004323320,1708004323320,1011,1011,1411,buq,qns-item-noham,76,533904,0.0-1.0-0.75,65ce117bfc16dcdd98a93de4,AWAITING REVIEW,2024-02-15T13:28:30.398000Z,2024-02-15T13:41:21.242000Z,,2024-02-15T13:41:21.704233Z,771.0,CVPIIDEI,5826,35,Female,White,United States,United States,United States,English,No,Full-Time,Not Applicable
60ccbffae161aadb1880ad6c,<b>There are some topics I?ve been really wrong about.,Highly disagree,77/94,Somewhat agree,3,1708004323721,1708004325929,\Somewhat agree\,\Somewhat agree\,\3\,1708004324264,1708004324264,543,543,2208,buq,qns-item-noham,77,536113,0.0-1.0-0.76,65ce117bfc16dcdd98a93de4,AWAITING REVIEW,2024-02-15T13:28:30.398000Z,2024-02-15T13:41:21.242000Z,,2024-02-15T13:41:21.704233Z,771.0,CVPIIDEI,5826,35,Female,White,United States,United States,United States,English,No,Full-Time,Not Applicable
60ccbffae161aadb1880ad6c,<b>Most beliefs can be supported with at least some evidence.,Highly disagree,78/94,Highly agree,4,1708004325933,1708004329574,\Highly agree\,\Highly agree\,\4\,1708004328671,1708004328671,2738,2738,3641,buq,qns-item-noham,78,539758,0.0-1.0-0.77,65ce117bfc16dcdd98a93de4,AWAITING REVIEW,2024-02-15T13:28:30.398000Z,2024-02-15T13:41:21.242000Z,,2024-02-15T13:41:21.704233Z,771.0,CVPIIDEI,5826,35,Female,White,United States,United States,United States,English,No,Full-Time,Not Applicable
60ccbffae161aadb1880ad6c,<b>Other people make life out to be more complicated than it really is.,Highly disagree,79/94,Somewhat agree,3,1708004329576,1708004338738,\Somewhat disagree\,\Somewhat agree\,\2\,1708004334387,1708004338362,4811,8786,9162,buq,qns-item-noham,79,548923,0.0-1.0-0.78,65ce117bfc16dcdd98a93de4,AWAITING REVIEW,2024-02-15T13:28:30.398000Z,2024-02-15T13:41:21.242000Z,,2024-02-15T13:41:21.704233Z,771.0,CVPIIDEI,5826,35,Female,White,United States,United States,United States,English,No,Full-Time,Not Applicable
60ccbffae161aadb1880ad6c,"<b>Policy details don?t matter much, just the big picture.",Highly disagree,80/94,Somewhat agree,3,1708004338742,1708004340145,\Somewhat agree\,\Somewhat agree\,\3\,1708004339601,1708004339601,859,859,1403,buq,qns-item-noham,80,550329,0.0-1.0-0.79,65ce117bfc16dcdd98a93de4,AWAITING REVIEW,2024-02-15T13:28:30.398000Z,2024-02-15T13:41:21.242000Z,,2024-02-15T13:41:21.704233Z,771.0,CVPIIDEI,5826,35,Female,White,United States,United States,United States,English,No,Full-Time,Not Applicable
60ccbffae161aadb1880ad6c,<b>I know my friends so well they can hardly ever surprise me.,Highly disagree,81/94,Highly agree,4,1708004340147,1708004341783,\Highly agree\,\Highly agree\,\4\,1708004341272,1708004341272,1125,1125,1636,buq,qns-item-noham,81,551967,0.0-1.0-0.80,65ce117bfc16dcdd98a93de4,AWAITING REVIEW,2024-02-15T13:28:30.398000Z,2024-02-15T13:41:21.242000Z,,2024-02-15T13:41:21.704233Z,771.0,CVPIIDEI,5826,35,Female,White,United States,United States,United States,English,No,Full-Time,Not Applicable
60ccbffae161aadb1880ad6c,<b>I do not often change my views on people.,Highly disagree,82/94,Somewhat disagree,2,1708004341785,1708004346447,\Somewhat disagree\,\Somewhat disagree\,\2\,1708004343192,1708004343192,1407,1407,4662,buq,qns-item-noham,82,556631,0.0-1.0-0.81,65ce117bfc16dcdd98a93de4,AWAITING REVIEW,2024-02-15T13:28:30.398000Z,2024-02-15T13:41:21.242000Z,,2024-02-15T13:41:21.704233Z,771.0,CVPIIDEI,5826,35,Female,White,United States,United States,United States,English,No,Full-Time,Not Applicable
60ccbffae161aadb1880ad6c,<b>I?m more certain about my beliefs than I used to be.,Highly disagree,83/94,Somewhat agree,3,1708004346450,1708004350251,\Somewhat agree\,\Somewhat agree\,\3\,1708004349431,1708004349431,2981,2981,3801,buq,qns-item-noham,83,560435,0.0-1.0-0.82,65ce117bfc16dcdd98a93de4,AWAITING REVIEW,2024-02-15T13:28:30.398000Z,2024-02-15T13:41:21.242000Z,,2024-02-15T13:41:21.704233Z,771.0,CVPIIDEI,5826,35,Female,White,United States,United States,United States,English,No,Full-Time,Not Applicable
60ccbffae161aadb1880ad6c,<b>People often tell falsehoods unintentionally.,Highly disagree,84/94,Somewhat agree,3,1708004350253,1708004356539,\Somewhat agree\,\Somewhat agree\,\3\,1708004352941,1708004352941,2688,2688,6286,buq,qns-item-noham,84,566723,0.0-1.0-0.83,65ce117bfc16dcdd98a93de4,AWAITING REVIEW,2024-02-15T13:28:30.398000Z,2024-02-15T13:41:21.242000Z,,2024-02-15T13:41:21.704233Z,771.0,CVPIIDEI,5826,35,Female,White,United States,United States,United States,English,No,Full-Time,Not Applicable
60ccbffae161aadb1880ad6c,<b>Most people don?t know much about most things.,Highly disagree,85/94,Somewhat agree,3,1708004356543,1708004358780,\Somewhat agree\,\Somewhat agree\,\3\,1708004357873,1708004357873,1330,1330,2237,buq,qns-item-noham,85,568964,0.0-1.0-0.84,65ce117bfc16dcdd98a93de4,AWAITING REVIEW,2024-02-15T13:28:30.398000Z,2024-02-15T13:41:21.242000Z,,2024-02-15T13:41:21.704233Z,771.0,CVPIIDEI,5826,35,Female,White,United States,United States,United States,English,No,Full-Time,Not Applicable
60ccbffae161aadb1880ad6c,"<b>If I find out something new about someone, I easily change my views about them.",Highly disagree,86/94,Highly agree,4,1708004358783,1708004361392,\Highly agree\,\Highly agree\,\4\,1708004360248,1708004360248,1465,1465,2609,buq,qns-item-noham,86,571577,0.0-1.0-0.85,65ce117bfc16dcdd98a93de4,AWAITING REVIEW,2024-02-15T13:28:30.398000Z,2024-02-15T13:41:21.242000Z,,2024-02-15T13:41:21.704233Z,771.0,CVPIIDEI,5826,35,Female,White,United States,United States,United States,English,No,Full-Time,Not Applicable
60ccbffae161aadb1880ad6c,<b>Having true beliefs is difficult.,Highly disagree,87/94,Somewhat agree,3,1708004361396,1708004369580,\Somewhat agree\,\Somewhat agree\,\3\,1708004368327,1708004368327,6931,6931,8184,buq,qns-item-noham,87,579764,0.0-1.0-0.86,65ce117bfc16dcdd98a93de4,AWAITING REVIEW,2024-02-15T13:28:30.398000Z,2024-02-15T13:41:21.242000Z,,2024-02-15T13:41:21.704233Z,771.0,CVPIIDEI,5826,35,Female,White,United States,United States,United States,English,No,Full-Time,Not Applicable
60ccbffae161aadb1880ad6c,<b>I don?t try new foods since I know I won?t like them.,Highly disagree,88/94,Somewhat disagree,2,1708004369584,1708004391147,\Somewhat agree\,\Somewhat disagree\,\3\,1708004385413,1708004386268,15829,16684,21563,buq,qns-item-noham,88,601331,0.0-1.0-0.87,65ce117bfc16dcdd98a93de4,AWAITING REVIEW,2024-02-15T13:28:30.398000Z,2024-02-15T13:41:21.242000Z,,2024-02-15T13:41:21.704233Z,771.0,CVPIIDEI,5826,35,Female,White,United States,United States,United States,English,No,Full-Time,Not Applicable
60ccbffae161aadb1880ad6c,<b>Other people trick each other a lot.,Highly disagree,89/94,Somewhat disagree,2,1708004391149,1708004393011,\Somewhat disagree\,\Somewhat disagree\,\2\,1708004392115,1708004392115,966,966,1862,buq,qns-item-noham,89,603195,0.0-1.0-0.88,65ce117bfc16dcdd98a93de4,AWAITING REVIEW,2024-02-15T13:28:30.398000Z,2024-02-15T13:41:21.242000Z,,2024-02-15T13:41:21.704233Z,771.0,CVPIIDEI,5826,35,Female,White,United States,United States,United States,English,No,Full-Time,Not Applicable
60ccbffae161aadb1880ad6c,<b>I would need to learn a lot about a person for my opinion of them to be swayed.,Highly disagree,90/94,Somewhat disagree,2,1708004393013,1708004397096,\Somewhat disagree\,\Somewhat disagree\,\2\,1708004396344,1708004396344,3331,3331,4083,buq,qns-item-noham,90,607280,0.0-1.0-0.89,65ce117bfc16dcdd98a93de4,AWAITING REVIEW,2024-02-15T13:28:30.398000Z,2024-02-15T13:41:21.242000Z,,2024-02-15T13:41:21.704233Z,771.0,CVPIIDEI,5826,35,Female,White,United States,United States,United States,English,No,Full-Time,Not Applicable
60ccbffae161aadb1880ad6c,<b>People can?t usually trick me when it comes to topics I care about.,Highly disagree,91/94,Somewhat disagree,2,1708004397099,1708004406293,\Somewhat disagree\,\Somewhat disagree\,\2\,1708004405452,1708004405452,8353,8353,9194,buq,qns-item-noham,91,616477,0.0-1.0-0.90,65ce117bfc16dcdd98a93de4,AWAITING REVIEW,2024-02-15T13:28:30.398000Z,2024-02-15T13:41:21.242000Z,,2024-02-15T13:41:21.704233Z,771.0,CVPIIDEI,5826,35,Female,White,United States,United States,United States,English,No,Full-Time,Not Applicable
60ccbffae161aadb1880ad6c,<b>I do not often change my views on food.,Highly disagree,92/94,Somewhat disagree,2,1708004406295,1708004423861,\Somewhat disagree\,\Somewhat disagree\,\2\,1708004421326,1708004421326,15031,15031,17566,buq,qns-item-noham,92,634046,0.0-1.0-0.91,65ce117bfc16dcdd98a93de4,AWAITING REVIEW,2024-02-15T13:28:30.398000Z,2024-02-15T13:41:21.242000Z,,2024-02-15T13:41:21.704233Z,771.0,CVPIIDEI,5826,35,Female,White,United States,United States,United States,English,No,Full-Time,Not Applicable
60ccbffae161aadb1880ad6c,<b>Specific policies are often very important to me.,Highly disagree,93/94,Somewhat agree,3,1708004423865,1708004429785,\Somewhat agree\,\Somewhat agree\,\3\,1708004428338,1708004428338,4473,4473,5920,buq,qns-item-noham,93,639969,0.0-1.0-0.92,65ce117bfc16dcdd98a93de4,AWAITING REVIEW,2024-02-15T13:28:30.398000Z,2024-02-15T13:41:21.242000Z,,2024-02-15T13:41:21.704233Z,771.0,CVPIIDEI,5826,35,Female,White,United States,United States,United States,English,No,Full-Time,Not Applicable
60ccbffae161aadb1880ad6c,<b>Most people are woefully under-informed.,Highly disagree,94/94,Somewhat agree,3,1708004429788,1708004438534,\Somewhat agree\,\Somewhat agree\,\3\,1708004436928,1708004436928,7140,7140,8746,buq,qns-item-noham,94,648719,0.0-1.0-0.93,65ce117bfc16dcdd98a93de4,AWAITING REVIEW,2024-02-15T13:28:30.398000Z,2024-02-15T13:41:21.242000Z,,2024-02-15T13:41:21.704233Z,771.0,CVPIIDEI,5826,35,Female,White,United States,United States,United States,English,No,Full-Time,Not Applicable
60ccbffae161aadb1880ad6c,,,,,,,,,,,,,,,,,,,,,65ce117bfc16dcdd98a93de4,AWAITING REVIEW,2024-02-15T13:28:30.398000Z,2024-02-15T13:41:21.242000Z,,2024-02-15T13:41:21.704233Z,771.0,CVPIIDEI,5826,35,Female,White,United States,United States,United States,English,No,Full-Time,Not Applicable
