PROLIFIC_PID,Question,qns_options,quest_num,answer,answer_num,question_load_timestamp,next_btn_timestamp,text_selected,final_text_selected,option_num_selected,preview_timestamps,final_text_selected_time_stamp,rt_first_option_click,rt_final_option_click,rt_submit_click,questionnaire,trial_type,trial_index,time_elapsed,internal_node_id,Demographic_Submission id,Demographic_Status,Demographic_Started at,Demographic_Completed at,Demographic_Reviewed at,Demographic_Archived at,Demographic_Time taken,Demographic_Completion code,Demographic_Total approvals,Demographic_Age,Demographic_Sex,Demographic_Ethnicity simplified,Demographic_Country of birth,Demographic_Country of residence,Demographic_Nationality,Demographic_Language,Demographic_Student status,Demographic_Employment status,Demographic_Custom study tncs accepted at
58f1017ac325470001795b01,<b>Knowing what?s true and knowing what to do about it are usually basically the same.,Highly disagree,1/94,Somewhat agree,3,1708005921508,1708005931845,\Somewhat agree\,\Somewhat agree\,\3\,1708005928747,1708005928747,7239,7239,10337,buq,qns-item-noham,1,15185,0.0-1.0-0.0,65ce19e25297bdab38b5afb0,AWAITING REVIEW,2024-02-15T14:04:31.768000Z,2024-02-15T14:22:51.744000Z,,2024-02-15T14:22:52.412966Z,1100.0,CVPIIDEI,2087,40,Female,White,United States,United States,United States,English,No,"Not in paid work (e.g. homemaker', 'retired or disabled)",Not Applicable
58f1017ac325470001795b01,<b>Most people just believe whatever is convenient for them.,Highly disagree,2/94,Somewhat disagree,2,1708005931852,1708005945787,\Somewhat disagree\,\Somewhat disagree\,\2\,1708005936874,1708005936874,5022,5022,13935,buq,qns-item-noham,2,29126,0.0-1.0-0.1,65ce19e25297bdab38b5afb0,AWAITING REVIEW,2024-02-15T14:04:31.768000Z,2024-02-15T14:22:51.744000Z,,2024-02-15T14:22:52.412966Z,1100.0,CVPIIDEI,2087,40,Female,White,United States,United States,United States,English,No,"Not in paid work (e.g. homemaker', 'retired or disabled)",Not Applicable
58f1017ac325470001795b01,<b>Having some big beliefs helps me sort out minor ones.,Highly disagree,3/94,Somewhat agree,3,1708005945789,1708005958645,\Somewhat agree\,\Somewhat agree\,\3\,1708005957205,1708005957205,11416,11416,12856,buq,qns-item-noham,3,41984,0.0-1.0-0.2,65ce19e25297bdab38b5afb0,AWAITING REVIEW,2024-02-15T14:04:31.768000Z,2024-02-15T14:22:51.744000Z,,2024-02-15T14:22:52.412966Z,1100.0,CVPIIDEI,2087,40,Female,White,United States,United States,United States,English,No,"Not in paid work (e.g. homemaker', 'retired or disabled)",Not Applicable
58f1017ac325470001795b01,<b>Political questions are usually pretty complicated.,Highly disagree,4/94,Highly agree,4,1708005958647,1708005963551,\Highly agree\,\Highly agree\,\4\,1708005962635,1708005962635,3988,3988,4904,buq,qns-item-noham,4,46890,0.0-1.0-0.3,65ce19e25297bdab38b5afb0,AWAITING REVIEW,2024-02-15T14:04:31.768000Z,2024-02-15T14:22:51.744000Z,,2024-02-15T14:22:52.412966Z,1100.0,CVPIIDEI,2087,40,Female,White,United States,United States,United States,English,No,"Not in paid work (e.g. homemaker', 'retired or disabled)",Not Applicable
58f1017ac325470001795b01,<b>Figuring out what?s important in life requires learning a lot of facts.,Highly disagree,5/94,Highly disagree,1,1708005963553,1708005968345,\Highly disagree\,\Highly disagree\,\1\,1708005967409,1708005967409,3856,3856,4792,buq,qns-item-noham,5,51684,0.0-1.0-0.4,65ce19e25297bdab38b5afb0,AWAITING REVIEW,2024-02-15T14:04:31.768000Z,2024-02-15T14:22:51.744000Z,,2024-02-15T14:22:52.412966Z,1100.0,CVPIIDEI,2087,40,Female,White,United States,United States,United States,English,No,"Not in paid work (e.g. homemaker', 'retired or disabled)",Not Applicable
58f1017ac325470001795b01,<b>It is difficult for me to remember the last time I was surprised by politics.,Highly disagree,6/94,Somewhat agree,3,1708005968347,1708005973558,\Somewhat agree\,\Somewhat agree\,\3\,1708005972502,1708005972502,4155,4155,5211,buq,qns-item-noham,6,56897,0.0-1.0-0.5,65ce19e25297bdab38b5afb0,AWAITING REVIEW,2024-02-15T14:04:31.768000Z,2024-02-15T14:22:51.744000Z,,2024-02-15T14:22:52.412966Z,1100.0,CVPIIDEI,2087,40,Female,White,United States,United States,United States,English,No,"Not in paid work (e.g. homemaker', 'retired or disabled)",Not Applicable
58f1017ac325470001795b01,<b>People?s false beliefs are understandable.,Highly disagree,7/94,Somewhat disagree,2,1708005973561,1708005984464,\Somewhat disagree\,\Somewhat disagree\,\2\,1708005983376,1708005983376,9815,9815,10903,buq,qns-item-noham,7,67803,0.0-1.0-0.6,65ce19e25297bdab38b5afb0,AWAITING REVIEW,2024-02-15T14:04:31.768000Z,2024-02-15T14:22:51.744000Z,,2024-02-15T14:22:52.412966Z,1100.0,CVPIIDEI,2087,40,Female,White,United States,United States,United States,English,No,"Not in paid work (e.g. homemaker', 'retired or disabled)",Not Applicable
58f1017ac325470001795b01,<b>I spend a lot of time trying to be informed about politics.,Highly disagree,8/94,Somewhat disagree,2,1708005984466,1708005991183,\Somewhat disagree\,\Somewhat disagree\,\2\,1708005989589,1708005989589,5123,5123,6717,buq,qns-item-noham,8,74522,0.0-1.0-0.7,65ce19e25297bdab38b5afb0,AWAITING REVIEW,2024-02-15T14:04:31.768000Z,2024-02-15T14:22:51.744000Z,,2024-02-15T14:22:52.412966Z,1100.0,CVPIIDEI,2087,40,Female,White,United States,United States,United States,English,No,"Not in paid work (e.g. homemaker', 'retired or disabled)",Not Applicable
58f1017ac325470001795b01,<b>I think a lot about whether my beliefs are right.,Highly disagree,9/94,Somewhat agree,3,1708005991186,1708005995263,\Somewhat agree\,\Somewhat agree\,\3\,1708005994489,1708005994489,3303,3303,4077,buq,qns-item-noham,9,78602,0.0-1.0-0.8,65ce19e25297bdab38b5afb0,AWAITING REVIEW,2024-02-15T14:04:31.768000Z,2024-02-15T14:22:51.744000Z,,2024-02-15T14:22:52.412966Z,1100.0,CVPIIDEI,2087,40,Female,White,United States,United States,United States,English,No,"Not in paid work (e.g. homemaker', 'retired or disabled)",Not Applicable
58f1017ac325470001795b01,<b>Statistics can be pretty misleading sometimes.,Highly disagree,10/94,Somewhat agree,3,1708005995265,1708005999092,\Somewhat agree\,\Somewhat agree\,\3\,1708005998033,1708005998033,2768,2768,3827,buq,qns-item-noham,10,82431,0.0-1.0-0.9,65ce19e25297bdab38b5afb0,AWAITING REVIEW,2024-02-15T14:04:31.768000Z,2024-02-15T14:22:51.744000Z,,2024-02-15T14:22:52.412966Z,1100.0,CVPIIDEI,2087,40,Female,White,United States,United States,United States,English,No,"Not in paid work (e.g. homemaker', 'retired or disabled)",Not Applicable
58f1017ac325470001795b01,<b>I have lots of beliefs that I?m only sort of sure about.,Highly disagree,11/94,Somewhat agree,3,1708005999094,1708006005669,\Somewhat agree\,\Somewhat agree\,\3\,1708006004470,1708006004470,5376,5376,6575,buq,qns-item-noham,11,89008,0.0-1.0-0.10,65ce19e25297bdab38b5afb0,AWAITING REVIEW,2024-02-15T14:04:31.768000Z,2024-02-15T14:22:51.744000Z,,2024-02-15T14:22:52.412966Z,1100.0,CVPIIDEI,2087,40,Female,White,United States,United States,United States,English,No,"Not in paid work (e.g. homemaker', 'retired or disabled)",Not Applicable
58f1017ac325470001795b01,"<b>If I go to my favorite restaurant and the food is surprisingly bad, it reminds me there are many disappointments in life.",Highly disagree,12/94,Somewhat disagree,2,1708006005671,1708006011472,\Somewhat disagree\,\Somewhat disagree\,\2\,1708006010474,1708006010474,4803,4803,5801,buq,qns-item-noham,12,94811,0.0-1.0-0.11,65ce19e25297bdab38b5afb0,AWAITING REVIEW,2024-02-15T14:04:31.768000Z,2024-02-15T14:22:51.744000Z,,2024-02-15T14:22:52.412966Z,1100.0,CVPIIDEI,2087,40,Female,White,United States,United States,United States,English,No,"Not in paid work (e.g. homemaker', 'retired or disabled)",Not Applicable
58f1017ac325470001795b01,"<b>If you are paying attention, please select ?Somewhat agree?",Highly disagree,13/94,Somewhat agree,3,1708006011474,1708006015110,\Somewhat agree\,\Somewhat agree\,\3\,1708006014112,1708006014112,2638,2638,3636,buq,qns-item-noham,13,98449,0.0-1.0-0.12,65ce19e25297bdab38b5afb0,AWAITING REVIEW,2024-02-15T14:04:31.768000Z,2024-02-15T14:22:51.744000Z,,2024-02-15T14:22:52.412966Z,1100.0,CVPIIDEI,2087,40,Female,White,United States,United States,United States,English,No,"Not in paid work (e.g. homemaker', 'retired or disabled)",Not Applicable
58f1017ac325470001795b01,"<b>When I talk to others, I often worry I?ll convince them of something I didn?t mean to.",Highly disagree,14/94,Somewhat agree,3,1708006015112,1708006020002,\Somewhat agree\,\Somewhat agree\,\3\,1708006018886,1708006018886,3774,3774,4890,buq,qns-item-noham,14,103341,0.0-1.0-0.13,65ce19e25297bdab38b5afb0,AWAITING REVIEW,2024-02-15T14:04:31.768000Z,2024-02-15T14:22:51.744000Z,,2024-02-15T14:22:52.412966Z,1100.0,CVPIIDEI,2087,40,Female,White,United States,United States,United States,English,No,"Not in paid work (e.g. homemaker', 'retired or disabled)",Not Applicable
58f1017ac325470001795b01,<b>I would need to learn something utterly shocking about my party in order to change my political views.,Highly disagree,15/94,Highly agree,4,1708006020004,1708006025522,\Highly agree\,\Highly agree\,\4\,1708006024368,1708006024368,4364,4364,5518,buq,qns-item-noham,15,108861,0.0-1.0-0.14,65ce19e25297bdab38b5afb0,AWAITING REVIEW,2024-02-15T14:04:31.768000Z,2024-02-15T14:22:51.744000Z,,2024-02-15T14:22:52.412966Z,1100.0,CVPIIDEI,2087,40,Female,White,United States,United States,United States,English,No,"Not in paid work (e.g. homemaker', 'retired or disabled)",Not Applicable
58f1017ac325470001795b01,"<b>When I have new experiences, I tend to think of them as unique.",Highly disagree,16/94,Somewhat agree,3,1708006025525,1708006034471,\Somewhat agree\,\Somewhat agree\,\3\,1708006033519,1708006033519,7994,7994,8946,buq,qns-item-noham,16,117810,0.0-1.0-0.15,65ce19e25297bdab38b5afb0,AWAITING REVIEW,2024-02-15T14:04:31.768000Z,2024-02-15T14:22:51.744000Z,,2024-02-15T14:22:52.412966Z,1100.0,CVPIIDEI,2087,40,Female,White,United States,United States,United States,English,No,"Not in paid work (e.g. homemaker', 'retired or disabled)",Not Applicable
58f1017ac325470001795b01,<b>I change my mind about specific policies pretty frequently.,Highly disagree,17/94,Somewhat disagree,2,1708006034474,1708006042581,\Somewhat disagree\,\Somewhat disagree\,\2\,1708006038852,1708006038852,4378,4378,8107,buq,qns-item-noham,17,125920,0.0-1.0-0.16,65ce19e25297bdab38b5afb0,AWAITING REVIEW,2024-02-15T14:04:31.768000Z,2024-02-15T14:22:51.744000Z,,2024-02-15T14:22:52.412966Z,1100.0,CVPIIDEI,2087,40,Female,White,United States,United States,United States,English,No,"Not in paid work (e.g. homemaker', 'retired or disabled)",Not Applicable
58f1017ac325470001795b01,"<b>If a politician in my political party supports something I disagree with, I give them the benefit of the doubt, as such issues often involve hidden complexities that aren?t obvious.   ",Highly disagree,18/94,Somewhat agree,3,1708006042583,1708006048075,\Somewhat agree\,\Somewhat agree\,\3\,1708006047122,1708006047122,4539,4539,5492,buq,qns-item-noham,18,131414,0.0-1.0-0.17,65ce19e25297bdab38b5afb0,AWAITING REVIEW,2024-02-15T14:04:31.768000Z,2024-02-15T14:22:51.744000Z,,2024-02-15T14:22:52.412966Z,1100.0,CVPIIDEI,2087,40,Female,White,United States,United States,United States,English,No,"Not in paid work (e.g. homemaker', 'retired or disabled)",Not Applicable
58f1017ac325470001795b01,<b>People?s bad politics are usually motivated by hatefulness.,Highly disagree,19/94,Somewhat disagree,2,1708006048077,1708006061453,\Somewhat disagree\,\Somewhat disagree\,\2\,1708006057898,1708006059050,9821,10973,13376,buq,qns-item-noham,19,144792,0.0-1.0-0.18,65ce19e25297bdab38b5afb0,AWAITING REVIEW,2024-02-15T14:04:31.768000Z,2024-02-15T14:22:51.744000Z,,2024-02-15T14:22:52.412966Z,1100.0,CVPIIDEI,2087,40,Female,White,United States,United States,United States,English,No,"Not in paid work (e.g. homemaker', 'retired or disabled)",Not Applicable
58f1017ac325470001795b01,<b>I think a lot about how to reconcile my beliefs with one another.,Highly disagree,20/94,Somewhat agree,3,1708006061455,1708006068504,\Somewhat agree\,\Somewhat agree\,\3\,1708006067554,1708006067554,6099,6099,7049,buq,qns-item-noham,20,151843,0.0-1.0-0.19,65ce19e25297bdab38b5afb0,AWAITING REVIEW,2024-02-15T14:04:31.768000Z,2024-02-15T14:22:51.744000Z,,2024-02-15T14:22:52.412966Z,1100.0,CVPIIDEI,2087,40,Female,White,United States,United States,United States,English,No,"Not in paid work (e.g. homemaker', 'retired or disabled)",Not Applicable
58f1017ac325470001795b01,<b>I might have false beliefs about important topics.,Highly disagree,21/94,Somewhat agree,3,1708006068506,1708006074527,\Somewhat agree\,\Somewhat agree\,\3\,1708006073592,1708006073592,5086,5086,6021,buq,qns-item-noham,21,157866,0.0-1.0-0.20,65ce19e25297bdab38b5afb0,AWAITING REVIEW,2024-02-15T14:04:31.768000Z,2024-02-15T14:22:51.744000Z,,2024-02-15T14:22:52.412966Z,1100.0,CVPIIDEI,2087,40,Female,White,United States,United States,United States,English,No,"Not in paid work (e.g. homemaker', 'retired or disabled)",Not Applicable
58f1017ac325470001795b01,"<b>If a good friend of mine does something unexpected that upsets me, I feel like I don?t know them anymore.",Highly disagree,22/94,Somewhat agree,3,1708006074529,1708006079729,\Somewhat agree\,\Somewhat agree\,\3\,1708006078850,1708006078850,4321,4321,5200,buq,qns-item-noham,22,163068,0.0-1.0-0.21,65ce19e25297bdab38b5afb0,AWAITING REVIEW,2024-02-15T14:04:31.768000Z,2024-02-15T14:22:51.744000Z,,2024-02-15T14:22:52.412966Z,1100.0,CVPIIDEI,2087,40,Female,White,United States,United States,United States,English,No,"Not in paid work (e.g. homemaker', 'retired or disabled)",Not Applicable
58f1017ac325470001795b01,<b>Other people?s beliefs are often incoherent.,Highly disagree,23/94,Highly disagree,1,1708006079730,1708006088455,\Highly disagree\,\Highly disagree\,\1\,1708006087137,1708006087137,7407,7407,8725,buq,qns-item-noham,23,171795,0.0-1.0-0.22,65ce19e25297bdab38b5afb0,AWAITING REVIEW,2024-02-15T14:04:31.768000Z,2024-02-15T14:22:51.744000Z,,2024-02-15T14:22:52.412966Z,1100.0,CVPIIDEI,2087,40,Female,White,United States,United States,United States,English,No,"Not in paid work (e.g. homemaker', 'retired or disabled)",Not Applicable
58f1017ac325470001795b01,"<b>Every now and then, a new experience will unsettle beliefs I?ve had for a while.",Highly disagree,24/94,Somewhat agree,3,1708006088458,1708006097427,\Somewhat agree\,\Somewhat agree\,\3\,1708006096553,1708006096553,8095,8095,8969,buq,qns-item-noham,24,180766,0.0-1.0-0.23,65ce19e25297bdab38b5afb0,AWAITING REVIEW,2024-02-15T14:04:31.768000Z,2024-02-15T14:22:51.744000Z,,2024-02-15T14:22:52.412966Z,1100.0,CVPIIDEI,2087,40,Female,White,United States,United States,United States,English,No,"Not in paid work (e.g. homemaker', 'retired or disabled)",Not Applicable
58f1017ac325470001795b01,<b>Some policies I agree with in principle are so bad I don?t support them. ,Highly disagree,25/94,Somewhat agree,3,1708006097430,1708006106703,\Somewhat agree\,\Somewhat agree\,\3\,1708006105747,1708006105747,8317,8317,9273,buq,qns-item-noham,25,190042,0.0-1.0-0.24,65ce19e25297bdab38b5afb0,AWAITING REVIEW,2024-02-15T14:04:31.768000Z,2024-02-15T14:22:51.744000Z,,2024-02-15T14:22:52.412966Z,1100.0,CVPIIDEI,2087,40,Female,White,United States,United States,United States,English,No,"Not in paid work (e.g. homemaker', 'retired or disabled)",Not Applicable
58f1017ac325470001795b01,<b>I?m pretty sure I?ve accidentally spread false information.,Highly disagree,26/94,Somewhat disagree,2,1708006106705,1708006110054,\Somewhat disagree\,\Somewhat disagree\,\2\,1708006109217,1708006109217,2512,2512,3349,buq,qns-item-noham,26,193393,0.0-1.0-0.25,65ce19e25297bdab38b5afb0,AWAITING REVIEW,2024-02-15T14:04:31.768000Z,2024-02-15T14:22:51.744000Z,,2024-02-15T14:22:52.412966Z,1100.0,CVPIIDEI,2087,40,Female,White,United States,United States,United States,English,No,"Not in paid work (e.g. homemaker', 'retired or disabled)",Not Applicable
58f1017ac325470001795b01,"<b>If I go to my favorite restaurant and the food is unexpectedly bad, then they have changed owners.",Highly disagree,27/94,Somewhat disagree,2,1708006110055,1708006116882,\Highly disagree\,\Somewhat disagree\,\1\,1708006115265,1708006116120,5210,6065,6827,buq,qns-item-noham,27,200221,0.0-1.0-0.26,65ce19e25297bdab38b5afb0,AWAITING REVIEW,2024-02-15T14:04:31.768000Z,2024-02-15T14:22:51.744000Z,,2024-02-15T14:22:52.412966Z,1100.0,CVPIIDEI,2087,40,Female,White,United States,United States,United States,English,No,"Not in paid work (e.g. homemaker', 'retired or disabled)",Not Applicable
58f1017ac325470001795b01,"<b>In politics, it?s important to trust your friends and family.",Highly disagree,28/94,Somewhat disagree,2,1708006116884,1708006121073,\Somewhat disagree\,\Somewhat disagree\,\2\,1708006120112,1708006120112,3228,3228,4189,buq,qns-item-noham,28,204412,0.0-1.0-0.27,65ce19e25297bdab38b5afb0,AWAITING REVIEW,2024-02-15T14:04:31.768000Z,2024-02-15T14:22:51.744000Z,,2024-02-15T14:22:52.412966Z,1100.0,CVPIIDEI,2087,40,Female,White,United States,United States,United States,English,No,"Not in paid work (e.g. homemaker', 'retired or disabled)",Not Applicable
58f1017ac325470001795b01,<b>It?s OK to have some conflicting beliefs.,Highly disagree,29/94,Somewhat agree,3,1708006121075,1708006130197,\Somewhat agree\,\Somewhat agree\,\3\,1708006128601,1708006128601,7526,7526,9122,buq,qns-item-noham,29,213536,0.0-1.0-0.28,65ce19e25297bdab38b5afb0,AWAITING REVIEW,2024-02-15T14:04:31.768000Z,2024-02-15T14:22:51.744000Z,,2024-02-15T14:22:52.412966Z,1100.0,CVPIIDEI,2087,40,Female,White,United States,United States,United States,English,No,"Not in paid work (e.g. homemaker', 'retired or disabled)",Not Applicable
58f1017ac325470001795b01,<b>Listening to people I disagree with makes my opinions better.,Highly disagree,30/94,Somewhat agree,3,1708006130200,1708006136555,\Somewhat agree\,\Somewhat agree\,\3\,1708006135750,1708006135750,5550,5550,6355,buq,qns-item-noham,30,219894,0.0-1.0-0.29,65ce19e25297bdab38b5afb0,AWAITING REVIEW,2024-02-15T14:04:31.768000Z,2024-02-15T14:22:51.744000Z,,2024-02-15T14:22:52.412966Z,1100.0,CVPIIDEI,2087,40,Female,White,United States,United States,United States,English,No,"Not in paid work (e.g. homemaker', 'retired or disabled)",Not Applicable
58f1017ac325470001795b01,<b>My moral compass sometimes makes it harder to determine what?s true.,Highly disagree,31/94,Highly agree,4,1708006136557,1708006167226,\Highly agree\,\Highly agree\,\4\,1708006165874,1708006165874,29317,29317,30669,buq,qns-item-noham,31,250565,0.0-1.0-0.30,65ce19e25297bdab38b5afb0,AWAITING REVIEW,2024-02-15T14:04:31.768000Z,2024-02-15T14:22:51.744000Z,,2024-02-15T14:22:52.412966Z,1100.0,CVPIIDEI,2087,40,Female,White,United States,United States,United States,English,No,"Not in paid work (e.g. homemaker', 'retired or disabled)",Not Applicable
58f1017ac325470001795b01,<b>Evidence pointing in the wrong direction isn?t really evidence at all.,Highly disagree,32/94,Somewhat disagree,2,1708006167228,1708006174291,\Somewhat disagree\,\Somewhat disagree\,\2\,1708006173496,1708006173496,6268,6268,7063,buq,qns-item-noham,32,257630,0.0-1.0-0.31,65ce19e25297bdab38b5afb0,AWAITING REVIEW,2024-02-15T14:04:31.768000Z,2024-02-15T14:22:51.744000Z,,2024-02-15T14:22:52.412966Z,1100.0,CVPIIDEI,2087,40,Female,White,United States,United States,United States,English,No,"Not in paid work (e.g. homemaker', 'retired or disabled)",Not Applicable
58f1017ac325470001795b01,"<b>If the political party I support messes up, it makes me think politics is rotten.",Highly disagree,33/94,Somewhat disagree,2,1708006174292,1708006178695,\Somewhat disagree\,\Somewhat disagree\,\2\,1708006177881,1708006177881,3589,3589,4403,buq,qns-item-noham,33,262035,0.0-1.0-0.32,65ce19e25297bdab38b5afb0,AWAITING REVIEW,2024-02-15T14:04:31.768000Z,2024-02-15T14:22:51.744000Z,,2024-02-15T14:22:52.412966Z,1100.0,CVPIIDEI,2087,40,Female,White,United States,United States,United States,English,No,"Not in paid work (e.g. homemaker', 'retired or disabled)",Not Applicable
58f1017ac325470001795b01,<b>Lots of important topics can only really be understood by some groups of people.,Highly disagree,34/94,Highly disagree,1,1708006178698,1708006187077,\Highly disagree\,\Highly disagree\,\1\,1708006185523,1708006185523,6825,6825,8379,buq,qns-item-noham,34,270416,0.0-1.0-0.33,65ce19e25297bdab38b5afb0,AWAITING REVIEW,2024-02-15T14:04:31.768000Z,2024-02-15T14:22:51.744000Z,,2024-02-15T14:22:52.412966Z,1100.0,CVPIIDEI,2087,40,Female,White,United States,United States,United States,English,No,"Not in paid work (e.g. homemaker', 'retired or disabled)",Not Applicable
58f1017ac325470001795b01,<b>Having conflicting beliefs means you haven?t thought about them enough.,Highly disagree,35/94,Somewhat disagree,2,1708006187079,1708006192193,\Somewhat disagree\,\Somewhat disagree\,\2\,1708006191326,1708006191326,4247,4247,5114,buq,qns-item-noham,35,275532,0.0-1.0-0.34,65ce19e25297bdab38b5afb0,AWAITING REVIEW,2024-02-15T14:04:31.768000Z,2024-02-15T14:22:51.744000Z,,2024-02-15T14:22:52.412966Z,1100.0,CVPIIDEI,2087,40,Female,White,United States,United States,United States,English,No,"Not in paid work (e.g. homemaker', 'retired or disabled)",Not Applicable
58f1017ac325470001795b01,<b>I do not often change my political opinions.,Highly disagree,36/94,Somewhat disagree,2,1708006192196,1708006236186,\Somewhat disagree\,\Somewhat disagree\,\2\,1708006235298,1708006235298,43102,43102,43990,buq,qns-item-noham,36,319525,0.0-1.0-0.35,65ce19e25297bdab38b5afb0,AWAITING REVIEW,2024-02-15T14:04:31.768000Z,2024-02-15T14:22:51.744000Z,,2024-02-15T14:22:52.412966Z,1100.0,CVPIIDEI,2087,40,Female,White,United States,United States,United States,English,No,"Not in paid work (e.g. homemaker', 'retired or disabled)",Not Applicable
58f1017ac325470001795b01,<b>It?s difficult to not have at least some conflicting beliefs.,Highly disagree,37/94,Somewhat agree,3,1708006236188,1708006243154,\Somewhat agree\,\Somewhat agree\,\3\,1708006242114,1708006242114,5926,5926,6966,buq,qns-item-noham,37,326493,0.0-1.0-0.36,65ce19e25297bdab38b5afb0,AWAITING REVIEW,2024-02-15T14:04:31.768000Z,2024-02-15T14:22:51.744000Z,,2024-02-15T14:22:52.412966Z,1100.0,CVPIIDEI,2087,40,Female,White,United States,United States,United States,English,No,"Not in paid work (e.g. homemaker', 'retired or disabled)",Not Applicable
58f1017ac325470001795b01,<b>Wishful thinking causes a lot of problems.,Highly disagree,38/94,Highly agree,4,1708006243155,1708006247706,\Highly agree\,\Highly agree\,\4\,1708006246774,1708006246774,3619,3619,4551,buq,qns-item-noham,38,331045,0.0-1.0-0.37,65ce19e25297bdab38b5afb0,AWAITING REVIEW,2024-02-15T14:04:31.768000Z,2024-02-15T14:22:51.744000Z,,2024-02-15T14:22:52.412966Z,1100.0,CVPIIDEI,2087,40,Female,White,United States,United States,United States,English,No,"Not in paid work (e.g. homemaker', 'retired or disabled)",Not Applicable
58f1017ac325470001795b01,<b>I judge a food item only once I try it many times.,Highly disagree,39/94,Highly disagree,1,1708006247709,1708006266695,\Highly disagree\,\Highly disagree\,\1\,1708006265890,1708006265890,18181,18181,18986,buq,qns-item-noham,39,350034,0.0-1.0-0.38,65ce19e25297bdab38b5afb0,AWAITING REVIEW,2024-02-15T14:04:31.768000Z,2024-02-15T14:22:51.744000Z,,2024-02-15T14:22:52.412966Z,1100.0,CVPIIDEI,2087,40,Female,White,United States,United States,United States,English,No,"Not in paid work (e.g. homemaker', 'retired or disabled)",Not Applicable
58f1017ac325470001795b01,"<b>When a person holds conflicting beliefs, they should really try to figure out what?s wrong.",Highly disagree,40/94,Highly agree,4,1708006266697,1708006270697,\Highly agree\,\Highly agree\,\4\,1708006269708,1708006269708,3011,3011,4000,buq,qns-item-noham,40,354036,0.0-1.0-0.39,65ce19e25297bdab38b5afb0,AWAITING REVIEW,2024-02-15T14:04:31.768000Z,2024-02-15T14:22:51.744000Z,,2024-02-15T14:22:52.412966Z,1100.0,CVPIIDEI,2087,40,Female,White,United States,United States,United States,English,No,"Not in paid work (e.g. homemaker', 'retired or disabled)",Not Applicable
58f1017ac325470001795b01,<b>Knowing what?s important in life is easy.,Highly disagree,41/94,Somewhat agree,3,1708006270699,1708006274438,\Somewhat agree\,\Somewhat agree\,\3\,1708006273566,1708006273566,2867,2867,3739,buq,qns-item-noham,41,357777,0.0-1.0-0.40,65ce19e25297bdab38b5afb0,AWAITING REVIEW,2024-02-15T14:04:31.768000Z,2024-02-15T14:22:51.744000Z,,2024-02-15T14:22:52.412966Z,1100.0,CVPIIDEI,2087,40,Female,White,United States,United States,United States,English,No,"Not in paid work (e.g. homemaker', 'retired or disabled)",Not Applicable
58f1017ac325470001795b01,<b>I swim across the Atlantic Ocean to get to work every day.,Highly disagree,42/94,Highly disagree,1,1708006274439,1708006279331,\Highly disagree\,\Highly disagree\,\1\,1708006278323,1708006278323,3884,3884,4892,buq,qns-item-noham,42,362670,0.0-1.0-0.41,65ce19e25297bdab38b5afb0,AWAITING REVIEW,2024-02-15T14:04:31.768000Z,2024-02-15T14:22:51.744000Z,,2024-02-15T14:22:52.412966Z,1100.0,CVPIIDEI,2087,40,Female,White,United States,United States,United States,English,No,"Not in paid work (e.g. homemaker', 'retired or disabled)",Not Applicable
58f1017ac325470001795b01,"<b>Sometimes, you just have to ignore evidence that you know is wrong.",Highly disagree,43/94,Somewhat disagree,2,1708006279332,1708006283725,\Somewhat disagree\,\Somewhat disagree\,\2\,1708006282761,1708006282761,3429,3429,4393,buq,qns-item-noham,43,367064,0.0-1.0-0.42,65ce19e25297bdab38b5afb0,AWAITING REVIEW,2024-02-15T14:04:31.768000Z,2024-02-15T14:22:51.744000Z,,2024-02-15T14:22:52.412966Z,1100.0,CVPIIDEI,2087,40,Female,White,United States,United States,United States,English,No,"Not in paid work (e.g. homemaker', 'retired or disabled)",Not Applicable
58f1017ac325470001795b01,<b>I have had some false beliefs.,Highly disagree,44/94,Somewhat disagree,2,1708006283728,1708006292234,\Somewhat disagree\,\Somewhat disagree\,\2\,1708006291225,1708006291225,7497,7497,8506,buq,qns-item-noham,44,375573,0.0-1.0-0.43,65ce19e25297bdab38b5afb0,AWAITING REVIEW,2024-02-15T14:04:31.768000Z,2024-02-15T14:22:51.744000Z,,2024-02-15T14:22:52.412966Z,1100.0,CVPIIDEI,2087,40,Female,White,United States,United States,United States,English,No,"Not in paid work (e.g. homemaker', 'retired or disabled)",Not Applicable
58f1017ac325470001795b01,"<b>If one friend does something that upsets me, I sometimes start to distrust people in general.",Highly disagree,45/94,Somewhat agree,3,1708006292237,1708006306240,\Somewhat agree\,\Somewhat agree\,\3\,1708006304869,1708006304869,12632,12632,14003,buq,qns-item-noham,45,389579,0.0-1.0-0.44,65ce19e25297bdab38b5afb0,AWAITING REVIEW,2024-02-15T14:04:31.768000Z,2024-02-15T14:22:51.744000Z,,2024-02-15T14:22:52.412966Z,1100.0,CVPIIDEI,2087,40,Female,White,United States,United States,United States,English,No,"Not in paid work (e.g. homemaker', 'retired or disabled)",Not Applicable
58f1017ac325470001795b01,<b>The facts about most important matters are easy to find.,Highly disagree,46/94,Somewhat agree,3,1708006306242,1708006351096,\Somewhat agree\,\Somewhat agree\,\3\,1708006350231,1708006350231,43989,43989,44854,buq,qns-item-noham,46,434435,0.0-1.0-0.45,65ce19e25297bdab38b5afb0,AWAITING REVIEW,2024-02-15T14:04:31.768000Z,2024-02-15T14:22:51.744000Z,,2024-02-15T14:22:52.412966Z,1100.0,CVPIIDEI,2087,40,Female,White,United States,United States,United States,English,No,"Not in paid work (e.g. homemaker', 'retired or disabled)",Not Applicable
58f1017ac325470001795b01,<b>It?s better to know what?s true than to know what?s moral.,Highly disagree,47/94,Somewhat disagree,2,1708006351098,1708006354567,\Somewhat disagree\,\Somewhat disagree\,\2\,1708006353785,1708006353785,2687,2687,3469,buq,qns-item-noham,47,437906,0.0-1.0-0.46,65ce19e25297bdab38b5afb0,AWAITING REVIEW,2024-02-15T14:04:31.768000Z,2024-02-15T14:22:51.744000Z,,2024-02-15T14:22:52.412966Z,1100.0,CVPIIDEI,2087,40,Female,White,United States,United States,United States,English,No,"Not in paid work (e.g. homemaker', 'retired or disabled)",Not Applicable
58f1017ac325470001795b01,<b>I used to think the world was less complicated than I do now.,Highly disagree,48/94,Highly agree,4,1708006354569,1708006360292,\Highly agree\,\Highly agree\,\4\,1708006359168,1708006359168,4599,4599,5723,buq,qns-item-noham,48,443631,0.0-1.0-0.47,65ce19e25297bdab38b5afb0,AWAITING REVIEW,2024-02-15T14:04:31.768000Z,2024-02-15T14:22:51.744000Z,,2024-02-15T14:22:52.412966Z,1100.0,CVPIIDEI,2087,40,Female,White,United States,United States,United States,English,No,"Not in paid work (e.g. homemaker', 'retired or disabled)",Not Applicable
58f1017ac325470001795b01,<b>People are usually completely right or completely wrong.,Highly disagree,49/94,Somewhat disagree,2,1708006360295,1708006375395,\Somewhat disagree\,\Somewhat disagree\,\2\,1708006374178,1708006374178,13883,13883,15100,buq,qns-item-noham,49,458734,0.0-1.0-0.48,65ce19e25297bdab38b5afb0,AWAITING REVIEW,2024-02-15T14:04:31.768000Z,2024-02-15T14:22:51.744000Z,,2024-02-15T14:22:52.412966Z,1100.0,CVPIIDEI,2087,40,Female,White,United States,United States,United States,English,No,"Not in paid work (e.g. homemaker', 'retired or disabled)",Not Applicable
58f1017ac325470001795b01,<b>I spend a lot of time considering alternatives to my beliefs.,Highly disagree,50/94,Somewhat disagree,2,1708006375397,1708006380464,\Somewhat disagree\,\Somewhat disagree\,\2\,1708006379345,1708006379345,3948,3948,5067,buq,qns-item-noham,50,463803,0.0-1.0-0.49,65ce19e25297bdab38b5afb0,AWAITING REVIEW,2024-02-15T14:04:31.768000Z,2024-02-15T14:22:51.744000Z,,2024-02-15T14:22:52.412966Z,1100.0,CVPIIDEI,2087,40,Female,White,United States,United States,United States,English,No,"Not in paid work (e.g. homemaker', 'retired or disabled)",Not Applicable
58f1017ac325470001795b01,"<b>Political enemies need to be defeated, not convinced.",Highly disagree,51/94,Somewhat disagree,2,1708006380466,1708006417219,\Somewhat disagree\,\Somewhat disagree\,\2\,1708006406067,1708006406067,25601,25601,36753,buq,qns-item-noham,51,500558,0.0-1.0-0.50,65ce19e25297bdab38b5afb0,AWAITING REVIEW,2024-02-15T14:04:31.768000Z,2024-02-15T14:22:51.744000Z,,2024-02-15T14:22:52.412966Z,1100.0,CVPIIDEI,2087,40,Female,White,United States,United States,United States,English,No,"Not in paid work (e.g. homemaker', 'retired or disabled)",Not Applicable
58f1017ac325470001795b01,<b>I form my political views only after meticulously gathering historical and present information about their policies.,Highly disagree,52/94,Somewhat agree,3,1708006417221,1708006452980,\Somewhat agree\,\Somewhat agree\,\3\,1708006452148,1708006452148,34927,34927,35759,buq,qns-item-noham,52,536319,0.0-1.0-0.51,65ce19e25297bdab38b5afb0,AWAITING REVIEW,2024-02-15T14:04:31.768000Z,2024-02-15T14:22:51.744000Z,,2024-02-15T14:22:52.412966Z,1100.0,CVPIIDEI,2087,40,Female,White,United States,United States,United States,English,No,"Not in paid work (e.g. homemaker', 'retired or disabled)",Not Applicable
58f1017ac325470001795b01,<b>It is difficult for me to remember the last time I was surprised by politics.,Highly disagree,53/94,Somewhat agree,3,1708006452982,1708006457012,\Somewhat agree\,\Somewhat agree\,\3\,1708006456200,1708006456200,3218,3218,4030,buq,qns-item-noham,53,540351,0.0-1.0-0.52,65ce19e25297bdab38b5afb0,AWAITING REVIEW,2024-02-15T14:04:31.768000Z,2024-02-15T14:22:51.744000Z,,2024-02-15T14:22:52.412966Z,1100.0,CVPIIDEI,2087,40,Female,White,United States,United States,United States,English,No,"Not in paid work (e.g. homemaker', 'retired or disabled)",Not Applicable
58f1017ac325470001795b01,"<b>When I find out I?m wrong, I think a lot about my related beliefs.",Highly disagree,54/94,Somewhat agree,3,1708006457014,1708006463805,\Somewhat agree\,\Somewhat agree\,\3\,1708006462987,1708006462987,5973,5973,6791,buq,qns-item-noham,54,547144,0.0-1.0-0.53,65ce19e25297bdab38b5afb0,AWAITING REVIEW,2024-02-15T14:04:31.768000Z,2024-02-15T14:22:51.744000Z,,2024-02-15T14:22:52.412966Z,1100.0,CVPIIDEI,2087,40,Female,White,United States,United States,United States,English,No,"Not in paid work (e.g. homemaker', 'retired or disabled)",Not Applicable
58f1017ac325470001795b01,"<b>If the political party I support messes up, it makes me think you can?t trust anyone these days",Highly disagree,55/94,Somewhat disagree,2,1708006463807,1708006468380,\Somewhat disagree\,\Somewhat disagree\,\2\,1708006467586,1708006467586,3779,3779,4573,buq,qns-item-noham,55,551719,0.0-1.0-0.54,65ce19e25297bdab38b5afb0,AWAITING REVIEW,2024-02-15T14:04:31.768000Z,2024-02-15T14:22:51.744000Z,,2024-02-15T14:22:52.412966Z,1100.0,CVPIIDEI,2087,40,Female,White,United States,United States,United States,English,No,"Not in paid work (e.g. homemaker', 'retired or disabled)",Not Applicable
58f1017ac325470001795b01,<b>People?s brains turn off when they talk about politics.,Highly disagree,56/94,Highly disagree,1,1708006468381,1708006471716,\Highly disagree\,\Highly disagree\,\1\,1708006470924,1708006470924,2543,2543,3335,buq,qns-item-noham,56,555055,0.0-1.0-0.55,65ce19e25297bdab38b5afb0,AWAITING REVIEW,2024-02-15T14:04:31.768000Z,2024-02-15T14:22:51.744000Z,,2024-02-15T14:22:52.412966Z,1100.0,CVPIIDEI,2087,40,Female,White,United States,United States,United States,English,No,"Not in paid work (e.g. homemaker', 'retired or disabled)",Not Applicable
58f1017ac325470001795b01,<b>People who are wrong are usually just ignoring the obvious.,Highly disagree,57/94,Somewhat agree,3,1708006471718,1708006474728,\Somewhat agree\,\Somewhat agree\,\3\,1708006473980,1708006473980,2262,2262,3010,buq,qns-item-noham,57,558067,0.0-1.0-0.56,65ce19e25297bdab38b5afb0,AWAITING REVIEW,2024-02-15T14:04:31.768000Z,2024-02-15T14:22:51.744000Z,,2024-02-15T14:22:52.412966Z,1100.0,CVPIIDEI,2087,40,Female,White,United States,United States,United States,English,No,"Not in paid work (e.g. homemaker', 'retired or disabled)",Not Applicable
58f1017ac325470001795b01,"<b>When forming my views on people, I rely more on what they are like now rather than rely on my past experience with them.",Highly disagree,58/94,Somewhat agree,3,1708006474729,1708006481052,\Somewhat agree\,\Somewhat agree\,\3\,1708006480137,1708006480137,5408,5408,6323,buq,qns-item-noham,58,564391,0.0-1.0-0.57,65ce19e25297bdab38b5afb0,AWAITING REVIEW,2024-02-15T14:04:31.768000Z,2024-02-15T14:22:51.744000Z,,2024-02-15T14:22:52.412966Z,1100.0,CVPIIDEI,2087,40,Female,White,United States,United States,United States,English,No,"Not in paid work (e.g. homemaker', 'retired or disabled)",Not Applicable
58f1017ac325470001795b01,"<b>When people contradict my beliefs, I usually know about their evidence already.",Highly disagree,59/94,Highly disagree,1,1708006481054,1708006495684,\Highly disagree\,\Highly disagree\,\1\,1708006494627,1708006494627,13573,13573,14630,buq,qns-item-noham,59,579023,0.0-1.0-0.58,65ce19e25297bdab38b5afb0,AWAITING REVIEW,2024-02-15T14:04:31.768000Z,2024-02-15T14:22:51.744000Z,,2024-02-15T14:22:52.412966Z,1100.0,CVPIIDEI,2087,40,Female,White,United States,United States,United States,English,No,"Not in paid work (e.g. homemaker', 'retired or disabled)",Not Applicable
58f1017ac325470001795b01,<b>Figuring out what?s true and what?s false mainly requires a strong moral compass.,Highly disagree,60/94,Highly agree,4,1708006495686,1708006514073,\Highly agree\,\Highly agree\,\4\,1708006513188,1708006513188,17502,17502,18387,buq,qns-item-noham,60,597412,0.0-1.0-0.59,65ce19e25297bdab38b5afb0,AWAITING REVIEW,2024-02-15T14:04:31.768000Z,2024-02-15T14:22:51.744000Z,,2024-02-15T14:22:52.412966Z,1100.0,CVPIIDEI,2087,40,Female,White,United States,United States,United States,English,No,"Not in paid work (e.g. homemaker', 'retired or disabled)",Not Applicable
58f1017ac325470001795b01,"<b>Usually I?m wrong about simple things, not complicated ones.",Highly disagree,61/94,Somewhat disagree,2,1708006514074,1708006524779,\Somewhat disagree\,\Somewhat disagree\,\2\,1708006523225,1708006523225,9151,9151,10705,buq,qns-item-noham,61,608118,0.0-1.0-0.60,65ce19e25297bdab38b5afb0,AWAITING REVIEW,2024-02-15T14:04:31.768000Z,2024-02-15T14:22:51.744000Z,,2024-02-15T14:22:52.412966Z,1100.0,CVPIIDEI,2087,40,Female,White,United States,United States,United States,English,No,"Not in paid work (e.g. homemaker', 'retired or disabled)",Not Applicable
58f1017ac325470001795b01,<b>Getting all the information I want about important things is hard.,Highly disagree,62/94,Somewhat disagree,2,1708006524782,1708006531600,\Somewhat disagree\,\Somewhat disagree\,\2\,1708006530683,1708006530683,5901,5901,6818,buq,qns-item-noham,62,614939,0.0-1.0-0.61,65ce19e25297bdab38b5afb0,AWAITING REVIEW,2024-02-15T14:04:31.768000Z,2024-02-15T14:22:51.744000Z,,2024-02-15T14:22:52.412966Z,1100.0,CVPIIDEI,2087,40,Female,White,United States,United States,United States,English,No,"Not in paid work (e.g. homemaker', 'retired or disabled)",Not Applicable
58f1017ac325470001795b01,<b>Most false beliefs spread because people try to deceive one another.,Highly disagree,63/94,Highly agree,4,1708006531601,1708006558231,\Highly agree\,\Highly agree\,\4\,1708006557493,1708006557493,25892,25892,26630,buq,qns-item-noham,63,641571,0.0-1.0-0.62,65ce19e25297bdab38b5afb0,AWAITING REVIEW,2024-02-15T14:04:31.768000Z,2024-02-15T14:22:51.744000Z,,2024-02-15T14:22:52.412966Z,1100.0,CVPIIDEI,2087,40,Female,White,United States,United States,United States,English,No,"Not in paid work (e.g. homemaker', 'retired or disabled)",Not Applicable
58f1017ac325470001795b01,<b>I can usually find something to agree with in most people?s beliefs.,Highly disagree,64/94,Somewhat agree,3,1708006558233,1708006565245,\Somewhat agree\,\Somewhat agree\,\3\,1708006563861,1708006563861,5628,5628,7012,buq,qns-item-noham,64,648584,0.0-1.0-0.63,65ce19e25297bdab38b5afb0,AWAITING REVIEW,2024-02-15T14:04:31.768000Z,2024-02-15T14:22:51.744000Z,,2024-02-15T14:22:52.412966Z,1100.0,CVPIIDEI,2087,40,Female,White,United States,United States,United States,English,No,"Not in paid work (e.g. homemaker', 'retired or disabled)",Not Applicable
58f1017ac325470001795b01,<b>I only form my views of people once I get to know them very well.,Highly disagree,65/94,Somewhat disagree,2,1708006565247,1708006576694,\Somewhat disagree\,\Somewhat disagree\,\2\,1708006575467,1708006575467,10220,10220,11447,buq,qns-item-noham,65,660033,0.0-1.0-0.64,65ce19e25297bdab38b5afb0,AWAITING REVIEW,2024-02-15T14:04:31.768000Z,2024-02-15T14:22:51.744000Z,,2024-02-15T14:22:52.412966Z,1100.0,CVPIIDEI,2087,40,Female,White,United States,United States,United States,English,No,"Not in paid work (e.g. homemaker', 'retired or disabled)",Not Applicable
58f1017ac325470001795b01,"<b>When people tell me important things about the world, I usually believe them.",Highly disagree,66/94,Somewhat agree,3,1708006576696,1708006589077,\Somewhat agree\,\Somewhat agree\,\3\,1708006588074,1708006588074,11378,11378,12381,buq,qns-item-noham,66,672417,0.0-1.0-0.65,65ce19e25297bdab38b5afb0,AWAITING REVIEW,2024-02-15T14:04:31.768000Z,2024-02-15T14:22:51.744000Z,,2024-02-15T14:22:52.412966Z,1100.0,CVPIIDEI,2087,40,Female,White,United States,United States,United States,English,No,"Not in paid work (e.g. homemaker', 'retired or disabled)",Not Applicable
58f1017ac325470001795b01,"<b>If a friend does something that upsets me, it reminds me what an unpredictable place the world is.",Highly disagree,67/94,Highly disagree,1,1708006589079,1708006593826,\Highly disagree\,\Highly disagree\,\1\,1708006592673,1708006592673,3594,3594,4747,buq,qns-item-noham,67,677165,0.0-1.0-0.66,65ce19e25297bdab38b5afb0,AWAITING REVIEW,2024-02-15T14:04:31.768000Z,2024-02-15T14:22:51.744000Z,,2024-02-15T14:22:52.412966Z,1100.0,CVPIIDEI,2087,40,Female,White,United States,United States,United States,English,No,"Not in paid work (e.g. homemaker', 'retired or disabled)",Not Applicable
58f1017ac325470001795b01,<b>People tend to believe whatever is good for their friends.,Highly disagree,68/94,Somewhat agree,3,1708006593828,1708006604063,\Somewhat agree\,\Somewhat agree\,\3\,1708006602793,1708006602793,8965,8965,10235,buq,qns-item-noham,68,687402,0.0-1.0-0.67,65ce19e25297bdab38b5afb0,AWAITING REVIEW,2024-02-15T14:04:31.768000Z,2024-02-15T14:22:51.744000Z,,2024-02-15T14:22:52.412966Z,1100.0,CVPIIDEI,2087,40,Female,White,United States,United States,United States,English,No,"Not in paid work (e.g. homemaker', 'retired or disabled)",Not Applicable
58f1017ac325470001795b01,<b>I used to be more certain my beliefs were true.,Highly disagree,69/94,Somewhat agree,3,1708006604065,1708006608340,\Somewhat agree\,\Somewhat agree\,\3\,1708006607558,1708006607558,3493,3493,4275,buq,qns-item-noham,69,691679,0.0-1.0-0.68,65ce19e25297bdab38b5afb0,AWAITING REVIEW,2024-02-15T14:04:31.768000Z,2024-02-15T14:22:51.744000Z,,2024-02-15T14:22:52.412966Z,1100.0,CVPIIDEI,2087,40,Female,White,United States,United States,United States,English,No,"Not in paid work (e.g. homemaker', 'retired or disabled)",Not Applicable
58f1017ac325470001795b01,<b>It?s often pretty easy to figure out whether something is true based on who said it.,Highly disagree,70/94,Somewhat agree,3,1708006608343,1708006619459,\Somewhat agree\,\Somewhat agree\,\3\,1708006618590,1708006618590,10247,10247,11116,buq,qns-item-noham,70,702798,0.0-1.0-0.69,65ce19e25297bdab38b5afb0,AWAITING REVIEW,2024-02-15T14:04:31.768000Z,2024-02-15T14:22:51.744000Z,,2024-02-15T14:22:52.412966Z,1100.0,CVPIIDEI,2087,40,Female,White,United States,United States,United States,English,No,"Not in paid work (e.g. homemaker', 'retired or disabled)",Not Applicable
58f1017ac325470001795b01,<b>I transform into a hummingbird every day.,Highly disagree,71/94,Highly disagree,1,1708006619462,1708006638855,\Highly disagree\,\Highly disagree\,\1\,1708006637419,1708006637419,17957,17957,19393,buq,qns-item-noham,71,722195,0.0-1.0-0.70,65ce19e25297bdab38b5afb0,AWAITING REVIEW,2024-02-15T14:04:31.768000Z,2024-02-15T14:22:51.744000Z,,2024-02-15T14:22:52.412966Z,1100.0,CVPIIDEI,2087,40,Female,White,United States,United States,United States,English,No,"Not in paid work (e.g. homemaker', 'retired or disabled)",Not Applicable
58f1017ac325470001795b01,<b>I think a lot about arguments against my views.,Highly disagree,72/94,Somewhat disagree,2,1708006638857,1708006643249,\Somewhat disagree\,\Somewhat disagree\,\2\,1708006641958,1708006641958,3101,3101,4392,buq,qns-item-noham,72,726588,0.0-1.0-0.71,65ce19e25297bdab38b5afb0,AWAITING REVIEW,2024-02-15T14:04:31.768000Z,2024-02-15T14:22:51.744000Z,,2024-02-15T14:22:52.412966Z,1100.0,CVPIIDEI,2087,40,Female,White,United States,United States,United States,English,No,"Not in paid work (e.g. homemaker', 'retired or disabled)",Not Applicable
58f1017ac325470001795b01,<b>Personal experience is usually more important than facts and figures.,Highly disagree,73/94,Somewhat agree,3,1708006643252,1708006660713,\Somewhat disagree\,\Somewhat agree\,\2\,1708006655935,1708006659638,12683,16386,17461,buq,qns-item-noham,73,744052,0.0-1.0-0.72,65ce19e25297bdab38b5afb0,AWAITING REVIEW,2024-02-15T14:04:31.768000Z,2024-02-15T14:22:51.744000Z,,2024-02-15T14:22:52.412966Z,1100.0,CVPIIDEI,2087,40,Female,White,United States,United States,United States,English,No,"Not in paid work (e.g. homemaker', 'retired or disabled)",Not Applicable
58f1017ac325470001795b01,<b>I?ve been tricked before about important matters.,Highly disagree,74/94,Somewhat agree,3,1708006660715,1708006665591,\Somewhat agree\,\Somewhat agree\,\3\,1708006664731,1708006664731,4016,4016,4876,buq,qns-item-noham,74,748930,0.0-1.0-0.73,65ce19e25297bdab38b5afb0,AWAITING REVIEW,2024-02-15T14:04:31.768000Z,2024-02-15T14:22:51.744000Z,,2024-02-15T14:22:52.412966Z,1100.0,CVPIIDEI,2087,40,Female,White,United States,United States,United States,English,No,"Not in paid work (e.g. homemaker', 'retired or disabled)",Not Applicable
58f1017ac325470001795b01,<b>I would need to be totally wowed if I were to change my opinion of a restaurant I don?t like.,Highly disagree,75/94,Somewhat agree,3,1708006665592,1708006682226,\Somewhat agree\,\Somewhat agree\,\3\,1708006681263,1708006681263,15671,15671,16634,buq,qns-item-noham,75,765565,0.0-1.0-0.74,65ce19e25297bdab38b5afb0,AWAITING REVIEW,2024-02-15T14:04:31.768000Z,2024-02-15T14:22:51.744000Z,,2024-02-15T14:22:52.412966Z,1100.0,CVPIIDEI,2087,40,Female,White,United States,United States,United States,English,No,"Not in paid work (e.g. homemaker', 'retired or disabled)",Not Applicable
58f1017ac325470001795b01,<b>I care a lot about politics.,Highly disagree,76/94,Somewhat disagree,2,1708006682227,1708006692635,\Somewhat disagree\,\Somewhat disagree\,\2\,1708006691646,1708006691646,9419,9419,10408,buq,qns-item-noham,76,775974,0.0-1.0-0.75,65ce19e25297bdab38b5afb0,AWAITING REVIEW,2024-02-15T14:04:31.768000Z,2024-02-15T14:22:51.744000Z,,2024-02-15T14:22:52.412966Z,1100.0,CVPIIDEI,2087,40,Female,White,United States,United States,United States,English,No,"Not in paid work (e.g. homemaker', 'retired or disabled)",Not Applicable
58f1017ac325470001795b01,<b>There are some topics I?ve been really wrong about.,Highly disagree,77/94,Somewhat disagree,2,1708006692637,1708006696706,\Somewhat disagree\,\Somewhat disagree\,\2\,1708006695960,1708006695960,3323,3323,4069,buq,qns-item-noham,77,780045,0.0-1.0-0.76,65ce19e25297bdab38b5afb0,AWAITING REVIEW,2024-02-15T14:04:31.768000Z,2024-02-15T14:22:51.744000Z,,2024-02-15T14:22:52.412966Z,1100.0,CVPIIDEI,2087,40,Female,White,United States,United States,United States,English,No,"Not in paid work (e.g. homemaker', 'retired or disabled)",Not Applicable
58f1017ac325470001795b01,<b>Most beliefs can be supported with at least some evidence.,Highly disagree,78/94,Somewhat agree,3,1708006696707,1708006700034,\Somewhat agree\,\Somewhat agree\,\3\,1708006698998,1708006698998,2291,2291,3327,buq,qns-item-noham,78,783374,0.0-1.0-0.77,65ce19e25297bdab38b5afb0,AWAITING REVIEW,2024-02-15T14:04:31.768000Z,2024-02-15T14:22:51.744000Z,,2024-02-15T14:22:52.412966Z,1100.0,CVPIIDEI,2087,40,Female,White,United States,United States,United States,English,No,"Not in paid work (e.g. homemaker', 'retired or disabled)",Not Applicable
58f1017ac325470001795b01,<b>Other people make life out to be more complicated than it really is.,Highly disagree,79/94,Highly agree,4,1708006700036,1708006704184,\Highly agree\,\Highly agree\,\4\,1708006703407,1708006703407,3371,3371,4148,buq,qns-item-noham,79,787523,0.0-1.0-0.78,65ce19e25297bdab38b5afb0,AWAITING REVIEW,2024-02-15T14:04:31.768000Z,2024-02-15T14:22:51.744000Z,,2024-02-15T14:22:52.412966Z,1100.0,CVPIIDEI,2087,40,Female,White,United States,United States,United States,English,No,"Not in paid work (e.g. homemaker', 'retired or disabled)",Not Applicable
58f1017ac325470001795b01,"<b>Policy details don?t matter much, just the big picture.",Highly disagree,80/94,Somewhat disagree,2,1708006704185,1708006711285,\Somewhat disagree\,\Somewhat disagree\,\2\,1708006710050,1708006710050,5865,5865,7100,buq,qns-item-noham,80,794624,0.0-1.0-0.79,65ce19e25297bdab38b5afb0,AWAITING REVIEW,2024-02-15T14:04:31.768000Z,2024-02-15T14:22:51.744000Z,,2024-02-15T14:22:52.412966Z,1100.0,CVPIIDEI,2087,40,Female,White,United States,United States,United States,English,No,"Not in paid work (e.g. homemaker', 'retired or disabled)",Not Applicable
58f1017ac325470001795b01,<b>I know my friends so well they can hardly ever surprise me.,Highly disagree,81/94,Somewhat agree,3,1708006711287,1708006718089,\Somewhat agree\,\Somewhat agree\,\3\,1708006717211,1708006717211,5924,5924,6802,buq,qns-item-noham,81,801428,0.0-1.0-0.80,65ce19e25297bdab38b5afb0,AWAITING REVIEW,2024-02-15T14:04:31.768000Z,2024-02-15T14:22:51.744000Z,,2024-02-15T14:22:52.412966Z,1100.0,CVPIIDEI,2087,40,Female,White,United States,United States,United States,English,No,"Not in paid work (e.g. homemaker', 'retired or disabled)",Not Applicable
58f1017ac325470001795b01,<b>I do not often change my views on people.,Highly disagree,82/94,Somewhat disagree,2,1708006718090,1708006733791,\Somewhat disagree\,\Somewhat disagree\,\2\,1708006732954,1708006732954,14864,14864,15701,buq,qns-item-noham,82,817130,0.0-1.0-0.81,65ce19e25297bdab38b5afb0,AWAITING REVIEW,2024-02-15T14:04:31.768000Z,2024-02-15T14:22:51.744000Z,,2024-02-15T14:22:52.412966Z,1100.0,CVPIIDEI,2087,40,Female,White,United States,United States,United States,English,No,"Not in paid work (e.g. homemaker', 'retired or disabled)",Not Applicable
58f1017ac325470001795b01,<b>I?m more certain about my beliefs than I used to be.,Highly disagree,83/94,Somewhat agree,3,1708006733793,1708006741020,\Somewhat agree\,\Somewhat agree\,\3\,1708006739695,1708006739695,5902,5902,7227,buq,qns-item-noham,83,824359,0.0-1.0-0.82,65ce19e25297bdab38b5afb0,AWAITING REVIEW,2024-02-15T14:04:31.768000Z,2024-02-15T14:22:51.744000Z,,2024-02-15T14:22:52.412966Z,1100.0,CVPIIDEI,2087,40,Female,White,United States,United States,United States,English,No,"Not in paid work (e.g. homemaker', 'retired or disabled)",Not Applicable
58f1017ac325470001795b01,<b>People often tell falsehoods unintentionally.,Highly disagree,84/94,Highly agree,4,1708006741022,1708006755787,\Highly agree\,\Highly agree\,\4\,1708006754786,1708006754786,13764,13764,14765,buq,qns-item-noham,84,839126,0.0-1.0-0.83,65ce19e25297bdab38b5afb0,AWAITING REVIEW,2024-02-15T14:04:31.768000Z,2024-02-15T14:22:51.744000Z,,2024-02-15T14:22:52.412966Z,1100.0,CVPIIDEI,2087,40,Female,White,United States,United States,United States,English,No,"Not in paid work (e.g. homemaker', 'retired or disabled)",Not Applicable
58f1017ac325470001795b01,<b>Most people don?t know much about most things.,Highly disagree,85/94,Somewhat disagree,2,1708006755788,1708006780181,\Somewhat disagree\,\Somewhat disagree\,\2\,1708006779385,1708006779385,23597,23597,24393,buq,qns-item-noham,85,863520,0.0-1.0-0.84,65ce19e25297bdab38b5afb0,AWAITING REVIEW,2024-02-15T14:04:31.768000Z,2024-02-15T14:22:51.744000Z,,2024-02-15T14:22:52.412966Z,1100.0,CVPIIDEI,2087,40,Female,White,United States,United States,United States,English,No,"Not in paid work (e.g. homemaker', 'retired or disabled)",Not Applicable
58f1017ac325470001795b01,"<b>If I find out something new about someone, I easily change my views about them.",Highly disagree,86/94,Somewhat agree,3,1708006780183,1708006794072,\Somewhat agree\,\Somewhat agree\,\3\,1708006793210,1708006793210,13027,13027,13889,buq,qns-item-noham,86,877411,0.0-1.0-0.85,65ce19e25297bdab38b5afb0,AWAITING REVIEW,2024-02-15T14:04:31.768000Z,2024-02-15T14:22:51.744000Z,,2024-02-15T14:22:52.412966Z,1100.0,CVPIIDEI,2087,40,Female,White,United States,United States,United States,English,No,"Not in paid work (e.g. homemaker', 'retired or disabled)",Not Applicable
58f1017ac325470001795b01,<b>Having true beliefs is difficult.,Highly disagree,87/94,Somewhat agree,3,1708006794073,1708006832224,\Somewhat agree\,\Somewhat agree\,\3\,1708006831474,1708006831474,37401,37401,38151,buq,qns-item-noham,87,915563,0.0-1.0-0.86,65ce19e25297bdab38b5afb0,AWAITING REVIEW,2024-02-15T14:04:31.768000Z,2024-02-15T14:22:51.744000Z,,2024-02-15T14:22:52.412966Z,1100.0,CVPIIDEI,2087,40,Female,White,United States,United States,United States,English,No,"Not in paid work (e.g. homemaker', 'retired or disabled)",Not Applicable
58f1017ac325470001795b01,<b>I don?t try new foods since I know I won?t like them.,Highly disagree,88/94,Highly agree,4,1708006832226,1708006836607,\Highly agree\,\Highly agree\,\4\,1708006835691,1708006835691,3465,3465,4381,buq,qns-item-noham,88,919946,0.0-1.0-0.87,65ce19e25297bdab38b5afb0,AWAITING REVIEW,2024-02-15T14:04:31.768000Z,2024-02-15T14:22:51.744000Z,,2024-02-15T14:22:52.412966Z,1100.0,CVPIIDEI,2087,40,Female,White,United States,United States,United States,English,No,"Not in paid work (e.g. homemaker', 'retired or disabled)",Not Applicable
58f1017ac325470001795b01,<b>Other people trick each other a lot.,Highly disagree,89/94,Highly disagree,1,1708006836609,1708006850635,\Highly disagree\,\Highly disagree\,\1\,1708006849545,1708006849545,12936,12936,14026,buq,qns-item-noham,89,933974,0.0-1.0-0.88,65ce19e25297bdab38b5afb0,AWAITING REVIEW,2024-02-15T14:04:31.768000Z,2024-02-15T14:22:51.744000Z,,2024-02-15T14:22:52.412966Z,1100.0,CVPIIDEI,2087,40,Female,White,United States,United States,United States,English,No,"Not in paid work (e.g. homemaker', 'retired or disabled)",Not Applicable
58f1017ac325470001795b01,<b>I would need to learn a lot about a person for my opinion of them to be swayed.,Highly disagree,90/94,Highly agree,4,1708006850637,1708006857895,\Somewhat agree\,\Highly agree\,\3\,1708006855653,1708006856992,5016,6355,7258,buq,qns-item-noham,90,941234,0.0-1.0-0.89,65ce19e25297bdab38b5afb0,AWAITING REVIEW,2024-02-15T14:04:31.768000Z,2024-02-15T14:22:51.744000Z,,2024-02-15T14:22:52.412966Z,1100.0,CVPIIDEI,2087,40,Female,White,United States,United States,United States,English,No,"Not in paid work (e.g. homemaker', 'retired or disabled)",Not Applicable
58f1017ac325470001795b01,<b>People can?t usually trick me when it comes to topics I care about.,Highly disagree,91/94,Somewhat agree,3,1708006857897,1708006888365,\Somewhat agree\,\Somewhat agree\,\3\,1708006887511,1708006887511,29614,29614,30468,buq,qns-item-noham,91,971704,0.0-1.0-0.90,65ce19e25297bdab38b5afb0,AWAITING REVIEW,2024-02-15T14:04:31.768000Z,2024-02-15T14:22:51.744000Z,,2024-02-15T14:22:52.412966Z,1100.0,CVPIIDEI,2087,40,Female,White,United States,United States,United States,English,No,"Not in paid work (e.g. homemaker', 'retired or disabled)",Not Applicable
58f1017ac325470001795b01,<b>I do not often change my views on food.,Highly disagree,92/94,Somewhat disagree,2,1708006888366,1708006900656,\Somewhat disagree\,\Somewhat disagree\,\2\,1708006899445,1708006899445,11079,11079,12290,buq,qns-item-noham,92,983995,0.0-1.0-0.91,65ce19e25297bdab38b5afb0,AWAITING REVIEW,2024-02-15T14:04:31.768000Z,2024-02-15T14:22:51.744000Z,,2024-02-15T14:22:52.412966Z,1100.0,CVPIIDEI,2087,40,Female,White,United States,United States,United States,English,No,"Not in paid work (e.g. homemaker', 'retired or disabled)",Not Applicable
58f1017ac325470001795b01,<b>Specific policies are often very important to me.,Highly disagree,93/94,Somewhat agree,3,1708006900658,1708006904101,\Somewhat agree\,\Somewhat agree\,\3\,1708006903355,1708006903355,2697,2697,3443,buq,qns-item-noham,93,987440,0.0-1.0-0.92,65ce19e25297bdab38b5afb0,AWAITING REVIEW,2024-02-15T14:04:31.768000Z,2024-02-15T14:22:51.744000Z,,2024-02-15T14:22:52.412966Z,1100.0,CVPIIDEI,2087,40,Female,White,United States,United States,United States,English,No,"Not in paid work (e.g. homemaker', 'retired or disabled)",Not Applicable
58f1017ac325470001795b01,<b>Most people are woefully under-informed.,Highly disagree,94/94,Somewhat agree,3,1708006904102,1708006908929,\Somewhat agree\,\Somewhat agree\,\3\,1708006907297,1708006907297,3195,3195,4827,buq,qns-item-noham,94,992268,0.0-1.0-0.93,65ce19e25297bdab38b5afb0,AWAITING REVIEW,2024-02-15T14:04:31.768000Z,2024-02-15T14:22:51.744000Z,,2024-02-15T14:22:52.412966Z,1100.0,CVPIIDEI,2087,40,Female,White,United States,United States,United States,English,No,"Not in paid work (e.g. homemaker', 'retired or disabled)",Not Applicable
58f1017ac325470001795b01,,,,,,,,,,,,,,,,,,,,,65ce19e25297bdab38b5afb0,AWAITING REVIEW,2024-02-15T14:04:31.768000Z,2024-02-15T14:22:51.744000Z,,2024-02-15T14:22:52.412966Z,1100.0,CVPIIDEI,2087,40,Female,White,United States,United States,United States,English,No,"Not in paid work (e.g. homemaker', 'retired or disabled)",Not Applicable
