PROLIFIC_PID,Question,qns_options,quest_num,answer,answer_num,question_load_timestamp,next_btn_timestamp,text_selected,final_text_selected,option_num_selected,preview_timestamps,final_text_selected_time_stamp,rt_first_option_click,rt_final_option_click,rt_submit_click,questionnaire,trial_type,trial_index,time_elapsed,internal_node_id,Demographic_Submission id,Demographic_Status,Demographic_Started at,Demographic_Completed at,Demographic_Reviewed at,Demographic_Archived at,Demographic_Time taken,Demographic_Completion code,Demographic_Total approvals,Demographic_Age,Demographic_Sex,Demographic_Ethnicity simplified,Demographic_Country of birth,Demographic_Country of residence,Demographic_Nationality,Demographic_Language,Demographic_Student status,Demographic_Employment status,Demographic_Custom study tncs accepted at
6556364a457cabc2f54b1063,<b>Knowing what?s true and knowing what to do about it are usually basically the same.,Highly disagree,1/94,Somewhat disagree,2,1708006059771,1708006085680,\Somewhat disagree\,\Somewhat disagree\,\2\,1708006084617,1708006084617,24846,24846,25909,buq,qns-item-noham,1,50720,0.0-1.0-0.0,65ce1a6e25cd65224d5f17aa,AWAITING REVIEW,2024-02-15T14:06:48.901000Z,2024-02-15T14:25:06.549000Z,,2024-02-15T14:25:07.362737Z,1098.0,CVPIIDEI,280,35,Female,Mixed,United States,United States,United States,English,No,Part-Time,Not Applicable
6556364a457cabc2f54b1063,<b>Most people just believe whatever is convenient for them.,Highly disagree,2/94,Somewhat agree,3,1708006085700,1708006093498,\Somewhat agree\,\Somewhat agree\,\3\,1708006092586,1708006092586,6886,6886,7798,buq,qns-item-noham,2,58539,0.0-1.0-0.1,65ce1a6e25cd65224d5f17aa,AWAITING REVIEW,2024-02-15T14:06:48.901000Z,2024-02-15T14:25:06.549000Z,,2024-02-15T14:25:07.362737Z,1098.0,CVPIIDEI,280,35,Female,Mixed,United States,United States,United States,English,No,Part-Time,Not Applicable
6556364a457cabc2f54b1063,<b>Having some big beliefs helps me sort out minor ones.,Highly disagree,3/94,Highly agree,4,1708006093505,1708006100531,\Highly agree\,\Highly agree\,\4\,1708006099451,1708006099451,5946,5946,7026,buq,qns-item-noham,3,65571,0.0-1.0-0.2,65ce1a6e25cd65224d5f17aa,AWAITING REVIEW,2024-02-15T14:06:48.901000Z,2024-02-15T14:25:06.549000Z,,2024-02-15T14:25:07.362737Z,1098.0,CVPIIDEI,280,35,Female,Mixed,United States,United States,United States,English,No,Part-Time,Not Applicable
6556364a457cabc2f54b1063,<b>Political questions are usually pretty complicated.,Highly disagree,4/94,Somewhat agree,3,1708006100535,1708006120331,\Somewhat agree\,\Somewhat agree\,\3\,1708006118277,1708006118277,17742,17742,19796,buq,qns-item-noham,4,85371,0.0-1.0-0.3,65ce1a6e25cd65224d5f17aa,AWAITING REVIEW,2024-02-15T14:06:48.901000Z,2024-02-15T14:25:06.549000Z,,2024-02-15T14:25:07.362737Z,1098.0,CVPIIDEI,280,35,Female,Mixed,United States,United States,United States,English,No,Part-Time,Not Applicable
6556364a457cabc2f54b1063,<b>Figuring out what?s important in life requires learning a lot of facts.,Highly disagree,5/94,Somewhat agree,3,1708006120337,1708006136606,\Somewhat agree\,\Somewhat agree\,\3\,1708006135740,1708006135740,15403,15403,16269,buq,qns-item-noham,5,101646,0.0-1.0-0.4,65ce1a6e25cd65224d5f17aa,AWAITING REVIEW,2024-02-15T14:06:48.901000Z,2024-02-15T14:25:06.549000Z,,2024-02-15T14:25:07.362737Z,1098.0,CVPIIDEI,280,35,Female,Mixed,United States,United States,United States,English,No,Part-Time,Not Applicable
6556364a457cabc2f54b1063,<b>It is difficult for me to remember the last time I was surprised by politics.,Highly disagree,6/94,Somewhat agree,3,1708006136611,1708006143099,\Somewhat agree\,\Somewhat agree\,\3\,1708006142088,1708006142088,5477,5477,6488,buq,qns-item-noham,6,108140,0.0-1.0-0.5,65ce1a6e25cd65224d5f17aa,AWAITING REVIEW,2024-02-15T14:06:48.901000Z,2024-02-15T14:25:06.549000Z,,2024-02-15T14:25:07.362737Z,1098.0,CVPIIDEI,280,35,Female,Mixed,United States,United States,United States,English,No,Part-Time,Not Applicable
6556364a457cabc2f54b1063,<b>People?s false beliefs are understandable.,Highly disagree,7/94,Somewhat agree,3,1708006143106,1708006149457,\Somewhat agree\,\Somewhat agree\,\3\,1708006148346,1708006148346,5240,5240,6351,buq,qns-item-noham,7,114497,0.0-1.0-0.6,65ce1a6e25cd65224d5f17aa,AWAITING REVIEW,2024-02-15T14:06:48.901000Z,2024-02-15T14:25:06.549000Z,,2024-02-15T14:25:07.362737Z,1098.0,CVPIIDEI,280,35,Female,Mixed,United States,United States,United States,English,No,Part-Time,Not Applicable
6556364a457cabc2f54b1063,<b>I spend a lot of time trying to be informed about politics.,Highly disagree,8/94,Somewhat disagree,2,1708006149462,1708006154448,\Somewhat disagree\,\Somewhat disagree\,\2\,1708006153436,1708006153436,3974,3974,4986,buq,qns-item-noham,8,119488,0.0-1.0-0.7,65ce1a6e25cd65224d5f17aa,AWAITING REVIEW,2024-02-15T14:06:48.901000Z,2024-02-15T14:25:06.549000Z,,2024-02-15T14:25:07.362737Z,1098.0,CVPIIDEI,280,35,Female,Mixed,United States,United States,United States,English,No,Part-Time,Not Applicable
6556364a457cabc2f54b1063,<b>I think a lot about whether my beliefs are right.,Highly disagree,9/94,Somewhat agree,3,1708006154453,1708006160714,\Somewhat agree\,\Somewhat agree\,\3\,1708006159811,1708006159811,5358,5358,6261,buq,qns-item-noham,9,125754,0.0-1.0-0.8,65ce1a6e25cd65224d5f17aa,AWAITING REVIEW,2024-02-15T14:06:48.901000Z,2024-02-15T14:25:06.549000Z,,2024-02-15T14:25:07.362737Z,1098.0,CVPIIDEI,280,35,Female,Mixed,United States,United States,United States,English,No,Part-Time,Not Applicable
6556364a457cabc2f54b1063,<b>Statistics can be pretty misleading sometimes.,Highly disagree,10/94,Somewhat agree,3,1708006160719,1708006165583,\Somewhat agree\,\Somewhat agree\,\3\,1708006164766,1708006164766,4047,4047,4864,buq,qns-item-noham,10,130623,0.0-1.0-0.9,65ce1a6e25cd65224d5f17aa,AWAITING REVIEW,2024-02-15T14:06:48.901000Z,2024-02-15T14:25:06.549000Z,,2024-02-15T14:25:07.362737Z,1098.0,CVPIIDEI,280,35,Female,Mixed,United States,United States,United States,English,No,Part-Time,Not Applicable
6556364a457cabc2f54b1063,<b>I have lots of beliefs that I?m only sort of sure about.,Highly disagree,11/94,Somewhat disagree,2,1708006165588,1708006173413,\Somewhat disagree\,\Somewhat disagree\,\2\,1708006172697,1708006172697,7109,7109,7825,buq,qns-item-noham,11,138453,0.0-1.0-0.10,65ce1a6e25cd65224d5f17aa,AWAITING REVIEW,2024-02-15T14:06:48.901000Z,2024-02-15T14:25:06.549000Z,,2024-02-15T14:25:07.362737Z,1098.0,CVPIIDEI,280,35,Female,Mixed,United States,United States,United States,English,No,Part-Time,Not Applicable
6556364a457cabc2f54b1063,"<b>If I go to my favorite restaurant and the food is surprisingly bad, it reminds me there are many disappointments in life.",Highly disagree,12/94,Somewhat agree,3,1708006173418,1708006180808,\Somewhat agree\,\Somewhat agree\,\3\,1708006179793,1708006179793,6375,6375,7390,buq,qns-item-noham,12,145848,0.0-1.0-0.11,65ce1a6e25cd65224d5f17aa,AWAITING REVIEW,2024-02-15T14:06:48.901000Z,2024-02-15T14:25:06.549000Z,,2024-02-15T14:25:07.362737Z,1098.0,CVPIIDEI,280,35,Female,Mixed,United States,United States,United States,English,No,Part-Time,Not Applicable
6556364a457cabc2f54b1063,"<b>If you are paying attention, please select ?Somewhat agree?",Highly disagree,13/94,Somewhat agree,3,1708006180812,1708006185689,\Somewhat agree\,\Somewhat agree\,\3\,1708006184729,1708006184729,3917,3917,4877,buq,qns-item-noham,13,150729,0.0-1.0-0.12,65ce1a6e25cd65224d5f17aa,AWAITING REVIEW,2024-02-15T14:06:48.901000Z,2024-02-15T14:25:06.549000Z,,2024-02-15T14:25:07.362737Z,1098.0,CVPIIDEI,280,35,Female,Mixed,United States,United States,United States,English,No,Part-Time,Not Applicable
6556364a457cabc2f54b1063,"<b>When I talk to others, I often worry I?ll convince them of something I didn?t mean to.",Highly disagree,14/94,Somewhat disagree,2,1708006185695,1708006198079,\Somewhat disagree\,\Somewhat disagree\,\2\,1708006196382,1708006196382,10687,10687,12384,buq,qns-item-noham,14,163119,0.0-1.0-0.13,65ce1a6e25cd65224d5f17aa,AWAITING REVIEW,2024-02-15T14:06:48.901000Z,2024-02-15T14:25:06.549000Z,,2024-02-15T14:25:07.362737Z,1098.0,CVPIIDEI,280,35,Female,Mixed,United States,United States,United States,English,No,Part-Time,Not Applicable
6556364a457cabc2f54b1063,<b>I would need to learn something utterly shocking about my party in order to change my political views.,Highly disagree,15/94,Somewhat agree,3,1708006198083,1708006220631,\Somewhat agree\,\Somewhat agree\,\3\,1708006216209,1708006216209,18126,18126,22548,buq,qns-item-noham,15,185671,0.0-1.0-0.14,65ce1a6e25cd65224d5f17aa,AWAITING REVIEW,2024-02-15T14:06:48.901000Z,2024-02-15T14:25:06.549000Z,,2024-02-15T14:25:07.362737Z,1098.0,CVPIIDEI,280,35,Female,Mixed,United States,United States,United States,English,No,Part-Time,Not Applicable
6556364a457cabc2f54b1063,"<b>When I have new experiences, I tend to think of them as unique.",Highly disagree,16/94,Highly agree,4,1708006220635,1708006227937,\Highly agree\,\Highly agree\,\4\,1708006226834,1708006226834,6199,6199,7302,buq,qns-item-noham,16,192977,0.0-1.0-0.15,65ce1a6e25cd65224d5f17aa,AWAITING REVIEW,2024-02-15T14:06:48.901000Z,2024-02-15T14:25:06.549000Z,,2024-02-15T14:25:07.362737Z,1098.0,CVPIIDEI,280,35,Female,Mixed,United States,United States,United States,English,No,Part-Time,Not Applicable
6556364a457cabc2f54b1063,<b>I change my mind about specific policies pretty frequently.,Highly disagree,17/94,Highly disagree,1,1708006227941,1708006236499,\Highly disagree\,\Highly disagree\,\1\,1708006233565,1708006233565,5624,5624,8558,buq,qns-item-noham,17,201539,0.0-1.0-0.16,65ce1a6e25cd65224d5f17aa,AWAITING REVIEW,2024-02-15T14:06:48.901000Z,2024-02-15T14:25:06.549000Z,,2024-02-15T14:25:07.362737Z,1098.0,CVPIIDEI,280,35,Female,Mixed,United States,United States,United States,English,No,Part-Time,Not Applicable
6556364a457cabc2f54b1063,"<b>If a politician in my political party supports something I disagree with, I give them the benefit of the doubt, as such issues often involve hidden complexities that aren?t obvious.   ",Highly disagree,18/94,Somewhat agree,3,1708006236504,1708006247476,\Somewhat agree\,\Somewhat agree\,\3\,1708006246458,1708006246458,9954,9954,10972,buq,qns-item-noham,18,212516,0.0-1.0-0.17,65ce1a6e25cd65224d5f17aa,AWAITING REVIEW,2024-02-15T14:06:48.901000Z,2024-02-15T14:25:06.549000Z,,2024-02-15T14:25:07.362737Z,1098.0,CVPIIDEI,280,35,Female,Mixed,United States,United States,United States,English,No,Part-Time,Not Applicable
6556364a457cabc2f54b1063,<b>People?s bad politics are usually motivated by hatefulness.,Highly disagree,19/94,Somewhat disagree,2,1708006247480,1708006260285,\Somewhat disagree\,\Somewhat disagree\,\2\,1708006259300,1708006259300,11820,11820,12805,buq,qns-item-noham,19,225325,0.0-1.0-0.18,65ce1a6e25cd65224d5f17aa,AWAITING REVIEW,2024-02-15T14:06:48.901000Z,2024-02-15T14:25:06.549000Z,,2024-02-15T14:25:07.362737Z,1098.0,CVPIIDEI,280,35,Female,Mixed,United States,United States,United States,English,No,Part-Time,Not Applicable
6556364a457cabc2f54b1063,<b>I think a lot about how to reconcile my beliefs with one another.,Highly disagree,20/94,Somewhat agree,3,1708006260290,1708006270284,\Somewhat disagree\,\Somewhat agree\,\2\,1708006268219,1708006269386,7929,9096,9994,buq,qns-item-noham,20,235324,0.0-1.0-0.19,65ce1a6e25cd65224d5f17aa,AWAITING REVIEW,2024-02-15T14:06:48.901000Z,2024-02-15T14:25:06.549000Z,,2024-02-15T14:25:07.362737Z,1098.0,CVPIIDEI,280,35,Female,Mixed,United States,United States,United States,English,No,Part-Time,Not Applicable
6556364a457cabc2f54b1063,<b>I might have false beliefs about important topics.,Highly disagree,21/94,Somewhat disagree,2,1708006270289,1708006275754,\Somewhat disagree\,\Somewhat disagree\,\2\,1708006274461,1708006274461,4172,4172,5465,buq,qns-item-noham,21,240795,0.0-1.0-0.20,65ce1a6e25cd65224d5f17aa,AWAITING REVIEW,2024-02-15T14:06:48.901000Z,2024-02-15T14:25:06.549000Z,,2024-02-15T14:25:07.362737Z,1098.0,CVPIIDEI,280,35,Female,Mixed,United States,United States,United States,English,No,Part-Time,Not Applicable
6556364a457cabc2f54b1063,"<b>If a good friend of mine does something unexpected that upsets me, I feel like I don?t know them anymore.",Highly disagree,22/94,Somewhat agree,3,1708006275759,1708006284290,\Somewhat agree\,\Somewhat agree\,\3\,1708006283335,1708006283335,7576,7576,8531,buq,qns-item-noham,22,249330,0.0-1.0-0.21,65ce1a6e25cd65224d5f17aa,AWAITING REVIEW,2024-02-15T14:06:48.901000Z,2024-02-15T14:25:06.549000Z,,2024-02-15T14:25:07.362737Z,1098.0,CVPIIDEI,280,35,Female,Mixed,United States,United States,United States,English,No,Part-Time,Not Applicable
6556364a457cabc2f54b1063,<b>Other people?s beliefs are often incoherent.,Highly disagree,23/94,Somewhat agree,3,1708006284297,1708006290098,\Somewhat agree\,\Somewhat agree\,\3\,1708006289276,1708006289276,4979,4979,5801,buq,qns-item-noham,23,255138,0.0-1.0-0.22,65ce1a6e25cd65224d5f17aa,AWAITING REVIEW,2024-02-15T14:06:48.901000Z,2024-02-15T14:25:06.549000Z,,2024-02-15T14:25:07.362737Z,1098.0,CVPIIDEI,280,35,Female,Mixed,United States,United States,United States,English,No,Part-Time,Not Applicable
6556364a457cabc2f54b1063,"<b>Every now and then, a new experience will unsettle beliefs I?ve had for a while.",Highly disagree,24/94,Somewhat disagree,2,1708006290103,1708006309924,\Somewhat disagree\,\Somewhat disagree\,\2\,1708006306332,1708006306332,16229,16229,19821,buq,qns-item-noham,24,274964,0.0-1.0-0.23,65ce1a6e25cd65224d5f17aa,AWAITING REVIEW,2024-02-15T14:06:48.901000Z,2024-02-15T14:25:06.549000Z,,2024-02-15T14:25:07.362737Z,1098.0,CVPIIDEI,280,35,Female,Mixed,United States,United States,United States,English,No,Part-Time,Not Applicable
6556364a457cabc2f54b1063,<b>Some policies I agree with in principle are so bad I don?t support them. ,Highly disagree,25/94,Highly disagree,1,1708006309929,1708006329918,\Highly agree\,\Highly disagree\,\4\,1708006320366,1708006327037,10437,17108,19989,buq,qns-item-noham,25,294958,0.0-1.0-0.24,65ce1a6e25cd65224d5f17aa,AWAITING REVIEW,2024-02-15T14:06:48.901000Z,2024-02-15T14:25:06.549000Z,,2024-02-15T14:25:07.362737Z,1098.0,CVPIIDEI,280,35,Female,Mixed,United States,United States,United States,English,No,Part-Time,Not Applicable
6556364a457cabc2f54b1063,<b>I?m pretty sure I?ve accidentally spread false information.,Highly disagree,26/94,Somewhat disagree,2,1708006329922,1708006336760,\Somewhat disagree\,\Somewhat disagree\,\2\,1708006335780,1708006335780,5858,5858,6838,buq,qns-item-noham,26,301800,0.0-1.0-0.25,65ce1a6e25cd65224d5f17aa,AWAITING REVIEW,2024-02-15T14:06:48.901000Z,2024-02-15T14:25:06.549000Z,,2024-02-15T14:25:07.362737Z,1098.0,CVPIIDEI,280,35,Female,Mixed,United States,United States,United States,English,No,Part-Time,Not Applicable
6556364a457cabc2f54b1063,"<b>If I go to my favorite restaurant and the food is unexpectedly bad, then they have changed owners.",Highly disagree,27/94,Somewhat disagree,2,1708006336765,1708006361258,\Somewhat disagree\,\Somewhat disagree\,\2\,1708006359909,1708006359909,23144,23144,24493,buq,qns-item-noham,27,326298,0.0-1.0-0.26,65ce1a6e25cd65224d5f17aa,AWAITING REVIEW,2024-02-15T14:06:48.901000Z,2024-02-15T14:25:06.549000Z,,2024-02-15T14:25:07.362737Z,1098.0,CVPIIDEI,280,35,Female,Mixed,United States,United States,United States,English,No,Part-Time,Not Applicable
6556364a457cabc2f54b1063,"<b>In politics, it?s important to trust your friends and family.",Highly disagree,28/94,Somewhat disagree,2,1708006361261,1708006415145,\Somewhat disagree\,\Somewhat disagree\,\2\,1708006413843,1708006413843,52582,52582,53884,buq,qns-item-noham,28,380185,0.0-1.0-0.27,65ce1a6e25cd65224d5f17aa,AWAITING REVIEW,2024-02-15T14:06:48.901000Z,2024-02-15T14:25:06.549000Z,,2024-02-15T14:25:07.362737Z,1098.0,CVPIIDEI,280,35,Female,Mixed,United States,United States,United States,English,No,Part-Time,Not Applicable
6556364a457cabc2f54b1063,<b>It?s OK to have some conflicting beliefs.,Highly disagree,29/94,Somewhat agree,3,1708006415149,1708006424237,\Somewhat agree\,\Somewhat agree\,\3\,1708006422471,1708006422471,7322,7322,9088,buq,qns-item-noham,29,389277,0.0-1.0-0.28,65ce1a6e25cd65224d5f17aa,AWAITING REVIEW,2024-02-15T14:06:48.901000Z,2024-02-15T14:25:06.549000Z,,2024-02-15T14:25:07.362737Z,1098.0,CVPIIDEI,280,35,Female,Mixed,United States,United States,United States,English,No,Part-Time,Not Applicable
6556364a457cabc2f54b1063,<b>Listening to people I disagree with makes my opinions better.,Highly disagree,30/94,Somewhat agree,3,1708006424242,1708006429656,\Somewhat agree\,\Somewhat agree\,\3\,1708006428823,1708006428823,4581,4581,5414,buq,qns-item-noham,30,394696,0.0-1.0-0.29,65ce1a6e25cd65224d5f17aa,AWAITING REVIEW,2024-02-15T14:06:48.901000Z,2024-02-15T14:25:06.549000Z,,2024-02-15T14:25:07.362737Z,1098.0,CVPIIDEI,280,35,Female,Mixed,United States,United States,United States,English,No,Part-Time,Not Applicable
6556364a457cabc2f54b1063,<b>My moral compass sometimes makes it harder to determine what?s true.,Highly disagree,31/94,Highly disagree,1,1708006429663,1708006437329,\Highly disagree\,\Highly disagree\,\1\,1708006436015,1708006436015,6352,6352,7666,buq,qns-item-noham,31,402369,0.0-1.0-0.30,65ce1a6e25cd65224d5f17aa,AWAITING REVIEW,2024-02-15T14:06:48.901000Z,2024-02-15T14:25:06.549000Z,,2024-02-15T14:25:07.362737Z,1098.0,CVPIIDEI,280,35,Female,Mixed,United States,United States,United States,English,No,Part-Time,Not Applicable
6556364a457cabc2f54b1063,<b>Evidence pointing in the wrong direction isn?t really evidence at all.,Highly disagree,32/94,Highly disagree,1,1708006437333,1708006447875,\Highly disagree\,\Highly disagree\,\1\,1708006446971,1708006446971,9638,9638,10542,buq,qns-item-noham,32,412915,0.0-1.0-0.31,65ce1a6e25cd65224d5f17aa,AWAITING REVIEW,2024-02-15T14:06:48.901000Z,2024-02-15T14:25:06.549000Z,,2024-02-15T14:25:07.362737Z,1098.0,CVPIIDEI,280,35,Female,Mixed,United States,United States,United States,English,No,Part-Time,Not Applicable
6556364a457cabc2f54b1063,"<b>If the political party I support messes up, it makes me think politics is rotten.",Highly disagree,33/94,Somewhat agree,3,1708006447878,1708006460197,\Somewhat disagree\,\Somewhat agree\,\2\,1708006456081,1708006459345,8203,11467,12319,buq,qns-item-noham,33,425237,0.0-1.0-0.32,65ce1a6e25cd65224d5f17aa,AWAITING REVIEW,2024-02-15T14:06:48.901000Z,2024-02-15T14:25:06.549000Z,,2024-02-15T14:25:07.362737Z,1098.0,CVPIIDEI,280,35,Female,Mixed,United States,United States,United States,English,No,Part-Time,Not Applicable
6556364a457cabc2f54b1063,<b>Lots of important topics can only really be understood by some groups of people.,Highly disagree,34/94,Somewhat disagree,2,1708006460201,1708006467131,\Somewhat disagree\,\Somewhat disagree\,\2\,1708006465963,1708006465963,5762,5762,6930,buq,qns-item-noham,34,432171,0.0-1.0-0.33,65ce1a6e25cd65224d5f17aa,AWAITING REVIEW,2024-02-15T14:06:48.901000Z,2024-02-15T14:25:06.549000Z,,2024-02-15T14:25:07.362737Z,1098.0,CVPIIDEI,280,35,Female,Mixed,United States,United States,United States,English,No,Part-Time,Not Applicable
6556364a457cabc2f54b1063,<b>Having conflicting beliefs means you haven?t thought about them enough.,Highly disagree,35/94,Somewhat agree,3,1708006467136,1708006472813,\Somewhat agree\,\Somewhat agree\,\3\,1708006471907,1708006471907,4771,4771,5677,buq,qns-item-noham,35,437853,0.0-1.0-0.34,65ce1a6e25cd65224d5f17aa,AWAITING REVIEW,2024-02-15T14:06:48.901000Z,2024-02-15T14:25:06.549000Z,,2024-02-15T14:25:07.362737Z,1098.0,CVPIIDEI,280,35,Female,Mixed,United States,United States,United States,English,No,Part-Time,Not Applicable
6556364a457cabc2f54b1063,<b>I do not often change my political opinions.,Highly disagree,36/94,Highly agree,4,1708006472818,1708006477156,\Highly agree\,\Highly agree\,\4\,1708006476207,1708006476207,3389,3389,4338,buq,qns-item-noham,36,442197,0.0-1.0-0.35,65ce1a6e25cd65224d5f17aa,AWAITING REVIEW,2024-02-15T14:06:48.901000Z,2024-02-15T14:25:06.549000Z,,2024-02-15T14:25:07.362737Z,1098.0,CVPIIDEI,280,35,Female,Mixed,United States,United States,United States,English,No,Part-Time,Not Applicable
6556364a457cabc2f54b1063,<b>It?s difficult to not have at least some conflicting beliefs.,Highly disagree,37/94,Somewhat disagree,2,1708006477162,1708006483705,\Somewhat disagree\,\Somewhat disagree\,\2\,1708006482371,1708006482371,5209,5209,6543,buq,qns-item-noham,37,448745,0.0-1.0-0.36,65ce1a6e25cd65224d5f17aa,AWAITING REVIEW,2024-02-15T14:06:48.901000Z,2024-02-15T14:25:06.549000Z,,2024-02-15T14:25:07.362737Z,1098.0,CVPIIDEI,280,35,Female,Mixed,United States,United States,United States,English,No,Part-Time,Not Applicable
6556364a457cabc2f54b1063,<b>Wishful thinking causes a lot of problems.,Highly disagree,38/94,Somewhat agree,3,1708006483710,1708006514840,\Somewhat agree\,\Somewhat agree\,\3\,1708006513930,1708006513930,30220,30220,31130,buq,qns-item-noham,38,479881,0.0-1.0-0.37,65ce1a6e25cd65224d5f17aa,AWAITING REVIEW,2024-02-15T14:06:48.901000Z,2024-02-15T14:25:06.549000Z,,2024-02-15T14:25:07.362737Z,1098.0,CVPIIDEI,280,35,Female,Mixed,United States,United States,United States,English,No,Part-Time,Not Applicable
6556364a457cabc2f54b1063,<b>I judge a food item only once I try it many times.,Highly disagree,39/94,Somewhat disagree,2,1708006514845,1708006535087,\Somewhat agree\,\Somewhat disagree\,\3\,1708006528930,1708006534119,14085,19274,20242,buq,qns-item-noham,39,500127,0.0-1.0-0.38,65ce1a6e25cd65224d5f17aa,AWAITING REVIEW,2024-02-15T14:06:48.901000Z,2024-02-15T14:25:06.549000Z,,2024-02-15T14:25:07.362737Z,1098.0,CVPIIDEI,280,35,Female,Mixed,United States,United States,United States,English,No,Part-Time,Not Applicable
6556364a457cabc2f54b1063,"<b>When a person holds conflicting beliefs, they should really try to figure out what?s wrong.",Highly disagree,40/94,Somewhat agree,3,1708006535090,1708006541684,\Somewhat agree\,\Somewhat agree\,\3\,1708006540833,1708006540833,5743,5743,6594,buq,qns-item-noham,40,506724,0.0-1.0-0.39,65ce1a6e25cd65224d5f17aa,AWAITING REVIEW,2024-02-15T14:06:48.901000Z,2024-02-15T14:25:06.549000Z,,2024-02-15T14:25:07.362737Z,1098.0,CVPIIDEI,280,35,Female,Mixed,United States,United States,United States,English,No,Part-Time,Not Applicable
6556364a457cabc2f54b1063,<b>Knowing what?s important in life is easy.,Highly disagree,41/94,Somewhat agree,3,1708006541689,1708006549119,\Somewhat agree\,\Somewhat agree\,\3\,1708006548219,1708006548219,6530,6530,7430,buq,qns-item-noham,41,514159,0.0-1.0-0.40,65ce1a6e25cd65224d5f17aa,AWAITING REVIEW,2024-02-15T14:06:48.901000Z,2024-02-15T14:25:06.549000Z,,2024-02-15T14:25:07.362737Z,1098.0,CVPIIDEI,280,35,Female,Mixed,United States,United States,United States,English,No,Part-Time,Not Applicable
6556364a457cabc2f54b1063,<b>I swim across the Atlantic Ocean to get to work every day.,Highly disagree,42/94,Highly disagree,1,1708006549122,1708006554058,\Highly disagree\,\Highly disagree\,\1\,1708006552127,1708006552127,3005,3005,4936,buq,qns-item-noham,42,519098,0.0-1.0-0.41,65ce1a6e25cd65224d5f17aa,AWAITING REVIEW,2024-02-15T14:06:48.901000Z,2024-02-15T14:25:06.549000Z,,2024-02-15T14:25:07.362737Z,1098.0,CVPIIDEI,280,35,Female,Mixed,United States,United States,United States,English,No,Part-Time,Not Applicable
6556364a457cabc2f54b1063,"<b>Sometimes, you just have to ignore evidence that you know is wrong.",Highly disagree,43/94,Highly disagree,1,1708006554062,1708006568425,\Somewhat disagree\,\Highly disagree\,\2\,1708006561114,1708006563426,7052,9364,14363,buq,qns-item-noham,43,533465,0.0-1.0-0.42,65ce1a6e25cd65224d5f17aa,AWAITING REVIEW,2024-02-15T14:06:48.901000Z,2024-02-15T14:25:06.549000Z,,2024-02-15T14:25:07.362737Z,1098.0,CVPIIDEI,280,35,Female,Mixed,United States,United States,United States,English,No,Part-Time,Not Applicable
6556364a457cabc2f54b1063,<b>I have had some false beliefs.,Highly disagree,44/94,Somewhat agree,3,1708006568428,1708006573749,\Somewhat agree\,\Somewhat agree\,\3\,1708006571965,1708006571965,3537,3537,5321,buq,qns-item-noham,44,538789,0.0-1.0-0.43,65ce1a6e25cd65224d5f17aa,AWAITING REVIEW,2024-02-15T14:06:48.901000Z,2024-02-15T14:25:06.549000Z,,2024-02-15T14:25:07.362737Z,1098.0,CVPIIDEI,280,35,Female,Mixed,United States,United States,United States,English,No,Part-Time,Not Applicable
6556364a457cabc2f54b1063,"<b>If one friend does something that upsets me, I sometimes start to distrust people in general.",Highly disagree,45/94,Somewhat agree,3,1708006573753,1708006583027,\Somewhat agree\,\Somewhat agree\,\3\,1708006581656,1708006581656,7903,7903,9274,buq,qns-item-noham,45,548067,0.0-1.0-0.44,65ce1a6e25cd65224d5f17aa,AWAITING REVIEW,2024-02-15T14:06:48.901000Z,2024-02-15T14:25:06.549000Z,,2024-02-15T14:25:07.362737Z,1098.0,CVPIIDEI,280,35,Female,Mixed,United States,United States,United States,English,No,Part-Time,Not Applicable
6556364a457cabc2f54b1063,<b>The facts about most important matters are easy to find.,Highly disagree,46/94,Somewhat disagree,2,1708006583032,1708006598739,\Somewhat disagree\,\Somewhat disagree\,\2\,1708006597426,1708006597426,14394,14394,15707,buq,qns-item-noham,46,563779,0.0-1.0-0.45,65ce1a6e25cd65224d5f17aa,AWAITING REVIEW,2024-02-15T14:06:48.901000Z,2024-02-15T14:25:06.549000Z,,2024-02-15T14:25:07.362737Z,1098.0,CVPIIDEI,280,35,Female,Mixed,United States,United States,United States,English,No,Part-Time,Not Applicable
6556364a457cabc2f54b1063,<b>It?s better to know what?s true than to know what?s moral.,Highly disagree,47/94,Somewhat disagree,2,1708006598743,1708006626409,\Somewhat disagree\,\Somewhat disagree\,\2\,1708006623835,1708006623835,25092,25092,27666,buq,qns-item-noham,47,591449,0.0-1.0-0.46,65ce1a6e25cd65224d5f17aa,AWAITING REVIEW,2024-02-15T14:06:48.901000Z,2024-02-15T14:25:06.549000Z,,2024-02-15T14:25:07.362737Z,1098.0,CVPIIDEI,280,35,Female,Mixed,United States,United States,United States,English,No,Part-Time,Not Applicable
6556364a457cabc2f54b1063,<b>I used to think the world was less complicated than I do now.,Highly disagree,48/94,Highly agree,4,1708006626413,1708006637167,\Highly agree\,\Highly agree\,\4\,1708006633669,1708006633669,7256,7256,10754,buq,qns-item-noham,48,602207,0.0-1.0-0.47,65ce1a6e25cd65224d5f17aa,AWAITING REVIEW,2024-02-15T14:06:48.901000Z,2024-02-15T14:25:06.549000Z,,2024-02-15T14:25:07.362737Z,1098.0,CVPIIDEI,280,35,Female,Mixed,United States,United States,United States,English,No,Part-Time,Not Applicable
6556364a457cabc2f54b1063,<b>People are usually completely right or completely wrong.,Highly disagree,49/94,Somewhat disagree,2,1708006637171,1708006644104,\Somewhat disagree\,\Somewhat disagree\,\2\,1708006643188,1708006643188,6017,6017,6933,buq,qns-item-noham,49,609144,0.0-1.0-0.48,65ce1a6e25cd65224d5f17aa,AWAITING REVIEW,2024-02-15T14:06:48.901000Z,2024-02-15T14:25:06.549000Z,,2024-02-15T14:25:07.362737Z,1098.0,CVPIIDEI,280,35,Female,Mixed,United States,United States,United States,English,No,Part-Time,Not Applicable
6556364a457cabc2f54b1063,<b>I spend a lot of time considering alternatives to my beliefs.,Highly disagree,50/94,Somewhat agree,3,1708006644107,1708006651813,\Somewhat agree\,\Somewhat agree\,\3\,1708006650801,1708006650801,6694,6694,7706,buq,qns-item-noham,50,616853,0.0-1.0-0.49,65ce1a6e25cd65224d5f17aa,AWAITING REVIEW,2024-02-15T14:06:48.901000Z,2024-02-15T14:25:06.549000Z,,2024-02-15T14:25:07.362737Z,1098.0,CVPIIDEI,280,35,Female,Mixed,United States,United States,United States,English,No,Part-Time,Not Applicable
6556364a457cabc2f54b1063,"<b>Political enemies need to be defeated, not convinced.",Highly disagree,51/94,Somewhat disagree,2,1708006651818,1708006658918,\Somewhat disagree\,\Somewhat disagree\,\2\,1708006657894,1708006657894,6076,6076,7100,buq,qns-item-noham,51,623958,0.0-1.0-0.50,65ce1a6e25cd65224d5f17aa,AWAITING REVIEW,2024-02-15T14:06:48.901000Z,2024-02-15T14:25:06.549000Z,,2024-02-15T14:25:07.362737Z,1098.0,CVPIIDEI,280,35,Female,Mixed,United States,United States,United States,English,No,Part-Time,Not Applicable
6556364a457cabc2f54b1063,<b>I form my political views only after meticulously gathering historical and present information about their policies.,Highly disagree,52/94,Somewhat disagree,2,1708006658923,1708006671596,\Somewhat disagree\,\Somewhat disagree\,\2\,1708006670388,1708006670388,11465,11465,12673,buq,qns-item-noham,52,636637,0.0-1.0-0.51,65ce1a6e25cd65224d5f17aa,AWAITING REVIEW,2024-02-15T14:06:48.901000Z,2024-02-15T14:25:06.549000Z,,2024-02-15T14:25:07.362737Z,1098.0,CVPIIDEI,280,35,Female,Mixed,United States,United States,United States,English,No,Part-Time,Not Applicable
6556364a457cabc2f54b1063,<b>It is difficult for me to remember the last time I was surprised by politics.,Highly disagree,53/94,Somewhat agree,3,1708006671601,1708006680368,\Somewhat agree\,\Somewhat agree\,\3\,1708006677051,1708006677051,5450,5450,8767,buq,qns-item-noham,53,645408,0.0-1.0-0.52,65ce1a6e25cd65224d5f17aa,AWAITING REVIEW,2024-02-15T14:06:48.901000Z,2024-02-15T14:25:06.549000Z,,2024-02-15T14:25:07.362737Z,1098.0,CVPIIDEI,280,35,Female,Mixed,United States,United States,United States,English,No,Part-Time,Not Applicable
6556364a457cabc2f54b1063,"<b>When I find out I?m wrong, I think a lot about my related beliefs.",Highly disagree,54/94,Somewhat agree,3,1708006680372,1708006685746,\Somewhat agree\,\Somewhat agree\,\3\,1708006684937,1708006684937,4565,4565,5374,buq,qns-item-noham,54,650786,0.0-1.0-0.53,65ce1a6e25cd65224d5f17aa,AWAITING REVIEW,2024-02-15T14:06:48.901000Z,2024-02-15T14:25:06.549000Z,,2024-02-15T14:25:07.362737Z,1098.0,CVPIIDEI,280,35,Female,Mixed,United States,United States,United States,English,No,Part-Time,Not Applicable
6556364a457cabc2f54b1063,"<b>If the political party I support messes up, it makes me think you can?t trust anyone these days",Highly disagree,55/94,Somewhat agree,3,1708006685753,1708006693612,\Somewhat agree\,\Somewhat agree\,\3\,1708006692849,1708006692849,7096,7096,7859,buq,qns-item-noham,55,658652,0.0-1.0-0.54,65ce1a6e25cd65224d5f17aa,AWAITING REVIEW,2024-02-15T14:06:48.901000Z,2024-02-15T14:25:06.549000Z,,2024-02-15T14:25:07.362737Z,1098.0,CVPIIDEI,280,35,Female,Mixed,United States,United States,United States,English,No,Part-Time,Not Applicable
6556364a457cabc2f54b1063,<b>People?s brains turn off when they talk about politics.,Highly disagree,56/94,Somewhat agree,3,1708006693615,1708006700535,\Somewhat agree\,\Somewhat agree\,\3\,1708006699271,1708006699271,5656,5656,6920,buq,qns-item-noham,56,665575,0.0-1.0-0.55,65ce1a6e25cd65224d5f17aa,AWAITING REVIEW,2024-02-15T14:06:48.901000Z,2024-02-15T14:25:06.549000Z,,2024-02-15T14:25:07.362737Z,1098.0,CVPIIDEI,280,35,Female,Mixed,United States,United States,United States,English,No,Part-Time,Not Applicable
6556364a457cabc2f54b1063,<b>People who are wrong are usually just ignoring the obvious.,Highly disagree,57/94,Somewhat agree,3,1708006700539,1708006716985,\Somewhat agree\,\Somewhat agree\,\3\,1708006716072,1708006716072,15533,15533,16446,buq,qns-item-noham,57,682025,0.0-1.0-0.56,65ce1a6e25cd65224d5f17aa,AWAITING REVIEW,2024-02-15T14:06:48.901000Z,2024-02-15T14:25:06.549000Z,,2024-02-15T14:25:07.362737Z,1098.0,CVPIIDEI,280,35,Female,Mixed,United States,United States,United States,English,No,Part-Time,Not Applicable
6556364a457cabc2f54b1063,"<b>When forming my views on people, I rely more on what they are like now rather than rely on my past experience with them.",Highly disagree,58/94,Somewhat disagree,2,1708006716992,1708006727137,\Somewhat disagree\,\Somewhat disagree\,\2\,1708006726137,1708006726137,9145,9145,10145,buq,qns-item-noham,58,692177,0.0-1.0-0.57,65ce1a6e25cd65224d5f17aa,AWAITING REVIEW,2024-02-15T14:06:48.901000Z,2024-02-15T14:25:06.549000Z,,2024-02-15T14:25:07.362737Z,1098.0,CVPIIDEI,280,35,Female,Mixed,United States,United States,United States,English,No,Part-Time,Not Applicable
6556364a457cabc2f54b1063,"<b>When people contradict my beliefs, I usually know about their evidence already.",Highly disagree,59/94,Somewhat agree,3,1708006727140,1708006737627,\Somewhat agree\,\Somewhat agree\,\3\,1708006733348,1708006733348,6208,6208,10487,buq,qns-item-noham,59,702667,0.0-1.0-0.58,65ce1a6e25cd65224d5f17aa,AWAITING REVIEW,2024-02-15T14:06:48.901000Z,2024-02-15T14:25:06.549000Z,,2024-02-15T14:25:07.362737Z,1098.0,CVPIIDEI,280,35,Female,Mixed,United States,United States,United States,English,No,Part-Time,Not Applicable
6556364a457cabc2f54b1063,<b>Figuring out what?s true and what?s false mainly requires a strong moral compass.,Highly disagree,60/94,Somewhat disagree,2,1708006737630,1708006763353,\Somewhat disagree\,\Somewhat disagree\,\2\,1708006762391,1708006762391,24761,24761,25723,buq,qns-item-noham,60,728393,0.0-1.0-0.59,65ce1a6e25cd65224d5f17aa,AWAITING REVIEW,2024-02-15T14:06:48.901000Z,2024-02-15T14:25:06.549000Z,,2024-02-15T14:25:07.362737Z,1098.0,CVPIIDEI,280,35,Female,Mixed,United States,United States,United States,English,No,Part-Time,Not Applicable
6556364a457cabc2f54b1063,"<b>Usually I?m wrong about simple things, not complicated ones.",Highly disagree,61/94,Somewhat disagree,2,1708006763358,1708006790641,\Somewhat agree\,\Somewhat disagree\,\3\,1708006787133,1708006789363,23775,26005,27283,buq,qns-item-noham,61,755681,0.0-1.0-0.60,65ce1a6e25cd65224d5f17aa,AWAITING REVIEW,2024-02-15T14:06:48.901000Z,2024-02-15T14:25:06.549000Z,,2024-02-15T14:25:07.362737Z,1098.0,CVPIIDEI,280,35,Female,Mixed,United States,United States,United States,English,No,Part-Time,Not Applicable
6556364a457cabc2f54b1063,<b>Getting all the information I want about important things is hard.,Highly disagree,62/94,Somewhat agree,3,1708006790644,1708006802836,\Somewhat disagree\,\Somewhat agree\,\2\,1708006796385,1708006798836,5741,8192,12192,buq,qns-item-noham,62,767876,0.0-1.0-0.61,65ce1a6e25cd65224d5f17aa,AWAITING REVIEW,2024-02-15T14:06:48.901000Z,2024-02-15T14:25:06.549000Z,,2024-02-15T14:25:07.362737Z,1098.0,CVPIIDEI,280,35,Female,Mixed,United States,United States,United States,English,No,Part-Time,Not Applicable
6556364a457cabc2f54b1063,<b>Most false beliefs spread because people try to deceive one another.,Highly disagree,63/94,Somewhat agree,3,1708006802839,1708006809079,\Somewhat agree\,\Somewhat agree\,\3\,1708006807504,1708006807504,4665,4665,6240,buq,qns-item-noham,63,774120,0.0-1.0-0.62,65ce1a6e25cd65224d5f17aa,AWAITING REVIEW,2024-02-15T14:06:48.901000Z,2024-02-15T14:25:06.549000Z,,2024-02-15T14:25:07.362737Z,1098.0,CVPIIDEI,280,35,Female,Mixed,United States,United States,United States,English,No,Part-Time,Not Applicable
6556364a457cabc2f54b1063,<b>I can usually find something to agree with in most people?s beliefs.,Highly disagree,64/94,Somewhat agree,3,1708006809085,1708006816164,\Somewhat agree\,\Somewhat agree\,\3\,1708006815294,1708006815294,6209,6209,7079,buq,qns-item-noham,64,781204,0.0-1.0-0.63,65ce1a6e25cd65224d5f17aa,AWAITING REVIEW,2024-02-15T14:06:48.901000Z,2024-02-15T14:25:06.549000Z,,2024-02-15T14:25:07.362737Z,1098.0,CVPIIDEI,280,35,Female,Mixed,United States,United States,United States,English,No,Part-Time,Not Applicable
6556364a457cabc2f54b1063,<b>I only form my views of people once I get to know them very well.,Highly disagree,65/94,Somewhat disagree,2,1708006816168,1708006827349,\Somewhat disagree\,\Somewhat disagree\,\2\,1708006823881,1708006823881,7713,7713,11181,buq,qns-item-noham,65,792389,0.0-1.0-0.64,65ce1a6e25cd65224d5f17aa,AWAITING REVIEW,2024-02-15T14:06:48.901000Z,2024-02-15T14:25:06.549000Z,,2024-02-15T14:25:07.362737Z,1098.0,CVPIIDEI,280,35,Female,Mixed,United States,United States,United States,English,No,Part-Time,Not Applicable
6556364a457cabc2f54b1063,"<b>When people tell me important things about the world, I usually believe them.",Highly disagree,66/94,Somewhat disagree,2,1708006827353,1708006833800,\Somewhat disagree\,\Somewhat disagree\,\2\,1708006832736,1708006832736,5383,5383,6447,buq,qns-item-noham,66,798840,0.0-1.0-0.65,65ce1a6e25cd65224d5f17aa,AWAITING REVIEW,2024-02-15T14:06:48.901000Z,2024-02-15T14:25:06.549000Z,,2024-02-15T14:25:07.362737Z,1098.0,CVPIIDEI,280,35,Female,Mixed,United States,United States,United States,English,No,Part-Time,Not Applicable
6556364a457cabc2f54b1063,"<b>If a friend does something that upsets me, it reminds me what an unpredictable place the world is.",Highly disagree,67/94,Somewhat agree,3,1708006833805,1708006849520,\Somewhat agree\,\Somewhat agree\,\3\,1708006848192,1708006848192,14387,14387,15715,buq,qns-item-noham,67,814561,0.0-1.0-0.66,65ce1a6e25cd65224d5f17aa,AWAITING REVIEW,2024-02-15T14:06:48.901000Z,2024-02-15T14:25:06.549000Z,,2024-02-15T14:25:07.362737Z,1098.0,CVPIIDEI,280,35,Female,Mixed,United States,United States,United States,English,No,Part-Time,Not Applicable
6556364a457cabc2f54b1063,<b>People tend to believe whatever is good for their friends.,Highly disagree,68/94,Somewhat disagree,2,1708006849524,1708006863371,\Somewhat disagree\,\Somewhat disagree\,\2\,1708006862461,1708006862461,12937,12937,13847,buq,qns-item-noham,68,828411,0.0-1.0-0.67,65ce1a6e25cd65224d5f17aa,AWAITING REVIEW,2024-02-15T14:06:48.901000Z,2024-02-15T14:25:06.549000Z,,2024-02-15T14:25:07.362737Z,1098.0,CVPIIDEI,280,35,Female,Mixed,United States,United States,United States,English,No,Part-Time,Not Applicable
6556364a457cabc2f54b1063,<b>I used to be more certain my beliefs were true.,Highly disagree,69/94,Somewhat disagree,2,1708006863376,1708006867985,\Somewhat disagree\,\Somewhat disagree\,\2\,1708006866948,1708006866948,3572,3572,4609,buq,qns-item-noham,69,833025,0.0-1.0-0.68,65ce1a6e25cd65224d5f17aa,AWAITING REVIEW,2024-02-15T14:06:48.901000Z,2024-02-15T14:25:06.549000Z,,2024-02-15T14:25:07.362737Z,1098.0,CVPIIDEI,280,35,Female,Mixed,United States,United States,United States,English,No,Part-Time,Not Applicable
6556364a457cabc2f54b1063,<b>It?s often pretty easy to figure out whether something is true based on who said it.,Highly disagree,70/94,Somewhat agree,3,1708006867990,1708006884493,\Somewhat agree\,\Somewhat agree\,\3\,1708006883513,1708006883513,15523,15523,16503,buq,qns-item-noham,70,849533,0.0-1.0-0.69,65ce1a6e25cd65224d5f17aa,AWAITING REVIEW,2024-02-15T14:06:48.901000Z,2024-02-15T14:25:06.549000Z,,2024-02-15T14:25:07.362737Z,1098.0,CVPIIDEI,280,35,Female,Mixed,United States,United States,United States,English,No,Part-Time,Not Applicable
6556364a457cabc2f54b1063,<b>I transform into a hummingbird every day.,Highly disagree,71/94,Highly disagree,1,1708006884495,1708006887992,\Highly disagree\,\Highly disagree\,\1\,1708006886814,1708006886814,2319,2319,3497,buq,qns-item-noham,71,853032,0.0-1.0-0.70,65ce1a6e25cd65224d5f17aa,AWAITING REVIEW,2024-02-15T14:06:48.901000Z,2024-02-15T14:25:06.549000Z,,2024-02-15T14:25:07.362737Z,1098.0,CVPIIDEI,280,35,Female,Mixed,United States,United States,United States,English,No,Part-Time,Not Applicable
6556364a457cabc2f54b1063,<b>I think a lot about arguments against my views.,Highly disagree,72/94,Somewhat agree,3,1708006887996,1708006894282,\Somewhat agree\,\Somewhat agree\,\3\,1708006893305,1708006893305,5309,5309,6286,buq,qns-item-noham,72,859322,0.0-1.0-0.71,65ce1a6e25cd65224d5f17aa,AWAITING REVIEW,2024-02-15T14:06:48.901000Z,2024-02-15T14:25:06.549000Z,,2024-02-15T14:25:07.362737Z,1098.0,CVPIIDEI,280,35,Female,Mixed,United States,United States,United States,English,No,Part-Time,Not Applicable
6556364a457cabc2f54b1063,<b>Personal experience is usually more important than facts and figures.,Highly disagree,73/94,Somewhat agree,3,1708006894285,1708006908668,\Somewhat agree\,\Somewhat agree\,\3\,1708006907548,1708006907548,13263,13263,14383,buq,qns-item-noham,73,873709,0.0-1.0-0.72,65ce1a6e25cd65224d5f17aa,AWAITING REVIEW,2024-02-15T14:06:48.901000Z,2024-02-15T14:25:06.549000Z,,2024-02-15T14:25:07.362737Z,1098.0,CVPIIDEI,280,35,Female,Mixed,United States,United States,United States,English,No,Part-Time,Not Applicable
6556364a457cabc2f54b1063,<b>I?ve been tricked before about important matters.,Highly disagree,74/94,Somewhat agree,3,1708006908673,1708006917901,\Somewhat agree\,\Somewhat agree\,\3\,1708006916190,1708006916190,7517,7517,9228,buq,qns-item-noham,74,882941,0.0-1.0-0.73,65ce1a6e25cd65224d5f17aa,AWAITING REVIEW,2024-02-15T14:06:48.901000Z,2024-02-15T14:25:06.549000Z,,2024-02-15T14:25:07.362737Z,1098.0,CVPIIDEI,280,35,Female,Mixed,United States,United States,United States,English,No,Part-Time,Not Applicable
6556364a457cabc2f54b1063,<b>I would need to be totally wowed if I were to change my opinion of a restaurant I don?t like.,Highly disagree,75/94,Highly agree,4,1708006917906,1708006926278,\Highly agree\,\Highly agree\,\4\,1708006925356,1708006925356,7450,7450,8372,buq,qns-item-noham,75,891320,0.0-1.0-0.74,65ce1a6e25cd65224d5f17aa,AWAITING REVIEW,2024-02-15T14:06:48.901000Z,2024-02-15T14:25:06.549000Z,,2024-02-15T14:25:07.362737Z,1098.0,CVPIIDEI,280,35,Female,Mixed,United States,United States,United States,English,No,Part-Time,Not Applicable
6556364a457cabc2f54b1063,<b>I care a lot about politics.,Highly disagree,76/94,Somewhat agree,3,1708006926286,1708006931257,\Somewhat agree\,\Somewhat agree\,\3\,1708006930335,1708006930335,4049,4049,4971,buq,qns-item-noham,76,896297,0.0-1.0-0.75,65ce1a6e25cd65224d5f17aa,AWAITING REVIEW,2024-02-15T14:06:48.901000Z,2024-02-15T14:25:06.549000Z,,2024-02-15T14:25:07.362737Z,1098.0,CVPIIDEI,280,35,Female,Mixed,United States,United States,United States,English,No,Part-Time,Not Applicable
6556364a457cabc2f54b1063,<b>There are some topics I?ve been really wrong about.,Highly disagree,77/94,Somewhat agree,3,1708006931262,1708006937646,\Somewhat agree\,\Somewhat agree\,\3\,1708006934881,1708006934881,3619,3619,6384,buq,qns-item-noham,77,902686,0.0-1.0-0.76,65ce1a6e25cd65224d5f17aa,AWAITING REVIEW,2024-02-15T14:06:48.901000Z,2024-02-15T14:25:06.549000Z,,2024-02-15T14:25:07.362737Z,1098.0,CVPIIDEI,280,35,Female,Mixed,United States,United States,United States,English,No,Part-Time,Not Applicable
6556364a457cabc2f54b1063,<b>Most beliefs can be supported with at least some evidence.,Highly disagree,78/94,Somewhat agree,3,1708006937649,1708006946969,\Somewhat agree\,\Somewhat agree\,\3\,1708006943474,1708006943474,5825,5825,9320,buq,qns-item-noham,78,912009,0.0-1.0-0.77,65ce1a6e25cd65224d5f17aa,AWAITING REVIEW,2024-02-15T14:06:48.901000Z,2024-02-15T14:25:06.549000Z,,2024-02-15T14:25:07.362737Z,1098.0,CVPIIDEI,280,35,Female,Mixed,United States,United States,United States,English,No,Part-Time,Not Applicable
6556364a457cabc2f54b1063,<b>Other people make life out to be more complicated than it really is.,Highly disagree,79/94,Somewhat agree,3,1708006946973,1708006953066,\Somewhat agree\,\Somewhat agree\,\3\,1708006952152,1708006952152,5179,5179,6093,buq,qns-item-noham,79,918106,0.0-1.0-0.78,65ce1a6e25cd65224d5f17aa,AWAITING REVIEW,2024-02-15T14:06:48.901000Z,2024-02-15T14:25:06.549000Z,,2024-02-15T14:25:07.362737Z,1098.0,CVPIIDEI,280,35,Female,Mixed,United States,United States,United States,English,No,Part-Time,Not Applicable
6556364a457cabc2f54b1063,"<b>Policy details don?t matter much, just the big picture.",Highly disagree,80/94,Highly disagree,1,1708006953073,1708006967529,\Highly disagree\,\Highly disagree\,\1\,1708006960935,1708006960935,7862,7862,14456,buq,qns-item-noham,80,932569,0.0-1.0-0.79,65ce1a6e25cd65224d5f17aa,AWAITING REVIEW,2024-02-15T14:06:48.901000Z,2024-02-15T14:25:06.549000Z,,2024-02-15T14:25:07.362737Z,1098.0,CVPIIDEI,280,35,Female,Mixed,United States,United States,United States,English,No,Part-Time,Not Applicable
6556364a457cabc2f54b1063,<b>I know my friends so well they can hardly ever surprise me.,Highly disagree,81/94,Somewhat agree,3,1708006967533,1708006973859,\Somewhat agree\,\Somewhat agree\,\3\,1708006971924,1708006971924,4391,4391,6326,buq,qns-item-noham,81,938899,0.0-1.0-0.80,65ce1a6e25cd65224d5f17aa,AWAITING REVIEW,2024-02-15T14:06:48.901000Z,2024-02-15T14:25:06.549000Z,,2024-02-15T14:25:07.362737Z,1098.0,CVPIIDEI,280,35,Female,Mixed,United States,United States,United States,English,No,Part-Time,Not Applicable
6556364a457cabc2f54b1063,<b>I do not often change my views on people.,Highly disagree,82/94,Somewhat disagree,2,1708006973863,1708006978904,\Somewhat disagree\,\Somewhat disagree\,\2\,1708006978109,1708006978109,4246,4246,5041,buq,qns-item-noham,82,943944,0.0-1.0-0.81,65ce1a6e25cd65224d5f17aa,AWAITING REVIEW,2024-02-15T14:06:48.901000Z,2024-02-15T14:25:06.549000Z,,2024-02-15T14:25:07.362737Z,1098.0,CVPIIDEI,280,35,Female,Mixed,United States,United States,United States,English,No,Part-Time,Not Applicable
6556364a457cabc2f54b1063,<b>I?m more certain about my beliefs than I used to be.,Highly disagree,83/94,Highly agree,4,1708006978910,1708006985386,\Somewhat agree\,\Highly agree\,\3\,1708006982577,1708006984260,3667,5350,6476,buq,qns-item-noham,83,950426,0.0-1.0-0.82,65ce1a6e25cd65224d5f17aa,AWAITING REVIEW,2024-02-15T14:06:48.901000Z,2024-02-15T14:25:06.549000Z,,2024-02-15T14:25:07.362737Z,1098.0,CVPIIDEI,280,35,Female,Mixed,United States,United States,United States,English,No,Part-Time,Not Applicable
6556364a457cabc2f54b1063,<b>People often tell falsehoods unintentionally.,Highly disagree,84/94,Somewhat agree,3,1708006985390,1708006990336,\Somewhat agree\,\Somewhat agree\,\3\,1708006989516,1708006989516,4126,4126,4946,buq,qns-item-noham,84,955376,0.0-1.0-0.83,65ce1a6e25cd65224d5f17aa,AWAITING REVIEW,2024-02-15T14:06:48.901000Z,2024-02-15T14:25:06.549000Z,,2024-02-15T14:25:07.362737Z,1098.0,CVPIIDEI,280,35,Female,Mixed,United States,United States,United States,English,No,Part-Time,Not Applicable
6556364a457cabc2f54b1063,<b>Most people don?t know much about most things.,Highly disagree,85/94,Somewhat agree,3,1708006990339,1708006996377,\Somewhat agree\,\Somewhat agree\,\3\,1708006994471,1708006994471,4132,4132,6038,buq,qns-item-noham,85,961418,0.0-1.0-0.84,65ce1a6e25cd65224d5f17aa,AWAITING REVIEW,2024-02-15T14:06:48.901000Z,2024-02-15T14:25:06.549000Z,,2024-02-15T14:25:07.362737Z,1098.0,CVPIIDEI,280,35,Female,Mixed,United States,United States,United States,English,No,Part-Time,Not Applicable
6556364a457cabc2f54b1063,"<b>If I find out something new about someone, I easily change my views about them.",Highly disagree,86/94,Somewhat disagree,2,1708006996382,1708007002204,\Somewhat disagree\,\Somewhat disagree\,\2\,1708007001142,1708007001142,4760,4760,5822,buq,qns-item-noham,86,967244,0.0-1.0-0.85,65ce1a6e25cd65224d5f17aa,AWAITING REVIEW,2024-02-15T14:06:48.901000Z,2024-02-15T14:25:06.549000Z,,2024-02-15T14:25:07.362737Z,1098.0,CVPIIDEI,280,35,Female,Mixed,United States,United States,United States,English,No,Part-Time,Not Applicable
6556364a457cabc2f54b1063,<b>Having true beliefs is difficult.,Highly disagree,87/94,Somewhat disagree,2,1708007002208,1708007008008,\Somewhat disagree\,\Somewhat disagree\,\2\,1708007006637,1708007006637,4429,4429,5800,buq,qns-item-noham,87,973048,0.0-1.0-0.86,65ce1a6e25cd65224d5f17aa,AWAITING REVIEW,2024-02-15T14:06:48.901000Z,2024-02-15T14:25:06.549000Z,,2024-02-15T14:25:07.362737Z,1098.0,CVPIIDEI,280,35,Female,Mixed,United States,United States,United States,English,No,Part-Time,Not Applicable
6556364a457cabc2f54b1063,<b>I don?t try new foods since I know I won?t like them.,Highly disagree,88/94,Somewhat agree,3,1708007008012,1708007016502,\Somewhat agree\,\Somewhat agree\,\3\,1708007015539,1708007015539,7527,7527,8490,buq,qns-item-noham,88,981542,0.0-1.0-0.87,65ce1a6e25cd65224d5f17aa,AWAITING REVIEW,2024-02-15T14:06:48.901000Z,2024-02-15T14:25:06.549000Z,,2024-02-15T14:25:07.362737Z,1098.0,CVPIIDEI,280,35,Female,Mixed,United States,United States,United States,English,No,Part-Time,Not Applicable
6556364a457cabc2f54b1063,<b>Other people trick each other a lot.,Highly disagree,89/94,Somewhat agree,3,1708007016507,1708007021259,\Somewhat agree\,\Somewhat agree\,\3\,1708007020203,1708007020203,3696,3696,4752,buq,qns-item-noham,89,986299,0.0-1.0-0.88,65ce1a6e25cd65224d5f17aa,AWAITING REVIEW,2024-02-15T14:06:48.901000Z,2024-02-15T14:25:06.549000Z,,2024-02-15T14:25:07.362737Z,1098.0,CVPIIDEI,280,35,Female,Mixed,United States,United States,United States,English,No,Part-Time,Not Applicable
6556364a457cabc2f54b1063,<b>I would need to learn a lot about a person for my opinion of them to be swayed.,Highly disagree,90/94,Somewhat agree,3,1708007021263,1708007036240,\Somewhat disagree\,\Somewhat agree\,\2\,1708007031315,1708007035286,10052,14023,14977,buq,qns-item-noham,90,1001281,0.0-1.0-0.89,65ce1a6e25cd65224d5f17aa,AWAITING REVIEW,2024-02-15T14:06:48.901000Z,2024-02-15T14:25:06.549000Z,,2024-02-15T14:25:07.362737Z,1098.0,CVPIIDEI,280,35,Female,Mixed,United States,United States,United States,English,No,Part-Time,Not Applicable
6556364a457cabc2f54b1063,<b>People can?t usually trick me when it comes to topics I care about.,Highly disagree,91/94,Somewhat agree,3,1708007036245,1708007041422,\Somewhat agree\,\Somewhat agree\,\3\,1708007040472,1708007040472,4227,4227,5177,buq,qns-item-noham,91,1006462,0.0-1.0-0.90,65ce1a6e25cd65224d5f17aa,AWAITING REVIEW,2024-02-15T14:06:48.901000Z,2024-02-15T14:25:06.549000Z,,2024-02-15T14:25:07.362737Z,1098.0,CVPIIDEI,280,35,Female,Mixed,United States,United States,United States,English,No,Part-Time,Not Applicable
6556364a457cabc2f54b1063,<b>I do not often change my views on food.,Highly disagree,92/94,Somewhat agree,3,1708007041426,1708007049010,\Somewhat agree\,\Somewhat agree\,\3\,1708007048158,1708007048158,6732,6732,7584,buq,qns-item-noham,92,1014050,0.0-1.0-0.91,65ce1a6e25cd65224d5f17aa,AWAITING REVIEW,2024-02-15T14:06:48.901000Z,2024-02-15T14:25:06.549000Z,,2024-02-15T14:25:07.362737Z,1098.0,CVPIIDEI,280,35,Female,Mixed,United States,United States,United States,English,No,Part-Time,Not Applicable
6556364a457cabc2f54b1063,<b>Specific policies are often very important to me.,Highly disagree,93/94,Somewhat agree,3,1708007049016,1708007054719,\Somewhat agree\,\Somewhat agree\,\3\,1708007053692,1708007053692,4676,4676,5703,buq,qns-item-noham,93,1019759,0.0-1.0-0.92,65ce1a6e25cd65224d5f17aa,AWAITING REVIEW,2024-02-15T14:06:48.901000Z,2024-02-15T14:25:06.549000Z,,2024-02-15T14:25:07.362737Z,1098.0,CVPIIDEI,280,35,Female,Mixed,United States,United States,United States,English,No,Part-Time,Not Applicable
6556364a457cabc2f54b1063,<b>Most people are woefully under-informed.,Highly disagree,94/94,Somewhat agree,3,1708007054725,1708007059995,\Somewhat agree\,\Somewhat agree\,\3\,1708007059005,1708007059005,4280,4280,5270,buq,qns-item-noham,94,1025036,0.0-1.0-0.93,65ce1a6e25cd65224d5f17aa,AWAITING REVIEW,2024-02-15T14:06:48.901000Z,2024-02-15T14:25:06.549000Z,,2024-02-15T14:25:07.362737Z,1098.0,CVPIIDEI,280,35,Female,Mixed,United States,United States,United States,English,No,Part-Time,Not Applicable
6556364a457cabc2f54b1063,,,,,,,,,,,,,,,,,,,,,65ce1a6e25cd65224d5f17aa,AWAITING REVIEW,2024-02-15T14:06:48.901000Z,2024-02-15T14:25:06.549000Z,,2024-02-15T14:25:07.362737Z,1098.0,CVPIIDEI,280,35,Female,Mixed,United States,United States,United States,English,No,Part-Time,Not Applicable
