PROLIFIC_PID,Question,qns_options,quest_num,answer,answer_num,question_load_timestamp,next_btn_timestamp,text_selected,final_text_selected,option_num_selected,preview_timestamps,final_text_selected_time_stamp,rt_first_option_click,rt_final_option_click,rt_submit_click,questionnaire,trial_type,trial_index,time_elapsed,internal_node_id,Demographic_Submission id,Demographic_Status,Demographic_Started at,Demographic_Completed at,Demographic_Reviewed at,Demographic_Archived at,Demographic_Time taken,Demographic_Completion code,Demographic_Total approvals,Demographic_Age,Demographic_Sex,Demographic_Ethnicity simplified,Demographic_Country of birth,Demographic_Country of residence,Demographic_Nationality,Demographic_Language,Demographic_Student status,Demographic_Employment status,Demographic_Custom study tncs accepted at
6413577c3565b8c76d846034,<b>Knowing what?s true and knowing what to do about it are usually basically the same.,Highly disagree,1/94,Somewhat disagree,2,1708005944598,1708005955200,\Somewhat disagree\,\Somewhat disagree\,\2\,1708005954510,1708005954510,9912,9912,10602,buq,qns-item-noham,1,17272,0.0-1.0-0.0,65ce19f651308eb68e6b77e5,AWAITING REVIEW,2024-02-15T14:05:16.580000Z,2024-02-15T14:13:57.808000Z,,2024-02-15T14:13:58.505213Z,522.0,CVPIIDEI,1749,30,Male,White,United States,United States,United States,English,No,Full-Time,Not Applicable
6413577c3565b8c76d846034,<b>Most people just believe whatever is convenient for them.,Highly disagree,2/94,Somewhat agree,3,1708005955202,1708005959067,\Somewhat agree\,\Somewhat agree\,\3\,1708005958474,1708005958474,3272,3272,3865,buq,qns-item-noham,2,21139,0.0-1.0-0.1,65ce19f651308eb68e6b77e5,AWAITING REVIEW,2024-02-15T14:05:16.580000Z,2024-02-15T14:13:57.808000Z,,2024-02-15T14:13:58.505213Z,522.0,CVPIIDEI,1749,30,Male,White,United States,United States,United States,English,No,Full-Time,Not Applicable
6413577c3565b8c76d846034,<b>Having some big beliefs helps me sort out minor ones.,Highly disagree,3/94,Highly agree,4,1708005959068,1708005964605,\Highly agree\,\Highly agree\,\4\,1708005964051,1708005964051,4983,4983,5537,buq,qns-item-noham,3,26677,0.0-1.0-0.2,65ce19f651308eb68e6b77e5,AWAITING REVIEW,2024-02-15T14:05:16.580000Z,2024-02-15T14:13:57.808000Z,,2024-02-15T14:13:58.505213Z,522.0,CVPIIDEI,1749,30,Male,White,United States,United States,United States,English,No,Full-Time,Not Applicable
6413577c3565b8c76d846034,<b>Political questions are usually pretty complicated.,Highly disagree,4/94,Somewhat disagree,2,1708005964606,1708005968887,\Somewhat disagree\,\Somewhat disagree\,\2\,1708005968295,1708005968295,3689,3689,4281,buq,qns-item-noham,4,30959,0.0-1.0-0.3,65ce19f651308eb68e6b77e5,AWAITING REVIEW,2024-02-15T14:05:16.580000Z,2024-02-15T14:13:57.808000Z,,2024-02-15T14:13:58.505213Z,522.0,CVPIIDEI,1749,30,Male,White,United States,United States,United States,English,No,Full-Time,Not Applicable
6413577c3565b8c76d846034,<b>Figuring out what?s important in life requires learning a lot of facts.,Highly disagree,5/94,Somewhat agree,3,1708005968888,1708005972839,\Somewhat agree\,\Somewhat agree\,\3\,1708005972021,1708005972021,3133,3133,3951,buq,qns-item-noham,5,34911,0.0-1.0-0.4,65ce19f651308eb68e6b77e5,AWAITING REVIEW,2024-02-15T14:05:16.580000Z,2024-02-15T14:13:57.808000Z,,2024-02-15T14:13:58.505213Z,522.0,CVPIIDEI,1749,30,Male,White,United States,United States,United States,English,No,Full-Time,Not Applicable
6413577c3565b8c76d846034,<b>It is difficult for me to remember the last time I was surprised by politics.,Highly disagree,6/94,Highly disagree,1,1708005972840,1708005981489,\Highly disagree\,\Highly disagree\,\1\,1708005980976,1708005980976,8136,8136,8649,buq,qns-item-noham,6,43561,0.0-1.0-0.5,65ce19f651308eb68e6b77e5,AWAITING REVIEW,2024-02-15T14:05:16.580000Z,2024-02-15T14:13:57.808000Z,,2024-02-15T14:13:58.505213Z,522.0,CVPIIDEI,1749,30,Male,White,United States,United States,United States,English,No,Full-Time,Not Applicable
6413577c3565b8c76d846034,<b>People?s false beliefs are understandable.,Highly disagree,7/94,Highly agree,4,1708005981490,1708005989253,\Highly agree\,\Highly agree\,\4\,1708005988387,1708005988387,6897,6897,7763,buq,qns-item-noham,7,51325,0.0-1.0-0.6,65ce19f651308eb68e6b77e5,AWAITING REVIEW,2024-02-15T14:05:16.580000Z,2024-02-15T14:13:57.808000Z,,2024-02-15T14:13:58.505213Z,522.0,CVPIIDEI,1749,30,Male,White,United States,United States,United States,English,No,Full-Time,Not Applicable
6413577c3565b8c76d846034,<b>I spend a lot of time trying to be informed about politics.,Highly disagree,8/94,Somewhat agree,3,1708005989254,1708005992781,\Somewhat agree\,\Somewhat agree\,\3\,1708005992244,1708005992244,2990,2990,3527,buq,qns-item-noham,8,54853,0.0-1.0-0.7,65ce19f651308eb68e6b77e5,AWAITING REVIEW,2024-02-15T14:05:16.580000Z,2024-02-15T14:13:57.808000Z,,2024-02-15T14:13:58.505213Z,522.0,CVPIIDEI,1749,30,Male,White,United States,United States,United States,English,No,Full-Time,Not Applicable
6413577c3565b8c76d846034,<b>I think a lot about whether my beliefs are right.,Highly disagree,9/94,Highly agree,4,1708005992782,1708005995349,\Highly agree\,\Highly agree\,\4\,1708005994761,1708005994761,1979,1979,2567,buq,qns-item-noham,9,57421,0.0-1.0-0.8,65ce19f651308eb68e6b77e5,AWAITING REVIEW,2024-02-15T14:05:16.580000Z,2024-02-15T14:13:57.808000Z,,2024-02-15T14:13:58.505213Z,522.0,CVPIIDEI,1749,30,Male,White,United States,United States,United States,English,No,Full-Time,Not Applicable
6413577c3565b8c76d846034,<b>Statistics can be pretty misleading sometimes.,Highly disagree,10/94,Highly agree,4,1708005995351,1708005998059,\Highly agree\,\Highly agree\,\4\,1708005997523,1708005997523,2172,2172,2708,buq,qns-item-noham,10,60132,0.0-1.0-0.9,65ce19f651308eb68e6b77e5,AWAITING REVIEW,2024-02-15T14:05:16.580000Z,2024-02-15T14:13:57.808000Z,,2024-02-15T14:13:58.505213Z,522.0,CVPIIDEI,1749,30,Male,White,United States,United States,United States,English,No,Full-Time,Not Applicable
6413577c3565b8c76d846034,<b>I have lots of beliefs that I?m only sort of sure about.,Highly disagree,11/94,Highly disagree,1,1708005998062,1708006005951,\Somewhat disagree\,\Highly disagree\,\2\,1708006003590,1708006005239,5528,7177,7889,buq,qns-item-noham,11,68023,0.0-1.0-0.10,65ce19f651308eb68e6b77e5,AWAITING REVIEW,2024-02-15T14:05:16.580000Z,2024-02-15T14:13:57.808000Z,,2024-02-15T14:13:58.505213Z,522.0,CVPIIDEI,1749,30,Male,White,United States,United States,United States,English,No,Full-Time,Not Applicable
6413577c3565b8c76d846034,"<b>If I go to my favorite restaurant and the food is surprisingly bad, it reminds me there are many disappointments in life.",Highly disagree,12/94,Somewhat disagree,2,1708006005952,1708006012339,\Somewhat disagree\,\Somewhat disagree\,\2\,1708006011750,1708006011750,5798,5798,6387,buq,qns-item-noham,12,74411,0.0-1.0-0.11,65ce19f651308eb68e6b77e5,AWAITING REVIEW,2024-02-15T14:05:16.580000Z,2024-02-15T14:13:57.808000Z,,2024-02-15T14:13:58.505213Z,522.0,CVPIIDEI,1749,30,Male,White,United States,United States,United States,English,No,Full-Time,Not Applicable
6413577c3565b8c76d846034,"<b>If you are paying attention, please select ?Somewhat agree?",Highly disagree,13/94,Somewhat agree,3,1708006012340,1708006015459,\Somewhat agree\,\Somewhat agree\,\3\,1708006014449,1708006014449,2109,2109,3119,buq,qns-item-noham,13,77531,0.0-1.0-0.12,65ce19f651308eb68e6b77e5,AWAITING REVIEW,2024-02-15T14:05:16.580000Z,2024-02-15T14:13:57.808000Z,,2024-02-15T14:13:58.505213Z,522.0,CVPIIDEI,1749,30,Male,White,United States,United States,United States,English,No,Full-Time,Not Applicable
6413577c3565b8c76d846034,"<b>When I talk to others, I often worry I?ll convince them of something I didn?t mean to.",Highly disagree,14/94,Somewhat disagree,2,1708006015460,1708006023063,\Somewhat disagree\,\Somewhat disagree\,\2\,1708006022516,1708006022516,7056,7056,7603,buq,qns-item-noham,14,85135,0.0-1.0-0.13,65ce19f651308eb68e6b77e5,AWAITING REVIEW,2024-02-15T14:05:16.580000Z,2024-02-15T14:13:57.808000Z,,2024-02-15T14:13:58.505213Z,522.0,CVPIIDEI,1749,30,Male,White,United States,United States,United States,English,No,Full-Time,Not Applicable
6413577c3565b8c76d846034,<b>I would need to learn something utterly shocking about my party in order to change my political views.,Highly disagree,15/94,Highly agree,4,1708006023064,1708006027925,\Highly agree\,\Highly agree\,\4\,1708006027276,1708006027276,4212,4212,4861,buq,qns-item-noham,15,89997,0.0-1.0-0.14,65ce19f651308eb68e6b77e5,AWAITING REVIEW,2024-02-15T14:05:16.580000Z,2024-02-15T14:13:57.808000Z,,2024-02-15T14:13:58.505213Z,522.0,CVPIIDEI,1749,30,Male,White,United States,United States,United States,English,No,Full-Time,Not Applicable
6413577c3565b8c76d846034,"<b>When I have new experiences, I tend to think of them as unique.",Highly disagree,16/94,Somewhat agree,3,1708006027926,1708006031797,\Somewhat agree\,\Somewhat agree\,\3\,1708006031129,1708006031129,3203,3203,3871,buq,qns-item-noham,16,93869,0.0-1.0-0.15,65ce19f651308eb68e6b77e5,AWAITING REVIEW,2024-02-15T14:05:16.580000Z,2024-02-15T14:13:57.808000Z,,2024-02-15T14:13:58.505213Z,522.0,CVPIIDEI,1749,30,Male,White,United States,United States,United States,English,No,Full-Time,Not Applicable
6413577c3565b8c76d846034,<b>I change my mind about specific policies pretty frequently.,Highly disagree,17/94,Highly disagree,1,1708006031797,1708006035435,\Highly disagree\,\Highly disagree\,\1\,1708006034955,1708006034955,3158,3158,3638,buq,qns-item-noham,17,97507,0.0-1.0-0.16,65ce19f651308eb68e6b77e5,AWAITING REVIEW,2024-02-15T14:05:16.580000Z,2024-02-15T14:13:57.808000Z,,2024-02-15T14:13:58.505213Z,522.0,CVPIIDEI,1749,30,Male,White,United States,United States,United States,English,No,Full-Time,Not Applicable
6413577c3565b8c76d846034,"<b>If a politician in my political party supports something I disagree with, I give them the benefit of the doubt, as such issues often involve hidden complexities that aren?t obvious.   ",Highly disagree,18/94,Somewhat disagree,2,1708006035436,1708006042221,\Somewhat disagree\,\Somewhat disagree\,\2\,1708006040989,1708006040989,5553,5553,6785,buq,qns-item-noham,18,104293,0.0-1.0-0.17,65ce19f651308eb68e6b77e5,AWAITING REVIEW,2024-02-15T14:05:16.580000Z,2024-02-15T14:13:57.808000Z,,2024-02-15T14:13:58.505213Z,522.0,CVPIIDEI,1749,30,Male,White,United States,United States,United States,English,No,Full-Time,Not Applicable
6413577c3565b8c76d846034,<b>People?s bad politics are usually motivated by hatefulness.,Highly disagree,19/94,Highly agree,4,1708006042222,1708006046069,\Highly agree\,\Highly agree\,\4\,1708006045469,1708006045469,3247,3247,3847,buq,qns-item-noham,19,108141,0.0-1.0-0.18,65ce19f651308eb68e6b77e5,AWAITING REVIEW,2024-02-15T14:05:16.580000Z,2024-02-15T14:13:57.808000Z,,2024-02-15T14:13:58.505213Z,522.0,CVPIIDEI,1749,30,Male,White,United States,United States,United States,English,No,Full-Time,Not Applicable
6413577c3565b8c76d846034,<b>I think a lot about how to reconcile my beliefs with one another.,Highly disagree,20/94,Somewhat disagree,2,1708006046070,1708006051193,\Somewhat disagree\,\Somewhat disagree\,\2\,1708006050597,1708006050597,4527,4527,5123,buq,qns-item-noham,20,113265,0.0-1.0-0.19,65ce19f651308eb68e6b77e5,AWAITING REVIEW,2024-02-15T14:05:16.580000Z,2024-02-15T14:13:57.808000Z,,2024-02-15T14:13:58.505213Z,522.0,CVPIIDEI,1749,30,Male,White,United States,United States,United States,English,No,Full-Time,Not Applicable
6413577c3565b8c76d846034,<b>I might have false beliefs about important topics.,Highly disagree,21/94,Somewhat disagree,2,1708006051194,1708006055167,\Somewhat disagree\,\Somewhat disagree\,\2\,1708006054495,1708006054495,3301,3301,3973,buq,qns-item-noham,21,117239,0.0-1.0-0.20,65ce19f651308eb68e6b77e5,AWAITING REVIEW,2024-02-15T14:05:16.580000Z,2024-02-15T14:13:57.808000Z,,2024-02-15T14:13:58.505213Z,522.0,CVPIIDEI,1749,30,Male,White,United States,United States,United States,English,No,Full-Time,Not Applicable
6413577c3565b8c76d846034,"<b>If a good friend of mine does something unexpected that upsets me, I feel like I don?t know them anymore.",Highly disagree,22/94,Somewhat disagree,2,1708006055168,1708006062701,\Somewhat disagree\,\Somewhat disagree\,\2\,1708006061779,1708006061779,6611,6611,7533,buq,qns-item-noham,22,124773,0.0-1.0-0.21,65ce19f651308eb68e6b77e5,AWAITING REVIEW,2024-02-15T14:05:16.580000Z,2024-02-15T14:13:57.808000Z,,2024-02-15T14:13:58.505213Z,522.0,CVPIIDEI,1749,30,Male,White,United States,United States,United States,English,No,Full-Time,Not Applicable
6413577c3565b8c76d846034,<b>Other people?s beliefs are often incoherent.,Highly disagree,23/94,Highly agree,4,1708006062703,1708006066156,\Highly agree\,\Highly agree\,\4\,1708006065661,1708006065661,2958,2958,3453,buq,qns-item-noham,23,128228,0.0-1.0-0.22,65ce19f651308eb68e6b77e5,AWAITING REVIEW,2024-02-15T14:05:16.580000Z,2024-02-15T14:13:57.808000Z,,2024-02-15T14:13:58.505213Z,522.0,CVPIIDEI,1749,30,Male,White,United States,United States,United States,English,No,Full-Time,Not Applicable
6413577c3565b8c76d846034,"<b>Every now and then, a new experience will unsettle beliefs I?ve had for a while.",Highly disagree,24/94,Highly disagree,1,1708006066157,1708006072757,\Highly disagree\,\Highly disagree\,\1\,1708006072222,1708006072222,6065,6065,6600,buq,qns-item-noham,24,134829,0.0-1.0-0.23,65ce19f651308eb68e6b77e5,AWAITING REVIEW,2024-02-15T14:05:16.580000Z,2024-02-15T14:13:57.808000Z,,2024-02-15T14:13:58.505213Z,522.0,CVPIIDEI,1749,30,Male,White,United States,United States,United States,English,No,Full-Time,Not Applicable
6413577c3565b8c76d846034,<b>Some policies I agree with in principle are so bad I don?t support them. ,Highly disagree,25/94,Somewhat agree,3,1708006072757,1708006080988,\Highly agree\,\Somewhat agree\,\4\,1708006078904,1708006080428,6147,7671,8231,buq,qns-item-noham,25,143060,0.0-1.0-0.24,65ce19f651308eb68e6b77e5,AWAITING REVIEW,2024-02-15T14:05:16.580000Z,2024-02-15T14:13:57.808000Z,,2024-02-15T14:13:58.505213Z,522.0,CVPIIDEI,1749,30,Male,White,United States,United States,United States,English,No,Full-Time,Not Applicable
6413577c3565b8c76d846034,<b>I?m pretty sure I?ve accidentally spread false information.,Highly disagree,26/94,Highly disagree,1,1708006080989,1708006084279,\Highly disagree\,\Highly disagree\,\1\,1708006083578,1708006083578,2589,2589,3290,buq,qns-item-noham,26,146351,0.0-1.0-0.25,65ce19f651308eb68e6b77e5,AWAITING REVIEW,2024-02-15T14:05:16.580000Z,2024-02-15T14:13:57.808000Z,,2024-02-15T14:13:58.505213Z,522.0,CVPIIDEI,1749,30,Male,White,United States,United States,United States,English,No,Full-Time,Not Applicable
6413577c3565b8c76d846034,"<b>If I go to my favorite restaurant and the food is unexpectedly bad, then they have changed owners.",Highly disagree,27/94,Somewhat agree,3,1708006084280,1708006091863,\Somewhat agree\,\Somewhat agree\,\3\,1708006091336,1708006091336,7056,7056,7583,buq,qns-item-noham,27,153935,0.0-1.0-0.26,65ce19f651308eb68e6b77e5,AWAITING REVIEW,2024-02-15T14:05:16.580000Z,2024-02-15T14:13:57.808000Z,,2024-02-15T14:13:58.505213Z,522.0,CVPIIDEI,1749,30,Male,White,United States,United States,United States,English,No,Full-Time,Not Applicable
6413577c3565b8c76d846034,"<b>In politics, it?s important to trust your friends and family.",Highly disagree,28/94,Somewhat agree,3,1708006091864,1708006096364,\Somewhat agree\,\Somewhat agree\,\3\,1708006095843,1708006095843,3979,3979,4500,buq,qns-item-noham,28,158436,0.0-1.0-0.27,65ce19f651308eb68e6b77e5,AWAITING REVIEW,2024-02-15T14:05:16.580000Z,2024-02-15T14:13:57.808000Z,,2024-02-15T14:13:58.505213Z,522.0,CVPIIDEI,1749,30,Male,White,United States,United States,United States,English,No,Full-Time,Not Applicable
6413577c3565b8c76d846034,<b>It?s OK to have some conflicting beliefs.,Highly disagree,29/94,Highly agree,4,1708006096365,1708006099662,\Highly agree\,\Highly agree\,\4\,1708006098872,1708006098872,2507,2507,3297,buq,qns-item-noham,29,161734,0.0-1.0-0.28,65ce19f651308eb68e6b77e5,AWAITING REVIEW,2024-02-15T14:05:16.580000Z,2024-02-15T14:13:57.808000Z,,2024-02-15T14:13:58.505213Z,522.0,CVPIIDEI,1749,30,Male,White,United States,United States,United States,English,No,Full-Time,Not Applicable
6413577c3565b8c76d846034,<b>Listening to people I disagree with makes my opinions better.,Highly disagree,30/94,Somewhat agree,3,1708006099663,1708006106140,\Somewhat agree\,\Somewhat agree\,\3\,1708006104839,1708006104839,5176,5176,6477,buq,qns-item-noham,30,168212,0.0-1.0-0.29,65ce19f651308eb68e6b77e5,AWAITING REVIEW,2024-02-15T14:05:16.580000Z,2024-02-15T14:13:57.808000Z,,2024-02-15T14:13:58.505213Z,522.0,CVPIIDEI,1749,30,Male,White,United States,United States,United States,English,No,Full-Time,Not Applicable
6413577c3565b8c76d846034,<b>My moral compass sometimes makes it harder to determine what?s true.,Highly disagree,31/94,Highly disagree,1,1708006106141,1708006111323,\Highly disagree\,\Highly disagree\,\1\,1708006110662,1708006110662,4521,4521,5182,buq,qns-item-noham,31,173395,0.0-1.0-0.30,65ce19f651308eb68e6b77e5,AWAITING REVIEW,2024-02-15T14:05:16.580000Z,2024-02-15T14:13:57.808000Z,,2024-02-15T14:13:58.505213Z,522.0,CVPIIDEI,1749,30,Male,White,United States,United States,United States,English,No,Full-Time,Not Applicable
6413577c3565b8c76d846034,<b>Evidence pointing in the wrong direction isn?t really evidence at all.,Highly disagree,32/94,Highly agree,4,1708006111323,1708006116366,\Highly agree\,\Highly agree\,\4\,1708006115306,1708006115306,3983,3983,5043,buq,qns-item-noham,32,178438,0.0-1.0-0.31,65ce19f651308eb68e6b77e5,AWAITING REVIEW,2024-02-15T14:05:16.580000Z,2024-02-15T14:13:57.808000Z,,2024-02-15T14:13:58.505213Z,522.0,CVPIIDEI,1749,30,Male,White,United States,United States,United States,English,No,Full-Time,Not Applicable
6413577c3565b8c76d846034,"<b>If the political party I support messes up, it makes me think politics is rotten.",Highly disagree,33/94,Somewhat disagree,2,1708006116367,1708006126751,\Somewhat disagree\,\Somewhat disagree\,\2\,1708006124788,1708006124788,8421,8421,10384,buq,qns-item-noham,33,188823,0.0-1.0-0.32,65ce19f651308eb68e6b77e5,AWAITING REVIEW,2024-02-15T14:05:16.580000Z,2024-02-15T14:13:57.808000Z,,2024-02-15T14:13:58.505213Z,522.0,CVPIIDEI,1749,30,Male,White,United States,United States,United States,English,No,Full-Time,Not Applicable
6413577c3565b8c76d846034,<b>Lots of important topics can only really be understood by some groups of people.,Highly disagree,34/94,Somewhat agree,3,1708006126752,1708006131375,\Somewhat agree\,\Somewhat agree\,\3\,1708006130675,1708006130675,3923,3923,4623,buq,qns-item-noham,34,193447,0.0-1.0-0.33,65ce19f651308eb68e6b77e5,AWAITING REVIEW,2024-02-15T14:05:16.580000Z,2024-02-15T14:13:57.808000Z,,2024-02-15T14:13:58.505213Z,522.0,CVPIIDEI,1749,30,Male,White,United States,United States,United States,English,No,Full-Time,Not Applicable
6413577c3565b8c76d846034,<b>Having conflicting beliefs means you haven?t thought about them enough.,Highly disagree,35/94,Somewhat agree,3,1708006131376,1708006136109,\Somewhat agree\,\Somewhat agree\,\3\,1708006135580,1708006135580,4204,4204,4733,buq,qns-item-noham,35,198181,0.0-1.0-0.34,65ce19f651308eb68e6b77e5,AWAITING REVIEW,2024-02-15T14:05:16.580000Z,2024-02-15T14:13:57.808000Z,,2024-02-15T14:13:58.505213Z,522.0,CVPIIDEI,1749,30,Male,White,United States,United States,United States,English,No,Full-Time,Not Applicable
6413577c3565b8c76d846034,<b>I do not often change my political opinions.,Highly disagree,36/94,Highly agree,4,1708006136110,1708006140712,\Highly agree\,\Highly agree\,\4\,1708006139350,1708006139350,3240,3240,4602,buq,qns-item-noham,36,202784,0.0-1.0-0.35,65ce19f651308eb68e6b77e5,AWAITING REVIEW,2024-02-15T14:05:16.580000Z,2024-02-15T14:13:57.808000Z,,2024-02-15T14:13:58.505213Z,522.0,CVPIIDEI,1749,30,Male,White,United States,United States,United States,English,No,Full-Time,Not Applicable
6413577c3565b8c76d846034,<b>It?s difficult to not have at least some conflicting beliefs.,Highly disagree,37/94,Somewhat disagree,2,1708006140713,1708006145652,\Somewhat disagree\,\Somewhat disagree\,\2\,1708006145120,1708006145120,4407,4407,4939,buq,qns-item-noham,37,207724,0.0-1.0-0.36,65ce19f651308eb68e6b77e5,AWAITING REVIEW,2024-02-15T14:05:16.580000Z,2024-02-15T14:13:57.808000Z,,2024-02-15T14:13:58.505213Z,522.0,CVPIIDEI,1749,30,Male,White,United States,United States,United States,English,No,Full-Time,Not Applicable
6413577c3565b8c76d846034,<b>Wishful thinking causes a lot of problems.,Highly disagree,38/94,Highly agree,4,1708006145653,1708006149769,\Highly agree\,\Highly agree\,\4\,1708006148951,1708006148951,3298,3298,4116,buq,qns-item-noham,38,211841,0.0-1.0-0.37,65ce19f651308eb68e6b77e5,AWAITING REVIEW,2024-02-15T14:05:16.580000Z,2024-02-15T14:13:57.808000Z,,2024-02-15T14:13:58.505213Z,522.0,CVPIIDEI,1749,30,Male,White,United States,United States,United States,English,No,Full-Time,Not Applicable
6413577c3565b8c76d846034,<b>I judge a food item only once I try it many times.,Highly disagree,39/94,Somewhat disagree,2,1708006149770,1708006154410,\Somewhat disagree\,\Somewhat disagree\,\2\,1708006153877,1708006153877,4107,4107,4640,buq,qns-item-noham,39,216482,0.0-1.0-0.38,65ce19f651308eb68e6b77e5,AWAITING REVIEW,2024-02-15T14:05:16.580000Z,2024-02-15T14:13:57.808000Z,,2024-02-15T14:13:58.505213Z,522.0,CVPIIDEI,1749,30,Male,White,United States,United States,United States,English,No,Full-Time,Not Applicable
6413577c3565b8c76d846034,"<b>When a person holds conflicting beliefs, they should really try to figure out what?s wrong.",Highly disagree,40/94,Somewhat agree,3,1708006154410,1708006159727,\Somewhat agree\,\Somewhat agree\,\3\,1708006159201,1708006159201,4791,4791,5317,buq,qns-item-noham,40,221799,0.0-1.0-0.39,65ce19f651308eb68e6b77e5,AWAITING REVIEW,2024-02-15T14:05:16.580000Z,2024-02-15T14:13:57.808000Z,,2024-02-15T14:13:58.505213Z,522.0,CVPIIDEI,1749,30,Male,White,United States,United States,United States,English,No,Full-Time,Not Applicable
6413577c3565b8c76d846034,<b>Knowing what?s important in life is easy.,Highly disagree,41/94,Somewhat disagree,2,1708006159728,1708006162919,\Somewhat disagree\,\Somewhat disagree\,\2\,1708006162416,1708006162416,2688,2688,3191,buq,qns-item-noham,41,224991,0.0-1.0-0.40,65ce19f651308eb68e6b77e5,AWAITING REVIEW,2024-02-15T14:05:16.580000Z,2024-02-15T14:13:57.808000Z,,2024-02-15T14:13:58.505213Z,522.0,CVPIIDEI,1749,30,Male,White,United States,United States,United States,English,No,Full-Time,Not Applicable
6413577c3565b8c76d846034,<b>I swim across the Atlantic Ocean to get to work every day.,Highly disagree,42/94,Highly disagree,1,1708006162920,1708006166613,\Highly disagree\,\Highly disagree\,\1\,1708006165593,1708006165593,2673,2673,3693,buq,qns-item-noham,42,228685,0.0-1.0-0.41,65ce19f651308eb68e6b77e5,AWAITING REVIEW,2024-02-15T14:05:16.580000Z,2024-02-15T14:13:57.808000Z,,2024-02-15T14:13:58.505213Z,522.0,CVPIIDEI,1749,30,Male,White,United States,United States,United States,English,No,Full-Time,Not Applicable
6413577c3565b8c76d846034,"<b>Sometimes, you just have to ignore evidence that you know is wrong.",Highly disagree,43/94,Highly agree,4,1708006166614,1708006170730,\Highly agree\,\Highly agree\,\4\,1708006170139,1708006170139,3525,3525,4116,buq,qns-item-noham,43,232802,0.0-1.0-0.42,65ce19f651308eb68e6b77e5,AWAITING REVIEW,2024-02-15T14:05:16.580000Z,2024-02-15T14:13:57.808000Z,,2024-02-15T14:13:58.505213Z,522.0,CVPIIDEI,1749,30,Male,White,United States,United States,United States,English,No,Full-Time,Not Applicable
6413577c3565b8c76d846034,<b>I have had some false beliefs.,Highly disagree,44/94,Highly disagree,1,1708006170731,1708006173583,\Highly disagree\,\Highly disagree\,\1\,1708006172807,1708006172807,2076,2076,2852,buq,qns-item-noham,44,235655,0.0-1.0-0.43,65ce19f651308eb68e6b77e5,AWAITING REVIEW,2024-02-15T14:05:16.580000Z,2024-02-15T14:13:57.808000Z,,2024-02-15T14:13:58.505213Z,522.0,CVPIIDEI,1749,30,Male,White,United States,United States,United States,English,No,Full-Time,Not Applicable
6413577c3565b8c76d846034,"<b>If one friend does something that upsets me, I sometimes start to distrust people in general.",Highly disagree,45/94,Somewhat agree,3,1708006173583,1708006180982,\Somewhat agree\,\Somewhat agree\,\3\,1708006180426,1708006180426,6843,6843,7399,buq,qns-item-noham,45,243054,0.0-1.0-0.44,65ce19f651308eb68e6b77e5,AWAITING REVIEW,2024-02-15T14:05:16.580000Z,2024-02-15T14:13:57.808000Z,,2024-02-15T14:13:58.505213Z,522.0,CVPIIDEI,1749,30,Male,White,United States,United States,United States,English,No,Full-Time,Not Applicable
6413577c3565b8c76d846034,<b>The facts about most important matters are easy to find.,Highly disagree,46/94,Somewhat agree,3,1708006180982,1708006186926,\Somewhat agree\,\Somewhat agree\,\3\,1708006186396,1708006186396,5414,5414,5944,buq,qns-item-noham,46,248998,0.0-1.0-0.45,65ce19f651308eb68e6b77e5,AWAITING REVIEW,2024-02-15T14:05:16.580000Z,2024-02-15T14:13:57.808000Z,,2024-02-15T14:13:58.505213Z,522.0,CVPIIDEI,1749,30,Male,White,United States,United States,United States,English,No,Full-Time,Not Applicable
6413577c3565b8c76d846034,<b>It?s better to know what?s true than to know what?s moral.,Highly disagree,47/94,Somewhat agree,3,1708006186927,1708006194125,\Somewhat disagree\,\Somewhat agree\,\2\,1708006190784,1708006193595,3857,6668,7198,buq,qns-item-noham,47,256197,0.0-1.0-0.46,65ce19f651308eb68e6b77e5,AWAITING REVIEW,2024-02-15T14:05:16.580000Z,2024-02-15T14:13:57.808000Z,,2024-02-15T14:13:58.505213Z,522.0,CVPIIDEI,1749,30,Male,White,United States,United States,United States,English,No,Full-Time,Not Applicable
6413577c3565b8c76d846034,<b>I used to think the world was less complicated than I do now.,Highly disagree,48/94,Highly agree,4,1708006194127,1708006197625,\Highly agree\,\Highly agree\,\4\,1708006196828,1708006196828,2701,2701,3498,buq,qns-item-noham,48,259697,0.0-1.0-0.47,65ce19f651308eb68e6b77e5,AWAITING REVIEW,2024-02-15T14:05:16.580000Z,2024-02-15T14:13:57.808000Z,,2024-02-15T14:13:58.505213Z,522.0,CVPIIDEI,1749,30,Male,White,United States,United States,United States,English,No,Full-Time,Not Applicable
6413577c3565b8c76d846034,<b>People are usually completely right or completely wrong.,Highly disagree,49/94,Highly agree,4,1708006197626,1708006201259,\Highly agree\,\Highly agree\,\4\,1708006200425,1708006200425,2799,2799,3633,buq,qns-item-noham,49,263331,0.0-1.0-0.48,65ce19f651308eb68e6b77e5,AWAITING REVIEW,2024-02-15T14:05:16.580000Z,2024-02-15T14:13:57.808000Z,,2024-02-15T14:13:58.505213Z,522.0,CVPIIDEI,1749,30,Male,White,United States,United States,United States,English,No,Full-Time,Not Applicable
6413577c3565b8c76d846034,<b>I spend a lot of time considering alternatives to my beliefs.,Highly disagree,50/94,Highly disagree,1,1708006201260,1708006204224,\Highly disagree\,\Highly disagree\,\1\,1708006203763,1708006203763,2503,2503,2964,buq,qns-item-noham,50,266296,0.0-1.0-0.49,65ce19f651308eb68e6b77e5,AWAITING REVIEW,2024-02-15T14:05:16.580000Z,2024-02-15T14:13:57.808000Z,,2024-02-15T14:13:58.505213Z,522.0,CVPIIDEI,1749,30,Male,White,United States,United States,United States,English,No,Full-Time,Not Applicable
6413577c3565b8c76d846034,"<b>Political enemies need to be defeated, not convinced.",Highly disagree,51/94,Somewhat agree,3,1708006204225,1708006208050,\Somewhat agree\,\Somewhat agree\,\3\,1708006207091,1708006207091,2866,2866,3825,buq,qns-item-noham,51,270122,0.0-1.0-0.50,65ce19f651308eb68e6b77e5,AWAITING REVIEW,2024-02-15T14:05:16.580000Z,2024-02-15T14:13:57.808000Z,,2024-02-15T14:13:58.505213Z,522.0,CVPIIDEI,1749,30,Male,White,United States,United States,United States,English,No,Full-Time,Not Applicable
6413577c3565b8c76d846034,<b>I form my political views only after meticulously gathering historical and present information about their policies.,Highly disagree,52/94,Somewhat agree,3,1708006208051,1708006214220,\Somewhat agree\,\Somewhat agree\,\3\,1708006213520,1708006213520,5469,5469,6169,buq,qns-item-noham,52,276292,0.0-1.0-0.51,65ce19f651308eb68e6b77e5,AWAITING REVIEW,2024-02-15T14:05:16.580000Z,2024-02-15T14:13:57.808000Z,,2024-02-15T14:13:58.505213Z,522.0,CVPIIDEI,1749,30,Male,White,United States,United States,United States,English,No,Full-Time,Not Applicable
6413577c3565b8c76d846034,<b>It is difficult for me to remember the last time I was surprised by politics.,Highly disagree,53/94,Highly disagree,1,1708006214221,1708006219104,\Highly disagree\,\Highly disagree\,\1\,1708006218534,1708006218534,4313,4313,4883,buq,qns-item-noham,53,281176,0.0-1.0-0.52,65ce19f651308eb68e6b77e5,AWAITING REVIEW,2024-02-15T14:05:16.580000Z,2024-02-15T14:13:57.808000Z,,2024-02-15T14:13:58.505213Z,522.0,CVPIIDEI,1749,30,Male,White,United States,United States,United States,English,No,Full-Time,Not Applicable
6413577c3565b8c76d846034,"<b>When I find out I?m wrong, I think a lot about my related beliefs.",Highly disagree,54/94,Somewhat agree,3,1708006219104,1708006224391,\Somewhat agree\,\Somewhat agree\,\3\,1708006223884,1708006223884,4780,4780,5287,buq,qns-item-noham,54,286463,0.0-1.0-0.53,65ce19f651308eb68e6b77e5,AWAITING REVIEW,2024-02-15T14:05:16.580000Z,2024-02-15T14:13:57.808000Z,,2024-02-15T14:13:58.505213Z,522.0,CVPIIDEI,1749,30,Male,White,United States,United States,United States,English,No,Full-Time,Not Applicable
6413577c3565b8c76d846034,"<b>If the political party I support messes up, it makes me think you can?t trust anyone these days",Highly disagree,55/94,Somewhat disagree,2,1708006224392,1708006231242,\Somewhat disagree\,\Somewhat disagree\,\2\,1708006230698,1708006230698,6306,6306,6850,buq,qns-item-noham,55,293314,0.0-1.0-0.54,65ce19f651308eb68e6b77e5,AWAITING REVIEW,2024-02-15T14:05:16.580000Z,2024-02-15T14:13:57.808000Z,,2024-02-15T14:13:58.505213Z,522.0,CVPIIDEI,1749,30,Male,White,United States,United States,United States,English,No,Full-Time,Not Applicable
6413577c3565b8c76d846034,<b>People?s brains turn off when they talk about politics.,Highly disagree,56/94,Highly agree,4,1708006231243,1708006236132,\Highly agree\,\Highly agree\,\4\,1708006235606,1708006235606,4363,4363,4889,buq,qns-item-noham,56,298204,0.0-1.0-0.55,65ce19f651308eb68e6b77e5,AWAITING REVIEW,2024-02-15T14:05:16.580000Z,2024-02-15T14:13:57.808000Z,,2024-02-15T14:13:58.505213Z,522.0,CVPIIDEI,1749,30,Male,White,United States,United States,United States,English,No,Full-Time,Not Applicable
6413577c3565b8c76d846034,<b>People who are wrong are usually just ignoring the obvious.,Highly disagree,57/94,Highly agree,4,1708006236133,1708006239593,\Highly agree\,\Highly agree\,\4\,1708006238988,1708006238988,2855,2855,3460,buq,qns-item-noham,57,301665,0.0-1.0-0.56,65ce19f651308eb68e6b77e5,AWAITING REVIEW,2024-02-15T14:05:16.580000Z,2024-02-15T14:13:57.808000Z,,2024-02-15T14:13:58.505213Z,522.0,CVPIIDEI,1749,30,Male,White,United States,United States,United States,English,No,Full-Time,Not Applicable
6413577c3565b8c76d846034,"<b>When forming my views on people, I rely more on what they are like now rather than rely on my past experience with them.",Highly disagree,58/94,Somewhat agree,3,1708006239594,1708006249508,\Somewhat agree\,\Somewhat agree\,\3\,1708006248284,1708006248284,8690,8690,9914,buq,qns-item-noham,58,311580,0.0-1.0-0.57,65ce19f651308eb68e6b77e5,AWAITING REVIEW,2024-02-15T14:05:16.580000Z,2024-02-15T14:13:57.808000Z,,2024-02-15T14:13:58.505213Z,522.0,CVPIIDEI,1749,30,Male,White,United States,United States,United States,English,No,Full-Time,Not Applicable
6413577c3565b8c76d846034,"<b>When people contradict my beliefs, I usually know about their evidence already.",Highly disagree,59/94,Highly agree,4,1708006249508,1708006255603,\Highly agree\,\Highly agree\,\4\,1708006255039,1708006255039,5531,5531,6095,buq,qns-item-noham,59,317675,0.0-1.0-0.58,65ce19f651308eb68e6b77e5,AWAITING REVIEW,2024-02-15T14:05:16.580000Z,2024-02-15T14:13:57.808000Z,,2024-02-15T14:13:58.505213Z,522.0,CVPIIDEI,1749,30,Male,White,United States,United States,United States,English,No,Full-Time,Not Applicable
6413577c3565b8c76d846034,<b>Figuring out what?s true and what?s false mainly requires a strong moral compass.,Highly disagree,60/94,Somewhat agree,3,1708006255606,1708006260583,\Somewhat agree\,\Somewhat agree\,\3\,1708006260031,1708006260031,4425,4425,4977,buq,qns-item-noham,60,322656,0.0-1.0-0.59,65ce19f651308eb68e6b77e5,AWAITING REVIEW,2024-02-15T14:05:16.580000Z,2024-02-15T14:13:57.808000Z,,2024-02-15T14:13:58.505213Z,522.0,CVPIIDEI,1749,30,Male,White,United States,United States,United States,English,No,Full-Time,Not Applicable
6413577c3565b8c76d846034,"<b>Usually I?m wrong about simple things, not complicated ones.",Highly disagree,61/94,Highly disagree,1,1708006260585,1708006266745,\Highly disagree\,\Highly disagree\,\1\,1708006265977,1708006265977,5392,5392,6160,buq,qns-item-noham,61,328817,0.0-1.0-0.60,65ce19f651308eb68e6b77e5,AWAITING REVIEW,2024-02-15T14:05:16.580000Z,2024-02-15T14:13:57.808000Z,,2024-02-15T14:13:58.505213Z,522.0,CVPIIDEI,1749,30,Male,White,United States,United States,United States,English,No,Full-Time,Not Applicable
6413577c3565b8c76d846034,<b>Getting all the information I want about important things is hard.,Highly disagree,62/94,Somewhat disagree,2,1708006266745,1708006272449,\Somewhat disagree\,\Somewhat disagree\,\2\,1708006271570,1708006271570,4825,4825,5704,buq,qns-item-noham,62,334521,0.0-1.0-0.61,65ce19f651308eb68e6b77e5,AWAITING REVIEW,2024-02-15T14:05:16.580000Z,2024-02-15T14:13:57.808000Z,,2024-02-15T14:13:58.505213Z,522.0,CVPIIDEI,1749,30,Male,White,United States,United States,United States,English,No,Full-Time,Not Applicable
6413577c3565b8c76d846034,<b>Most false beliefs spread because people try to deceive one another.,Highly disagree,63/94,Somewhat agree,3,1708006272449,1708006276244,\Somewhat agree\,\Somewhat agree\,\3\,1708006275719,1708006275719,3270,3270,3795,buq,qns-item-noham,63,338316,0.0-1.0-0.62,65ce19f651308eb68e6b77e5,AWAITING REVIEW,2024-02-15T14:05:16.580000Z,2024-02-15T14:13:57.808000Z,,2024-02-15T14:13:58.505213Z,522.0,CVPIIDEI,1749,30,Male,White,United States,United States,United States,English,No,Full-Time,Not Applicable
6413577c3565b8c76d846034,<b>I can usually find something to agree with in most people?s beliefs.,Highly disagree,64/94,Somewhat agree,3,1708006276245,1708006280095,\Somewhat agree\,\Somewhat agree\,\3\,1708006279503,1708006279503,3258,3258,3850,buq,qns-item-noham,64,342167,0.0-1.0-0.63,65ce19f651308eb68e6b77e5,AWAITING REVIEW,2024-02-15T14:05:16.580000Z,2024-02-15T14:13:57.808000Z,,2024-02-15T14:13:58.505213Z,522.0,CVPIIDEI,1749,30,Male,White,United States,United States,United States,English,No,Full-Time,Not Applicable
6413577c3565b8c76d846034,<b>I only form my views of people once I get to know them very well.,Highly disagree,65/94,Somewhat disagree,2,1708006280096,1708006290811,\Somewhat agree\,\Somewhat disagree\,\3\,1708006288534,1708006290259,8438,10163,10715,buq,qns-item-noham,65,352883,0.0-1.0-0.64,65ce19f651308eb68e6b77e5,AWAITING REVIEW,2024-02-15T14:05:16.580000Z,2024-02-15T14:13:57.808000Z,,2024-02-15T14:13:58.505213Z,522.0,CVPIIDEI,1749,30,Male,White,United States,United States,United States,English,No,Full-Time,Not Applicable
6413577c3565b8c76d846034,"<b>When people tell me important things about the world, I usually believe them.",Highly disagree,66/94,Somewhat agree,3,1708006290812,1708006297221,\Somewhat agree\,\Somewhat agree\,\3\,1708006296185,1708006296185,5373,5373,6409,buq,qns-item-noham,66,359293,0.0-1.0-0.65,65ce19f651308eb68e6b77e5,AWAITING REVIEW,2024-02-15T14:05:16.580000Z,2024-02-15T14:13:57.808000Z,,2024-02-15T14:13:58.505213Z,522.0,CVPIIDEI,1749,30,Male,White,United States,United States,United States,English,No,Full-Time,Not Applicable
6413577c3565b8c76d846034,"<b>If a friend does something that upsets me, it reminds me what an unpredictable place the world is.",Highly disagree,67/94,Somewhat agree,3,1708006297221,1708006302639,\Somewhat agree\,\Somewhat agree\,\3\,1708006302099,1708006302099,4878,4878,5418,buq,qns-item-noham,67,364711,0.0-1.0-0.66,65ce19f651308eb68e6b77e5,AWAITING REVIEW,2024-02-15T14:05:16.580000Z,2024-02-15T14:13:57.808000Z,,2024-02-15T14:13:58.505213Z,522.0,CVPIIDEI,1749,30,Male,White,United States,United States,United States,English,No,Full-Time,Not Applicable
6413577c3565b8c76d846034,<b>People tend to believe whatever is good for their friends.,Highly disagree,68/94,Highly agree,4,1708006302639,1708006307089,\Highly agree\,\Highly agree\,\4\,1708006306306,1708006306306,3667,3667,4450,buq,qns-item-noham,68,369161,0.0-1.0-0.67,65ce19f651308eb68e6b77e5,AWAITING REVIEW,2024-02-15T14:05:16.580000Z,2024-02-15T14:13:57.808000Z,,2024-02-15T14:13:58.505213Z,522.0,CVPIIDEI,1749,30,Male,White,United States,United States,United States,English,No,Full-Time,Not Applicable
6413577c3565b8c76d846034,<b>I used to be more certain my beliefs were true.,Highly disagree,69/94,Highly disagree,1,1708006307089,1708006310661,\Highly disagree\,\Highly disagree\,\1\,1708006309838,1708006309838,2749,2749,3572,buq,qns-item-noham,69,372733,0.0-1.0-0.68,65ce19f651308eb68e6b77e5,AWAITING REVIEW,2024-02-15T14:05:16.580000Z,2024-02-15T14:13:57.808000Z,,2024-02-15T14:13:58.505213Z,522.0,CVPIIDEI,1749,30,Male,White,United States,United States,United States,English,No,Full-Time,Not Applicable
6413577c3565b8c76d846034,<b>It?s often pretty easy to figure out whether something is true based on who said it.,Highly disagree,70/94,Somewhat agree,3,1708006310662,1708006317184,\Somewhat agree\,\Somewhat agree\,\3\,1708006316604,1708006316604,5942,5942,6522,buq,qns-item-noham,70,379256,0.0-1.0-0.69,65ce19f651308eb68e6b77e5,AWAITING REVIEW,2024-02-15T14:05:16.580000Z,2024-02-15T14:13:57.808000Z,,2024-02-15T14:13:58.505213Z,522.0,CVPIIDEI,1749,30,Male,White,United States,United States,United States,English,No,Full-Time,Not Applicable
6413577c3565b8c76d846034,<b>I transform into a hummingbird every day.,Highly disagree,71/94,Highly disagree,1,1708006317187,1708006320926,\Highly disagree\,\Highly disagree\,\1\,1708006319334,1708006319334,2147,2147,3739,buq,qns-item-noham,71,382998,0.0-1.0-0.70,65ce19f651308eb68e6b77e5,AWAITING REVIEW,2024-02-15T14:05:16.580000Z,2024-02-15T14:13:57.808000Z,,2024-02-15T14:13:58.505213Z,522.0,CVPIIDEI,1749,30,Male,White,United States,United States,United States,English,No,Full-Time,Not Applicable
6413577c3565b8c76d846034,<b>I think a lot about arguments against my views.,Highly disagree,72/94,Somewhat disagree,2,1708006320928,1708006325747,\Somewhat disagree\,\Somewhat disagree\,\2\,1708006324559,1708006324559,3631,3631,4819,buq,qns-item-noham,72,387819,0.0-1.0-0.71,65ce19f651308eb68e6b77e5,AWAITING REVIEW,2024-02-15T14:05:16.580000Z,2024-02-15T14:13:57.808000Z,,2024-02-15T14:13:58.505213Z,522.0,CVPIIDEI,1749,30,Male,White,United States,United States,United States,English,No,Full-Time,Not Applicable
6413577c3565b8c76d846034,<b>Personal experience is usually more important than facts and figures.,Highly disagree,73/94,Somewhat agree,3,1708006325748,1708006331111,\Somewhat agree\,\Somewhat agree\,\3\,1708006330537,1708006330537,4789,4789,5363,buq,qns-item-noham,73,393183,0.0-1.0-0.72,65ce19f651308eb68e6b77e5,AWAITING REVIEW,2024-02-15T14:05:16.580000Z,2024-02-15T14:13:57.808000Z,,2024-02-15T14:13:58.505213Z,522.0,CVPIIDEI,1749,30,Male,White,United States,United States,United States,English,No,Full-Time,Not Applicable
6413577c3565b8c76d846034,<b>I?ve been tricked before about important matters.,Highly disagree,74/94,Somewhat disagree,2,1708006331112,1708006335105,\Somewhat disagree\,\Somewhat disagree\,\2\,1708006334515,1708006334515,3403,3403,3993,buq,qns-item-noham,74,397177,0.0-1.0-0.73,65ce19f651308eb68e6b77e5,AWAITING REVIEW,2024-02-15T14:05:16.580000Z,2024-02-15T14:13:57.808000Z,,2024-02-15T14:13:58.505213Z,522.0,CVPIIDEI,1749,30,Male,White,United States,United States,United States,English,No,Full-Time,Not Applicable
6413577c3565b8c76d846034,<b>I would need to be totally wowed if I were to change my opinion of a restaurant I don?t like.,Highly disagree,75/94,Somewhat agree,3,1708006335106,1708006341487,\Somewhat agree\,\Somewhat agree\,\3\,1708006340538,1708006340538,5432,5432,6381,buq,qns-item-noham,75,403559,0.0-1.0-0.74,65ce19f651308eb68e6b77e5,AWAITING REVIEW,2024-02-15T14:05:16.580000Z,2024-02-15T14:13:57.808000Z,,2024-02-15T14:13:58.505213Z,522.0,CVPIIDEI,1749,30,Male,White,United States,United States,United States,English,No,Full-Time,Not Applicable
6413577c3565b8c76d846034,<b>I care a lot about politics.,Highly disagree,76/94,Somewhat agree,3,1708006341488,1708006344267,\Somewhat agree\,\Somewhat agree\,\3\,1708006343726,1708006343726,2238,2238,2779,buq,qns-item-noham,76,406339,0.0-1.0-0.75,65ce19f651308eb68e6b77e5,AWAITING REVIEW,2024-02-15T14:05:16.580000Z,2024-02-15T14:13:57.808000Z,,2024-02-15T14:13:58.505213Z,522.0,CVPIIDEI,1749,30,Male,White,United States,United States,United States,English,No,Full-Time,Not Applicable
6413577c3565b8c76d846034,<b>There are some topics I?ve been really wrong about.,Highly disagree,77/94,Highly disagree,1,1708006344268,1708006348313,\Highly disagree\,\Highly disagree\,\1\,1708006347790,1708006347790,3522,3522,4045,buq,qns-item-noham,77,410385,0.0-1.0-0.76,65ce19f651308eb68e6b77e5,AWAITING REVIEW,2024-02-15T14:05:16.580000Z,2024-02-15T14:13:57.808000Z,,2024-02-15T14:13:58.505213Z,522.0,CVPIIDEI,1749,30,Male,White,United States,United States,United States,English,No,Full-Time,Not Applicable
6413577c3565b8c76d846034,<b>Most beliefs can be supported with at least some evidence.,Highly disagree,78/94,Highly agree,4,1708006348314,1708006352750,\Highly agree\,\Highly agree\,\4\,1708006351718,1708006351718,3404,3404,4436,buq,qns-item-noham,78,414822,0.0-1.0-0.77,65ce19f651308eb68e6b77e5,AWAITING REVIEW,2024-02-15T14:05:16.580000Z,2024-02-15T14:13:57.808000Z,,2024-02-15T14:13:58.505213Z,522.0,CVPIIDEI,1749,30,Male,White,United States,United States,United States,English,No,Full-Time,Not Applicable
6413577c3565b8c76d846034,<b>Other people make life out to be more complicated than it really is.,Highly disagree,79/94,Somewhat agree,3,1708006352751,1708006358391,\Somewhat agree\,\Somewhat agree\,\3\,1708006357818,1708006357818,5067,5067,5640,buq,qns-item-noham,79,420463,0.0-1.0-0.78,65ce19f651308eb68e6b77e5,AWAITING REVIEW,2024-02-15T14:05:16.580000Z,2024-02-15T14:13:57.808000Z,,2024-02-15T14:13:58.505213Z,522.0,CVPIIDEI,1749,30,Male,White,United States,United States,United States,English,No,Full-Time,Not Applicable
6413577c3565b8c76d846034,"<b>Policy details don?t matter much, just the big picture.",Highly disagree,80/94,Somewhat disagree,2,1708006358392,1708006363603,\Somewhat disagree\,\Somewhat disagree\,\2\,1708006362473,1708006362473,4081,4081,5211,buq,qns-item-noham,80,425676,0.0-1.0-0.79,65ce19f651308eb68e6b77e5,AWAITING REVIEW,2024-02-15T14:05:16.580000Z,2024-02-15T14:13:57.808000Z,,2024-02-15T14:13:58.505213Z,522.0,CVPIIDEI,1749,30,Male,White,United States,United States,United States,English,No,Full-Time,Not Applicable
6413577c3565b8c76d846034,<b>I know my friends so well they can hardly ever surprise me.,Highly disagree,81/94,Somewhat agree,3,1708006363605,1708006367500,\Somewhat agree\,\Somewhat agree\,\3\,1708006367014,1708006367014,3409,3409,3895,buq,qns-item-noham,81,429572,0.0-1.0-0.80,65ce19f651308eb68e6b77e5,AWAITING REVIEW,2024-02-15T14:05:16.580000Z,2024-02-15T14:13:57.808000Z,,2024-02-15T14:13:58.505213Z,522.0,CVPIIDEI,1749,30,Male,White,United States,United States,United States,English,No,Full-Time,Not Applicable
6413577c3565b8c76d846034,<b>I do not often change my views on people.,Highly disagree,82/94,Highly agree,4,1708006367500,1708006371589,\Somewhat agree\,\Highly agree\,\3\,1708006369975,1708006370770,2475,3270,4089,buq,qns-item-noham,82,433661,0.0-1.0-0.81,65ce19f651308eb68e6b77e5,AWAITING REVIEW,2024-02-15T14:05:16.580000Z,2024-02-15T14:13:57.808000Z,,2024-02-15T14:13:58.505213Z,522.0,CVPIIDEI,1749,30,Male,White,United States,United States,United States,English,No,Full-Time,Not Applicable
6413577c3565b8c76d846034,<b>I?m more certain about my beliefs than I used to be.,Highly disagree,83/94,Highly agree,4,1708006371590,1708006375196,\Highly agree\,\Highly agree\,\4\,1708006373983,1708006373983,2393,2393,3606,buq,qns-item-noham,83,437268,0.0-1.0-0.82,65ce19f651308eb68e6b77e5,AWAITING REVIEW,2024-02-15T14:05:16.580000Z,2024-02-15T14:13:57.808000Z,,2024-02-15T14:13:58.505213Z,522.0,CVPIIDEI,1749,30,Male,White,United States,United States,United States,English,No,Full-Time,Not Applicable
6413577c3565b8c76d846034,<b>People often tell falsehoods unintentionally.,Highly disagree,84/94,Somewhat agree,3,1708006375197,1708006380656,\Somewhat agree\,\Somewhat agree\,\3\,1708006377732,1708006380150,2535,4953,5459,buq,qns-item-noham,84,442728,0.0-1.0-0.83,65ce19f651308eb68e6b77e5,AWAITING REVIEW,2024-02-15T14:05:16.580000Z,2024-02-15T14:13:57.808000Z,,2024-02-15T14:13:58.505213Z,522.0,CVPIIDEI,1749,30,Male,White,United States,United States,United States,English,No,Full-Time,Not Applicable
6413577c3565b8c76d846034,<b>Most people don?t know much about most things.,Highly disagree,85/94,Highly agree,4,1708006380657,1708006384432,\Highly agree\,\Highly agree\,\4\,1708006383888,1708006383888,3231,3231,3775,buq,qns-item-noham,85,446504,0.0-1.0-0.84,65ce19f651308eb68e6b77e5,AWAITING REVIEW,2024-02-15T14:05:16.580000Z,2024-02-15T14:13:57.808000Z,,2024-02-15T14:13:58.505213Z,522.0,CVPIIDEI,1749,30,Male,White,United States,United States,United States,English,No,Full-Time,Not Applicable
6413577c3565b8c76d846034,"<b>If I find out something new about someone, I easily change my views about them.",Highly disagree,86/94,Somewhat disagree,2,1708006384434,1708006388696,\Somewhat disagree\,\Somewhat disagree\,\2\,1708006388170,1708006388170,3736,3736,4262,buq,qns-item-noham,86,450768,0.0-1.0-0.85,65ce19f651308eb68e6b77e5,AWAITING REVIEW,2024-02-15T14:05:16.580000Z,2024-02-15T14:13:57.808000Z,,2024-02-15T14:13:58.505213Z,522.0,CVPIIDEI,1749,30,Male,White,United States,United States,United States,English,No,Full-Time,Not Applicable
6413577c3565b8c76d846034,<b>Having true beliefs is difficult.,Highly disagree,87/94,Somewhat disagree,2,1708006388697,1708006392354,\Somewhat disagree\,\Somewhat disagree\,\2\,1708006391581,1708006391581,2884,2884,3657,buq,qns-item-noham,87,454426,0.0-1.0-0.86,65ce19f651308eb68e6b77e5,AWAITING REVIEW,2024-02-15T14:05:16.580000Z,2024-02-15T14:13:57.808000Z,,2024-02-15T14:13:58.505213Z,522.0,CVPIIDEI,1749,30,Male,White,United States,United States,United States,English,No,Full-Time,Not Applicable
6413577c3565b8c76d846034,<b>I don?t try new foods since I know I won?t like them.,Highly disagree,88/94,Highly disagree,1,1708006392355,1708006395187,\Highly disagree\,\Highly disagree\,\1\,1708006394534,1708006394534,2179,2179,2832,buq,qns-item-noham,88,457259,0.0-1.0-0.87,65ce19f651308eb68e6b77e5,AWAITING REVIEW,2024-02-15T14:05:16.580000Z,2024-02-15T14:13:57.808000Z,,2024-02-15T14:13:58.505213Z,522.0,CVPIIDEI,1749,30,Male,White,United States,United States,United States,English,No,Full-Time,Not Applicable
6413577c3565b8c76d846034,<b>Other people trick each other a lot.,Highly disagree,89/94,Somewhat agree,3,1708006395188,1708006397877,\Somewhat agree\,\Somewhat agree\,\3\,1708006397126,1708006397126,1938,1938,2689,buq,qns-item-noham,89,459949,0.0-1.0-0.88,65ce19f651308eb68e6b77e5,AWAITING REVIEW,2024-02-15T14:05:16.580000Z,2024-02-15T14:13:57.808000Z,,2024-02-15T14:13:58.505213Z,522.0,CVPIIDEI,1749,30,Male,White,United States,United States,United States,English,No,Full-Time,Not Applicable
6413577c3565b8c76d846034,<b>I would need to learn a lot about a person for my opinion of them to be swayed.,Highly disagree,90/94,Somewhat agree,3,1708006397879,1708006402587,\Somewhat agree\,\Somewhat agree\,\3\,1708006402091,1708006402091,4212,4212,4708,buq,qns-item-noham,90,464659,0.0-1.0-0.89,65ce19f651308eb68e6b77e5,AWAITING REVIEW,2024-02-15T14:05:16.580000Z,2024-02-15T14:13:57.808000Z,,2024-02-15T14:13:58.505213Z,522.0,CVPIIDEI,1749,30,Male,White,United States,United States,United States,English,No,Full-Time,Not Applicable
6413577c3565b8c76d846034,<b>People can?t usually trick me when it comes to topics I care about.,Highly disagree,91/94,Highly agree,4,1708006402588,1708006406441,\Highly agree\,\Highly agree\,\4\,1708006405695,1708006405695,3107,3107,3853,buq,qns-item-noham,91,468513,0.0-1.0-0.90,65ce19f651308eb68e6b77e5,AWAITING REVIEW,2024-02-15T14:05:16.580000Z,2024-02-15T14:13:57.808000Z,,2024-02-15T14:13:58.505213Z,522.0,CVPIIDEI,1749,30,Male,White,United States,United States,United States,English,No,Full-Time,Not Applicable
6413577c3565b8c76d846034,<b>I do not often change my views on food.,Highly disagree,92/94,Somewhat disagree,2,1708006406441,1708006411082,\Somewhat disagree\,\Somewhat disagree\,\2\,1708006410107,1708006410107,3666,3666,4641,buq,qns-item-noham,92,473154,0.0-1.0-0.91,65ce19f651308eb68e6b77e5,AWAITING REVIEW,2024-02-15T14:05:16.580000Z,2024-02-15T14:13:57.808000Z,,2024-02-15T14:13:58.505213Z,522.0,CVPIIDEI,1749,30,Male,White,United States,United States,United States,English,No,Full-Time,Not Applicable
6413577c3565b8c76d846034,<b>Specific policies are often very important to me.,Highly disagree,93/94,Highly agree,4,1708006411083,1708006414822,\Somewhat agree\,\Highly agree\,\3\,1708006413831,1708006414310,2748,3227,3739,buq,qns-item-noham,93,476894,0.0-1.0-0.92,65ce19f651308eb68e6b77e5,AWAITING REVIEW,2024-02-15T14:05:16.580000Z,2024-02-15T14:13:57.808000Z,,2024-02-15T14:13:58.505213Z,522.0,CVPIIDEI,1749,30,Male,White,United States,United States,United States,English,No,Full-Time,Not Applicable
6413577c3565b8c76d846034,<b>Most people are woefully under-informed.,Highly disagree,94/94,Highly agree,4,1708006414823,1708006418024,\Highly agree\,\Highly agree\,\4\,1708006417328,1708006417328,2505,2505,3201,buq,qns-item-noham,94,480096,0.0-1.0-0.93,65ce19f651308eb68e6b77e5,AWAITING REVIEW,2024-02-15T14:05:16.580000Z,2024-02-15T14:13:57.808000Z,,2024-02-15T14:13:58.505213Z,522.0,CVPIIDEI,1749,30,Male,White,United States,United States,United States,English,No,Full-Time,Not Applicable
6413577c3565b8c76d846034,,,,,,,,,,,,,,,,,,,,,65ce19f651308eb68e6b77e5,AWAITING REVIEW,2024-02-15T14:05:16.580000Z,2024-02-15T14:13:57.808000Z,,2024-02-15T14:13:58.505213Z,522.0,CVPIIDEI,1749,30,Male,White,United States,United States,United States,English,No,Full-Time,Not Applicable
