PROLIFIC_PID,Question,qns_options,quest_num,answer,answer_num,question_load_timestamp,next_btn_timestamp,text_selected,final_text_selected,option_num_selected,preview_timestamps,final_text_selected_time_stamp,rt_first_option_click,rt_final_option_click,rt_submit_click,questionnaire,trial_type,trial_index,time_elapsed,internal_node_id,Demographic_Submission id,Demographic_Status,Demographic_Started at,Demographic_Completed at,Demographic_Reviewed at,Demographic_Archived at,Demographic_Time taken,Demographic_Completion code,Demographic_Total approvals,Demographic_Age,Demographic_Sex,Demographic_Ethnicity simplified,Demographic_Country of birth,Demographic_Country of residence,Demographic_Nationality,Demographic_Language,Demographic_Student status,Demographic_Employment status,Demographic_Custom study tncs accepted at
63d3fc46ad1d27aab15872d4,<b>Knowing what?s true and knowing what to do about it are usually basically the same.,Highly disagree,1/94,Highly disagree,1,1708005406875,1708005418307,\Highly disagree\,\Highly disagree\,\1\,1708005416981,1708005416981,10106,10106,11432,buq,qns-item-noham,1,21179,0.0-1.0-0.0,65ce17ad726e59eeb6124895,AWAITING REVIEW,2024-02-15T13:54:58.357000Z,2024-02-15T14:18:22.600000Z,,2024-02-15T14:18:23.686848Z,1405.0,CVPIIDEI,323,26,Female,White,United States,United States,United States,English,No,DATA_EXPIRED,Not Applicable
63d3fc46ad1d27aab15872d4,<b>Most people just believe whatever is convenient for them.,Highly disagree,2/94,Somewhat agree,3,1708005418313,1708005425146,\Somewhat agree\,\Somewhat agree\,\3\,1708005424174,1708005424174,5861,5861,6833,buq,qns-item-noham,2,28018,0.0-1.0-0.1,65ce17ad726e59eeb6124895,AWAITING REVIEW,2024-02-15T13:54:58.357000Z,2024-02-15T14:18:22.600000Z,,2024-02-15T14:18:23.686848Z,1405.0,CVPIIDEI,323,26,Female,White,United States,United States,United States,English,No,DATA_EXPIRED,Not Applicable
63d3fc46ad1d27aab15872d4,<b>Having some big beliefs helps me sort out minor ones.,Highly disagree,3/94,Highly agree,4,1708005425147,1708005430663,\Highly agree\,\Highly agree\,\4\,1708005430040,1708005430040,4893,4893,5516,buq,qns-item-noham,3,33536,0.0-1.0-0.2,65ce17ad726e59eeb6124895,AWAITING REVIEW,2024-02-15T13:54:58.357000Z,2024-02-15T14:18:22.600000Z,,2024-02-15T14:18:23.686848Z,1405.0,CVPIIDEI,323,26,Female,White,United States,United States,United States,English,No,DATA_EXPIRED,Not Applicable
63d3fc46ad1d27aab15872d4,<b>Political questions are usually pretty complicated.,Highly disagree,4/94,Somewhat agree,3,1708005430665,1708005436384,\Somewhat agree\,\Somewhat agree\,\3\,1708005435328,1708005435328,4663,4663,5719,buq,qns-item-noham,4,39256,0.0-1.0-0.3,65ce17ad726e59eeb6124895,AWAITING REVIEW,2024-02-15T13:54:58.357000Z,2024-02-15T14:18:22.600000Z,,2024-02-15T14:18:23.686848Z,1405.0,CVPIIDEI,323,26,Female,White,United States,United States,United States,English,No,DATA_EXPIRED,Not Applicable
63d3fc46ad1d27aab15872d4,<b>Figuring out what?s important in life requires learning a lot of facts.,Highly disagree,5/94,Somewhat agree,3,1708005436386,1708005441634,\Somewhat agree\,\Somewhat agree\,\3\,1708005441025,1708005441025,4639,4639,5248,buq,qns-item-noham,5,44506,0.0-1.0-0.4,65ce17ad726e59eeb6124895,AWAITING REVIEW,2024-02-15T13:54:58.357000Z,2024-02-15T14:18:22.600000Z,,2024-02-15T14:18:23.686848Z,1405.0,CVPIIDEI,323,26,Female,White,United States,United States,United States,English,No,DATA_EXPIRED,Not Applicable
63d3fc46ad1d27aab15872d4,<b>It is difficult for me to remember the last time I was surprised by politics.,Highly disagree,6/94,Highly disagree,1,1708005441636,1708005448956,\Highly disagree\,\Highly disagree\,\1\,1708005448190,1708005448190,6554,6554,7320,buq,qns-item-noham,6,51828,0.0-1.0-0.5,65ce17ad726e59eeb6124895,AWAITING REVIEW,2024-02-15T13:54:58.357000Z,2024-02-15T14:18:22.600000Z,,2024-02-15T14:18:23.686848Z,1405.0,CVPIIDEI,323,26,Female,White,United States,United States,United States,English,No,DATA_EXPIRED,Not Applicable
63d3fc46ad1d27aab15872d4,<b>People?s false beliefs are understandable.,Highly disagree,7/94,Highly agree,4,1708005448958,1708005454111,\Highly agree\,\Highly agree\,\4\,1708005453475,1708005453475,4517,4517,5153,buq,qns-item-noham,7,56983,0.0-1.0-0.6,65ce17ad726e59eeb6124895,AWAITING REVIEW,2024-02-15T13:54:58.357000Z,2024-02-15T14:18:22.600000Z,,2024-02-15T14:18:23.686848Z,1405.0,CVPIIDEI,323,26,Female,White,United States,United States,United States,English,No,DATA_EXPIRED,Not Applicable
63d3fc46ad1d27aab15872d4,<b>I spend a lot of time trying to be informed about politics.,Highly disagree,8/94,Somewhat disagree,2,1708005454113,1708005458262,\Somewhat disagree\,\Somewhat disagree\,\2\,1708005457627,1708005457627,3514,3514,4149,buq,qns-item-noham,8,61134,0.0-1.0-0.7,65ce17ad726e59eeb6124895,AWAITING REVIEW,2024-02-15T13:54:58.357000Z,2024-02-15T14:18:22.600000Z,,2024-02-15T14:18:23.686848Z,1405.0,CVPIIDEI,323,26,Female,White,United States,United States,United States,English,No,DATA_EXPIRED,Not Applicable
63d3fc46ad1d27aab15872d4,<b>I think a lot about whether my beliefs are right.,Highly disagree,9/94,Somewhat agree,3,1708005458263,1708005464060,\Somewhat agree\,\Somewhat agree\,\3\,1708005463441,1708005463441,5178,5178,5797,buq,qns-item-noham,9,66932,0.0-1.0-0.8,65ce17ad726e59eeb6124895,AWAITING REVIEW,2024-02-15T13:54:58.357000Z,2024-02-15T14:18:22.600000Z,,2024-02-15T14:18:23.686848Z,1405.0,CVPIIDEI,323,26,Female,White,United States,United States,United States,English,No,DATA_EXPIRED,Not Applicable
63d3fc46ad1d27aab15872d4,<b>Statistics can be pretty misleading sometimes.,Highly disagree,10/94,Somewhat agree,3,1708005464062,1708005467892,\Somewhat agree\,\Somewhat agree\,\3\,1708005467201,1708005467201,3139,3139,3830,buq,qns-item-noham,10,70764,0.0-1.0-0.9,65ce17ad726e59eeb6124895,AWAITING REVIEW,2024-02-15T13:54:58.357000Z,2024-02-15T14:18:22.600000Z,,2024-02-15T14:18:23.686848Z,1405.0,CVPIIDEI,323,26,Female,White,United States,United States,United States,English,No,DATA_EXPIRED,Not Applicable
63d3fc46ad1d27aab15872d4,<b>I have lots of beliefs that I?m only sort of sure about.,Highly disagree,11/94,Somewhat disagree,2,1708005467894,1708005475786,\Somewhat disagree\,\Somewhat disagree\,\2\,1708005475080,1708005475080,7186,7186,7892,buq,qns-item-noham,11,78658,0.0-1.0-0.10,65ce17ad726e59eeb6124895,AWAITING REVIEW,2024-02-15T13:54:58.357000Z,2024-02-15T14:18:22.600000Z,,2024-02-15T14:18:23.686848Z,1405.0,CVPIIDEI,323,26,Female,White,United States,United States,United States,English,No,DATA_EXPIRED,Not Applicable
63d3fc46ad1d27aab15872d4,"<b>If I go to my favorite restaurant and the food is surprisingly bad, it reminds me there are many disappointments in life.",Highly disagree,12/94,Somewhat disagree,2,1708005475787,1708005522772,\Somewhat disagree\,\Somewhat disagree\,\2\,1708005521932,1708005521932,46145,46145,46985,buq,qns-item-noham,12,125644,0.0-1.0-0.11,65ce17ad726e59eeb6124895,AWAITING REVIEW,2024-02-15T13:54:58.357000Z,2024-02-15T14:18:22.600000Z,,2024-02-15T14:18:23.686848Z,1405.0,CVPIIDEI,323,26,Female,White,United States,United States,United States,English,No,DATA_EXPIRED,Not Applicable
63d3fc46ad1d27aab15872d4,"<b>If you are paying attention, please select ?Somewhat agree?",Highly disagree,13/94,Somewhat agree,3,1708005522773,1708005528548,\Somewhat agree\,\Somewhat agree\,\3\,1708005527872,1708005527872,5099,5099,5775,buq,qns-item-noham,13,131420,0.0-1.0-0.12,65ce17ad726e59eeb6124895,AWAITING REVIEW,2024-02-15T13:54:58.357000Z,2024-02-15T14:18:22.600000Z,,2024-02-15T14:18:23.686848Z,1405.0,CVPIIDEI,323,26,Female,White,United States,United States,United States,English,No,DATA_EXPIRED,Not Applicable
63d3fc46ad1d27aab15872d4,"<b>When I talk to others, I often worry I?ll convince them of something I didn?t mean to.",Highly disagree,14/94,Highly disagree,1,1708005528550,1708005540101,\Highly disagree\,\Highly disagree\,\1\,1708005539291,1708005539291,10741,10741,11551,buq,qns-item-noham,14,142973,0.0-1.0-0.13,65ce17ad726e59eeb6124895,AWAITING REVIEW,2024-02-15T13:54:58.357000Z,2024-02-15T14:18:22.600000Z,,2024-02-15T14:18:23.686848Z,1405.0,CVPIIDEI,323,26,Female,White,United States,United States,United States,English,No,DATA_EXPIRED,Not Applicable
63d3fc46ad1d27aab15872d4,<b>I would need to learn something utterly shocking about my party in order to change my political views.,Highly disagree,15/94,Somewhat disagree,2,1708005540102,1708005548828,\Somewhat disagree\,\Somewhat disagree\,\2\,1708005548235,1708005548235,8133,8133,8726,buq,qns-item-noham,15,151700,0.0-1.0-0.14,65ce17ad726e59eeb6124895,AWAITING REVIEW,2024-02-15T13:54:58.357000Z,2024-02-15T14:18:22.600000Z,,2024-02-15T14:18:23.686848Z,1405.0,CVPIIDEI,323,26,Female,White,United States,United States,United States,English,No,DATA_EXPIRED,Not Applicable
63d3fc46ad1d27aab15872d4,"<b>When I have new experiences, I tend to think of them as unique.",Highly disagree,16/94,Somewhat disagree,2,1708005548829,1708005674934,\Somewhat agree\,\Somewhat disagree\,\3\,1708005672540,1708005674263,123711,125434,126105,buq,qns-item-noham,16,277806,0.0-1.0-0.15,65ce17ad726e59eeb6124895,AWAITING REVIEW,2024-02-15T13:54:58.357000Z,2024-02-15T14:18:22.600000Z,,2024-02-15T14:18:23.686848Z,1405.0,CVPIIDEI,323,26,Female,White,United States,United States,United States,English,No,DATA_EXPIRED,Not Applicable
63d3fc46ad1d27aab15872d4,<b>I change my mind about specific policies pretty frequently.,Highly disagree,17/94,Somewhat agree,3,1708005674936,1708005685606,\Somewhat agree\,\Somewhat agree\,\3\,1708005684949,1708005684949,10013,10013,10670,buq,qns-item-noham,17,288478,0.0-1.0-0.16,65ce17ad726e59eeb6124895,AWAITING REVIEW,2024-02-15T13:54:58.357000Z,2024-02-15T14:18:22.600000Z,,2024-02-15T14:18:23.686848Z,1405.0,CVPIIDEI,323,26,Female,White,United States,United States,United States,English,No,DATA_EXPIRED,Not Applicable
63d3fc46ad1d27aab15872d4,"<b>If a politician in my political party supports something I disagree with, I give them the benefit of the doubt, as such issues often involve hidden complexities that aren?t obvious.   ",Highly disagree,18/94,Somewhat agree,3,1708005685607,1708005742780,\Somewhat agree\,\Somewhat agree\,\3\,1708005742105,1708005742105,56498,56498,57173,buq,qns-item-noham,18,345652,0.0-1.0-0.17,65ce17ad726e59eeb6124895,AWAITING REVIEW,2024-02-15T13:54:58.357000Z,2024-02-15T14:18:22.600000Z,,2024-02-15T14:18:23.686848Z,1405.0,CVPIIDEI,323,26,Female,White,United States,United States,United States,English,No,DATA_EXPIRED,Not Applicable
63d3fc46ad1d27aab15872d4,<b>People?s bad politics are usually motivated by hatefulness.,Highly disagree,19/94,Somewhat disagree,2,1708005742781,1708005747170,\Somewhat disagree\,\Somewhat disagree\,\2\,1708005746564,1708005746564,3783,3783,4389,buq,qns-item-noham,19,350042,0.0-1.0-0.18,65ce17ad726e59eeb6124895,AWAITING REVIEW,2024-02-15T13:54:58.357000Z,2024-02-15T14:18:22.600000Z,,2024-02-15T14:18:23.686848Z,1405.0,CVPIIDEI,323,26,Female,White,United States,United States,United States,English,No,DATA_EXPIRED,Not Applicable
63d3fc46ad1d27aab15872d4,<b>I think a lot about how to reconcile my beliefs with one another.,Highly disagree,20/94,Somewhat agree,3,1708005747171,1708005754214,\Somewhat agree\,\Somewhat agree\,\3\,1708005753578,1708005753578,6407,6407,7043,buq,qns-item-noham,20,357086,0.0-1.0-0.19,65ce17ad726e59eeb6124895,AWAITING REVIEW,2024-02-15T13:54:58.357000Z,2024-02-15T14:18:22.600000Z,,2024-02-15T14:18:23.686848Z,1405.0,CVPIIDEI,323,26,Female,White,United States,United States,United States,English,No,DATA_EXPIRED,Not Applicable
63d3fc46ad1d27aab15872d4,<b>I might have false beliefs about important topics.,Highly disagree,21/94,Somewhat agree,3,1708005754216,1708005757656,\Somewhat agree\,\Somewhat agree\,\3\,1708005757115,1708005757115,2899,2899,3440,buq,qns-item-noham,21,360528,0.0-1.0-0.20,65ce17ad726e59eeb6124895,AWAITING REVIEW,2024-02-15T13:54:58.357000Z,2024-02-15T14:18:22.600000Z,,2024-02-15T14:18:23.686848Z,1405.0,CVPIIDEI,323,26,Female,White,United States,United States,United States,English,No,DATA_EXPIRED,Not Applicable
63d3fc46ad1d27aab15872d4,"<b>If a good friend of mine does something unexpected that upsets me, I feel like I don?t know them anymore.",Highly disagree,22/94,Somewhat agree,3,1708005757657,1708005767299,\Somewhat agree\,\Somewhat agree\,\3\,1708005766646,1708005766646,8989,8989,9642,buq,qns-item-noham,22,370171,0.0-1.0-0.21,65ce17ad726e59eeb6124895,AWAITING REVIEW,2024-02-15T13:54:58.357000Z,2024-02-15T14:18:22.600000Z,,2024-02-15T14:18:23.686848Z,1405.0,CVPIIDEI,323,26,Female,White,United States,United States,United States,English,No,DATA_EXPIRED,Not Applicable
63d3fc46ad1d27aab15872d4,<b>Other people?s beliefs are often incoherent.,Highly disagree,23/94,Highly disagree,1,1708005767300,1708005773081,\Highly disagree\,\Highly disagree\,\1\,1708005772225,1708005772225,4925,4925,5781,buq,qns-item-noham,23,375953,0.0-1.0-0.22,65ce17ad726e59eeb6124895,AWAITING REVIEW,2024-02-15T13:54:58.357000Z,2024-02-15T14:18:22.600000Z,,2024-02-15T14:18:23.686848Z,1405.0,CVPIIDEI,323,26,Female,White,United States,United States,United States,English,No,DATA_EXPIRED,Not Applicable
63d3fc46ad1d27aab15872d4,"<b>Every now and then, a new experience will unsettle beliefs I?ve had for a while.",Highly disagree,24/94,Highly agree,4,1708005773082,1708005780580,\Highly agree\,\Highly agree\,\4\,1708005779908,1708005779908,6826,6826,7498,buq,qns-item-noham,24,383452,0.0-1.0-0.23,65ce17ad726e59eeb6124895,AWAITING REVIEW,2024-02-15T13:54:58.357000Z,2024-02-15T14:18:22.600000Z,,2024-02-15T14:18:23.686848Z,1405.0,CVPIIDEI,323,26,Female,White,United States,United States,United States,English,No,DATA_EXPIRED,Not Applicable
63d3fc46ad1d27aab15872d4,<b>Some policies I agree with in principle are so bad I don?t support them. ,Highly disagree,25/94,Highly disagree,1,1708005780581,1708005811740,\Highly disagree\,\Highly disagree\,\1\,1708005811132,1708005811132,30551,30551,31159,buq,qns-item-noham,25,414612,0.0-1.0-0.24,65ce17ad726e59eeb6124895,AWAITING REVIEW,2024-02-15T13:54:58.357000Z,2024-02-15T14:18:22.600000Z,,2024-02-15T14:18:23.686848Z,1405.0,CVPIIDEI,323,26,Female,White,United States,United States,United States,English,No,DATA_EXPIRED,Not Applicable
63d3fc46ad1d27aab15872d4,<b>I?m pretty sure I?ve accidentally spread false information.,Highly disagree,26/94,Highly agree,4,1708005811741,1708005816494,\Highly agree\,\Highly agree\,\4\,1708005815853,1708005815853,4112,4112,4753,buq,qns-item-noham,26,419366,0.0-1.0-0.25,65ce17ad726e59eeb6124895,AWAITING REVIEW,2024-02-15T13:54:58.357000Z,2024-02-15T14:18:22.600000Z,,2024-02-15T14:18:23.686848Z,1405.0,CVPIIDEI,323,26,Female,White,United States,United States,United States,English,No,DATA_EXPIRED,Not Applicable
63d3fc46ad1d27aab15872d4,"<b>If I go to my favorite restaurant and the food is unexpectedly bad, then they have changed owners.",Highly disagree,27/94,Somewhat agree,3,1708005816495,1708005822857,\Somewhat agree\,\Somewhat agree\,\3\,1708005822333,1708005822333,5838,5838,6362,buq,qns-item-noham,27,425729,0.0-1.0-0.26,65ce17ad726e59eeb6124895,AWAITING REVIEW,2024-02-15T13:54:58.357000Z,2024-02-15T14:18:22.600000Z,,2024-02-15T14:18:23.686848Z,1405.0,CVPIIDEI,323,26,Female,White,United States,United States,United States,English,No,DATA_EXPIRED,Not Applicable
63d3fc46ad1d27aab15872d4,"<b>In politics, it?s important to trust your friends and family.",Highly disagree,28/94,Highly disagree,1,1708005822858,1708005829507,\Highly disagree\,\Highly disagree\,\1\,1708005828949,1708005828949,6091,6091,6649,buq,qns-item-noham,28,432379,0.0-1.0-0.27,65ce17ad726e59eeb6124895,AWAITING REVIEW,2024-02-15T13:54:58.357000Z,2024-02-15T14:18:22.600000Z,,2024-02-15T14:18:23.686848Z,1405.0,CVPIIDEI,323,26,Female,White,United States,United States,United States,English,No,DATA_EXPIRED,Not Applicable
63d3fc46ad1d27aab15872d4,<b>It?s OK to have some conflicting beliefs.,Highly disagree,29/94,Highly agree,4,1708005829508,1708005833534,\Highly agree\,\Highly agree\,\4\,1708005833044,1708005833044,3536,3536,4026,buq,qns-item-noham,29,436407,0.0-1.0-0.28,65ce17ad726e59eeb6124895,AWAITING REVIEW,2024-02-15T13:54:58.357000Z,2024-02-15T14:18:22.600000Z,,2024-02-15T14:18:23.686848Z,1405.0,CVPIIDEI,323,26,Female,White,United States,United States,United States,English,No,DATA_EXPIRED,Not Applicable
63d3fc46ad1d27aab15872d4,<b>Listening to people I disagree with makes my opinions better.,Highly disagree,30/94,Highly agree,4,1708005833536,1708005838667,\Highly agree\,\Highly agree\,\4\,1708005838143,1708005838143,4607,4607,5131,buq,qns-item-noham,30,441539,0.0-1.0-0.29,65ce17ad726e59eeb6124895,AWAITING REVIEW,2024-02-15T13:54:58.357000Z,2024-02-15T14:18:22.600000Z,,2024-02-15T14:18:23.686848Z,1405.0,CVPIIDEI,323,26,Female,White,United States,United States,United States,English,No,DATA_EXPIRED,Not Applicable
63d3fc46ad1d27aab15872d4,<b>My moral compass sometimes makes it harder to determine what?s true.,Highly disagree,31/94,Highly agree,4,1708005838668,1708005845163,\Highly agree\,\Highly agree\,\4\,1708005842471,1708005842471,3803,3803,6495,buq,qns-item-noham,31,448035,0.0-1.0-0.30,65ce17ad726e59eeb6124895,AWAITING REVIEW,2024-02-15T13:54:58.357000Z,2024-02-15T14:18:22.600000Z,,2024-02-15T14:18:23.686848Z,1405.0,CVPIIDEI,323,26,Female,White,United States,United States,United States,English,No,DATA_EXPIRED,Not Applicable
63d3fc46ad1d27aab15872d4,<b>Evidence pointing in the wrong direction isn?t really evidence at all.,Highly disagree,32/94,Highly disagree,1,1708005845164,1708005863664,\Highly disagree\,\Highly disagree\,\1\,1708005862708,1708005862708,17544,17544,18500,buq,qns-item-noham,32,466537,0.0-1.0-0.31,65ce17ad726e59eeb6124895,AWAITING REVIEW,2024-02-15T13:54:58.357000Z,2024-02-15T14:18:22.600000Z,,2024-02-15T14:18:23.686848Z,1405.0,CVPIIDEI,323,26,Female,White,United States,United States,United States,English,No,DATA_EXPIRED,Not Applicable
63d3fc46ad1d27aab15872d4,"<b>If the political party I support messes up, it makes me think politics is rotten.",Highly disagree,33/94,Somewhat agree,3,1708005863666,1708005871369,\Highly disagree\,\Somewhat agree\,\1\,1708005868734,1708005870292,5068,6626,7703,buq,qns-item-noham,33,474241,0.0-1.0-0.32,65ce17ad726e59eeb6124895,AWAITING REVIEW,2024-02-15T13:54:58.357000Z,2024-02-15T14:18:22.600000Z,,2024-02-15T14:18:23.686848Z,1405.0,CVPIIDEI,323,26,Female,White,United States,United States,United States,English,No,DATA_EXPIRED,Not Applicable
63d3fc46ad1d27aab15872d4,<b>Lots of important topics can only really be understood by some groups of people.,Highly disagree,34/94,Highly disagree,1,1708005871370,1708005876027,\Highly disagree\,\Highly disagree\,\1\,1708005874975,1708005874975,3605,3605,4657,buq,qns-item-noham,34,478899,0.0-1.0-0.33,65ce17ad726e59eeb6124895,AWAITING REVIEW,2024-02-15T13:54:58.357000Z,2024-02-15T14:18:22.600000Z,,2024-02-15T14:18:23.686848Z,1405.0,CVPIIDEI,323,26,Female,White,United States,United States,United States,English,No,DATA_EXPIRED,Not Applicable
63d3fc46ad1d27aab15872d4,<b>Having conflicting beliefs means you haven?t thought about them enough.,Highly disagree,35/94,Highly disagree,1,1708005876029,1708005879538,\Highly disagree\,\Highly disagree\,\1\,1708005878815,1708005878815,2786,2786,3509,buq,qns-item-noham,35,482410,0.0-1.0-0.34,65ce17ad726e59eeb6124895,AWAITING REVIEW,2024-02-15T13:54:58.357000Z,2024-02-15T14:18:22.600000Z,,2024-02-15T14:18:23.686848Z,1405.0,CVPIIDEI,323,26,Female,White,United States,United States,United States,English,No,DATA_EXPIRED,Not Applicable
63d3fc46ad1d27aab15872d4,<b>I do not often change my political opinions.,Highly disagree,36/94,Somewhat disagree,2,1708005879539,1708005882008,\Somewhat disagree\,\Somewhat disagree\,\2\,1708005881419,1708005881419,1880,1880,2469,buq,qns-item-noham,36,484880,0.0-1.0-0.35,65ce17ad726e59eeb6124895,AWAITING REVIEW,2024-02-15T13:54:58.357000Z,2024-02-15T14:18:22.600000Z,,2024-02-15T14:18:23.686848Z,1405.0,CVPIIDEI,323,26,Female,White,United States,United States,United States,English,No,DATA_EXPIRED,Not Applicable
63d3fc46ad1d27aab15872d4,<b>It?s difficult to not have at least some conflicting beliefs.,Highly disagree,37/94,Highly agree,4,1708005882010,1708005885778,\Highly agree\,\Highly agree\,\4\,1708005885155,1708005885155,3145,3145,3768,buq,qns-item-noham,37,488650,0.0-1.0-0.36,65ce17ad726e59eeb6124895,AWAITING REVIEW,2024-02-15T13:54:58.357000Z,2024-02-15T14:18:22.600000Z,,2024-02-15T14:18:23.686848Z,1405.0,CVPIIDEI,323,26,Female,White,United States,United States,United States,English,No,DATA_EXPIRED,Not Applicable
63d3fc46ad1d27aab15872d4,<b>Wishful thinking causes a lot of problems.,Highly disagree,38/94,Highly disagree,1,1708005885779,1708005888859,\Highly disagree\,\Highly disagree\,\1\,1708005888153,1708005888153,2374,2374,3080,buq,qns-item-noham,38,491731,0.0-1.0-0.37,65ce17ad726e59eeb6124895,AWAITING REVIEW,2024-02-15T13:54:58.357000Z,2024-02-15T14:18:22.600000Z,,2024-02-15T14:18:23.686848Z,1405.0,CVPIIDEI,323,26,Female,White,United States,United States,United States,English,No,DATA_EXPIRED,Not Applicable
63d3fc46ad1d27aab15872d4,<b>I judge a food item only once I try it many times.,Highly disagree,39/94,Highly disagree,1,1708005888861,1708005894744,\Highly disagree\,\Highly disagree\,\1\,1708005893986,1708005893986,5125,5125,5883,buq,qns-item-noham,39,497616,0.0-1.0-0.38,65ce17ad726e59eeb6124895,AWAITING REVIEW,2024-02-15T13:54:58.357000Z,2024-02-15T14:18:22.600000Z,,2024-02-15T14:18:23.686848Z,1405.0,CVPIIDEI,323,26,Female,White,United States,United States,United States,English,No,DATA_EXPIRED,Not Applicable
63d3fc46ad1d27aab15872d4,"<b>When a person holds conflicting beliefs, they should really try to figure out what?s wrong.",Highly disagree,40/94,Highly disagree,1,1708005894745,1708005898279,\Highly disagree\,\Highly disagree\,\1\,1708005897555,1708005897555,2810,2810,3534,buq,qns-item-noham,40,501151,0.0-1.0-0.39,65ce17ad726e59eeb6124895,AWAITING REVIEW,2024-02-15T13:54:58.357000Z,2024-02-15T14:18:22.600000Z,,2024-02-15T14:18:23.686848Z,1405.0,CVPIIDEI,323,26,Female,White,United States,United States,United States,English,No,DATA_EXPIRED,Not Applicable
63d3fc46ad1d27aab15872d4,<b>Knowing what?s important in life is easy.,Highly disagree,41/94,Somewhat agree,3,1708005898281,1708005901946,\Somewhat agree\,\Somewhat agree\,\3\,1708005901332,1708005901332,3051,3051,3665,buq,qns-item-noham,41,504818,0.0-1.0-0.40,65ce17ad726e59eeb6124895,AWAITING REVIEW,2024-02-15T13:54:58.357000Z,2024-02-15T14:18:22.600000Z,,2024-02-15T14:18:23.686848Z,1405.0,CVPIIDEI,323,26,Female,White,United States,United States,United States,English,No,DATA_EXPIRED,Not Applicable
63d3fc46ad1d27aab15872d4,<b>I swim across the Atlantic Ocean to get to work every day.,Highly disagree,42/94,Highly disagree,1,1708005901947,1708005906043,\Highly disagree\,\Highly disagree\,\1\,1708005904047,1708005904047,2100,2100,4096,buq,qns-item-noham,42,508915,0.0-1.0-0.41,65ce17ad726e59eeb6124895,AWAITING REVIEW,2024-02-15T13:54:58.357000Z,2024-02-15T14:18:22.600000Z,,2024-02-15T14:18:23.686848Z,1405.0,CVPIIDEI,323,26,Female,White,United States,United States,United States,English,No,DATA_EXPIRED,Not Applicable
63d3fc46ad1d27aab15872d4,"<b>Sometimes, you just have to ignore evidence that you know is wrong.",Highly disagree,43/94,Highly disagree,1,1708005906045,1708005911445,\Highly disagree\,\Highly disagree\,\1\,1708005908914,1708005908914,2869,2869,5400,buq,qns-item-noham,43,514317,0.0-1.0-0.42,65ce17ad726e59eeb6124895,AWAITING REVIEW,2024-02-15T13:54:58.357000Z,2024-02-15T14:18:22.600000Z,,2024-02-15T14:18:23.686848Z,1405.0,CVPIIDEI,323,26,Female,White,United States,United States,United States,English,No,DATA_EXPIRED,Not Applicable
63d3fc46ad1d27aab15872d4,<b>I have had some false beliefs.,Highly disagree,44/94,Somewhat disagree,2,1708005911447,1708006016677,\Somewhat agree\,\Somewhat disagree\,\3\,1708006014591,1708006015998,103144,104551,105230,buq,qns-item-noham,44,619549,0.0-1.0-0.43,65ce17ad726e59eeb6124895,AWAITING REVIEW,2024-02-15T13:54:58.357000Z,2024-02-15T14:18:22.600000Z,,2024-02-15T14:18:23.686848Z,1405.0,CVPIIDEI,323,26,Female,White,United States,United States,United States,English,No,DATA_EXPIRED,Not Applicable
63d3fc46ad1d27aab15872d4,"<b>If one friend does something that upsets me, I sometimes start to distrust people in general.",Highly disagree,45/94,Somewhat agree,3,1708006016678,1708006022057,\Somewhat agree\,\Somewhat agree\,\3\,1708006021001,1708006021001,4323,4323,5379,buq,qns-item-noham,45,624929,0.0-1.0-0.44,65ce17ad726e59eeb6124895,AWAITING REVIEW,2024-02-15T13:54:58.357000Z,2024-02-15T14:18:22.600000Z,,2024-02-15T14:18:23.686848Z,1405.0,CVPIIDEI,323,26,Female,White,United States,United States,United States,English,No,DATA_EXPIRED,Not Applicable
63d3fc46ad1d27aab15872d4,<b>The facts about most important matters are easy to find.,Highly disagree,46/94,Somewhat agree,3,1708006022059,1708006027824,\Somewhat agree\,\Somewhat agree\,\3\,1708006027151,1708006027151,5092,5092,5765,buq,qns-item-noham,46,630696,0.0-1.0-0.45,65ce17ad726e59eeb6124895,AWAITING REVIEW,2024-02-15T13:54:58.357000Z,2024-02-15T14:18:22.600000Z,,2024-02-15T14:18:23.686848Z,1405.0,CVPIIDEI,323,26,Female,White,United States,United States,United States,English,No,DATA_EXPIRED,Not Applicable
63d3fc46ad1d27aab15872d4,<b>It?s better to know what?s true than to know what?s moral.,Highly disagree,47/94,Somewhat agree,3,1708006027825,1708006102778,\Somewhat agree\,\Somewhat agree\,\3\,1708006099240,1708006101914,71415,74089,74953,buq,qns-item-noham,47,705650,0.0-1.0-0.46,65ce17ad726e59eeb6124895,AWAITING REVIEW,2024-02-15T13:54:58.357000Z,2024-02-15T14:18:22.600000Z,,2024-02-15T14:18:23.686848Z,1405.0,CVPIIDEI,323,26,Female,White,United States,United States,United States,English,No,DATA_EXPIRED,Not Applicable
63d3fc46ad1d27aab15872d4,<b>I used to think the world was less complicated than I do now.,Highly disagree,48/94,Highly disagree,1,1708006102780,1708006107926,\Highly disagree\,\Highly disagree\,\1\,1708006107136,1708006107136,4356,4356,5146,buq,qns-item-noham,48,710798,0.0-1.0-0.47,65ce17ad726e59eeb6124895,AWAITING REVIEW,2024-02-15T13:54:58.357000Z,2024-02-15T14:18:22.600000Z,,2024-02-15T14:18:23.686848Z,1405.0,CVPIIDEI,323,26,Female,White,United States,United States,United States,English,No,DATA_EXPIRED,Not Applicable
63d3fc46ad1d27aab15872d4,<b>People are usually completely right or completely wrong.,Highly disagree,49/94,Highly disagree,1,1708006107927,1708006110289,\Highly disagree\,\Highly disagree\,\1\,1708006109783,1708006109783,1856,1856,2362,buq,qns-item-noham,49,713161,0.0-1.0-0.48,65ce17ad726e59eeb6124895,AWAITING REVIEW,2024-02-15T13:54:58.357000Z,2024-02-15T14:18:22.600000Z,,2024-02-15T14:18:23.686848Z,1405.0,CVPIIDEI,323,26,Female,White,United States,United States,United States,English,No,DATA_EXPIRED,Not Applicable
63d3fc46ad1d27aab15872d4,<b>I spend a lot of time considering alternatives to my beliefs.,Highly disagree,50/94,Somewhat disagree,2,1708006110291,1708006113828,\Somewhat disagree\,\Somewhat disagree\,\2\,1708006113104,1708006113104,2813,2813,3537,buq,qns-item-noham,50,716700,0.0-1.0-0.49,65ce17ad726e59eeb6124895,AWAITING REVIEW,2024-02-15T13:54:58.357000Z,2024-02-15T14:18:22.600000Z,,2024-02-15T14:18:23.686848Z,1405.0,CVPIIDEI,323,26,Female,White,United States,United States,United States,English,No,DATA_EXPIRED,Not Applicable
63d3fc46ad1d27aab15872d4,"<b>Political enemies need to be defeated, not convinced.",Highly disagree,51/94,Highly disagree,1,1708006113829,1708006118224,\Highly disagree\,\Highly disagree\,\1\,1708006116158,1708006116158,2329,2329,4395,buq,qns-item-noham,51,721097,0.0-1.0-0.50,65ce17ad726e59eeb6124895,AWAITING REVIEW,2024-02-15T13:54:58.357000Z,2024-02-15T14:18:22.600000Z,,2024-02-15T14:18:23.686848Z,1405.0,CVPIIDEI,323,26,Female,White,United States,United States,United States,English,No,DATA_EXPIRED,Not Applicable
63d3fc46ad1d27aab15872d4,<b>I form my political views only after meticulously gathering historical and present information about their policies.,Highly disagree,52/94,Somewhat agree,3,1708006118226,1708006123780,\Somewhat disagree\,\Somewhat agree\,\2\,1708006122455,1708006123180,4229,4954,5554,buq,qns-item-noham,52,726652,0.0-1.0-0.51,65ce17ad726e59eeb6124895,AWAITING REVIEW,2024-02-15T13:54:58.357000Z,2024-02-15T14:18:22.600000Z,,2024-02-15T14:18:23.686848Z,1405.0,CVPIIDEI,323,26,Female,White,United States,United States,United States,English,No,DATA_EXPIRED,Not Applicable
63d3fc46ad1d27aab15872d4,<b>It is difficult for me to remember the last time I was surprised by politics.,Highly disagree,53/94,Highly disagree,1,1708006123782,1708006127291,\Highly disagree\,\Highly disagree\,\1\,1708006126568,1708006126568,2786,2786,3509,buq,qns-item-noham,53,730163,0.0-1.0-0.52,65ce17ad726e59eeb6124895,AWAITING REVIEW,2024-02-15T13:54:58.357000Z,2024-02-15T14:18:22.600000Z,,2024-02-15T14:18:23.686848Z,1405.0,CVPIIDEI,323,26,Female,White,United States,United States,United States,English,No,DATA_EXPIRED,Not Applicable
63d3fc46ad1d27aab15872d4,"<b>When I find out I?m wrong, I think a lot about my related beliefs.",Highly disagree,54/94,Somewhat agree,3,1708006127293,1708006219380,\Somewhat agree\,\Somewhat agree\,\3\,1708006218789,1708006218789,91496,91496,92087,buq,qns-item-noham,54,822252,0.0-1.0-0.53,65ce17ad726e59eeb6124895,AWAITING REVIEW,2024-02-15T13:54:58.357000Z,2024-02-15T14:18:22.600000Z,,2024-02-15T14:18:23.686848Z,1405.0,CVPIIDEI,323,26,Female,White,United States,United States,United States,English,No,DATA_EXPIRED,Not Applicable
63d3fc46ad1d27aab15872d4,"<b>If the political party I support messes up, it makes me think you can?t trust anyone these days",Highly disagree,55/94,Highly disagree,1,1708006219382,1708006230646,\Highly disagree\,\Highly disagree\,\1\,1708006229921,1708006229921,10539,10539,11264,buq,qns-item-noham,55,833518,0.0-1.0-0.54,65ce17ad726e59eeb6124895,AWAITING REVIEW,2024-02-15T13:54:58.357000Z,2024-02-15T14:18:22.600000Z,,2024-02-15T14:18:23.686848Z,1405.0,CVPIIDEI,323,26,Female,White,United States,United States,United States,English,No,DATA_EXPIRED,Not Applicable
63d3fc46ad1d27aab15872d4,<b>People?s brains turn off when they talk about politics.,Highly disagree,56/94,Highly disagree,1,1708006230647,1708006280539,\Highly disagree\,\Highly disagree\,\1\,1708006279416,1708006279416,48769,48769,49892,buq,qns-item-noham,56,883411,0.0-1.0-0.55,65ce17ad726e59eeb6124895,AWAITING REVIEW,2024-02-15T13:54:58.357000Z,2024-02-15T14:18:22.600000Z,,2024-02-15T14:18:23.686848Z,1405.0,CVPIIDEI,323,26,Female,White,United States,United States,United States,English,No,DATA_EXPIRED,Not Applicable
63d3fc46ad1d27aab15872d4,<b>People who are wrong are usually just ignoring the obvious.,Highly disagree,57/94,Highly disagree,1,1708006280540,1708006284953,\Highly disagree\,\Highly disagree\,\1\,1708006284181,1708006284181,3641,3641,4413,buq,qns-item-noham,57,887825,0.0-1.0-0.56,65ce17ad726e59eeb6124895,AWAITING REVIEW,2024-02-15T13:54:58.357000Z,2024-02-15T14:18:22.600000Z,,2024-02-15T14:18:23.686848Z,1405.0,CVPIIDEI,323,26,Female,White,United States,United States,United States,English,No,DATA_EXPIRED,Not Applicable
63d3fc46ad1d27aab15872d4,"<b>When forming my views on people, I rely more on what they are like now rather than rely on my past experience with them.",Highly disagree,58/94,Highly disagree,1,1708006284954,1708006291422,\Highly disagree\,\Highly disagree\,\1\,1708006290332,1708006290332,5378,5378,6468,buq,qns-item-noham,58,894294,0.0-1.0-0.57,65ce17ad726e59eeb6124895,AWAITING REVIEW,2024-02-15T13:54:58.357000Z,2024-02-15T14:18:22.600000Z,,2024-02-15T14:18:23.686848Z,1405.0,CVPIIDEI,323,26,Female,White,United States,United States,United States,English,No,DATA_EXPIRED,Not Applicable
63d3fc46ad1d27aab15872d4,"<b>When people contradict my beliefs, I usually know about their evidence already.",Highly disagree,59/94,Somewhat disagree,2,1708006291423,1708006320964,\Somewhat disagree\,\Somewhat disagree\,\2\,1708006320341,1708006320341,28918,28918,29541,buq,qns-item-noham,59,923836,0.0-1.0-0.58,65ce17ad726e59eeb6124895,AWAITING REVIEW,2024-02-15T13:54:58.357000Z,2024-02-15T14:18:22.600000Z,,2024-02-15T14:18:23.686848Z,1405.0,CVPIIDEI,323,26,Female,White,United States,United States,United States,English,No,DATA_EXPIRED,Not Applicable
63d3fc46ad1d27aab15872d4,<b>Figuring out what?s true and what?s false mainly requires a strong moral compass.,Highly disagree,60/94,Highly disagree,1,1708006320965,1708006326217,\Highly disagree\,\Highly disagree\,\1\,1708006325045,1708006325045,4080,4080,5252,buq,qns-item-noham,60,929089,0.0-1.0-0.59,65ce17ad726e59eeb6124895,AWAITING REVIEW,2024-02-15T13:54:58.357000Z,2024-02-15T14:18:22.600000Z,,2024-02-15T14:18:23.686848Z,1405.0,CVPIIDEI,323,26,Female,White,United States,United States,United States,English,No,DATA_EXPIRED,Not Applicable
63d3fc46ad1d27aab15872d4,"<b>Usually I?m wrong about simple things, not complicated ones.",Highly disagree,61/94,Somewhat disagree,2,1708006326218,1708006331077,\Somewhat disagree\,\Somewhat disagree\,\2\,1708006330153,1708006330153,3935,3935,4859,buq,qns-item-noham,61,933949,0.0-1.0-0.60,65ce17ad726e59eeb6124895,AWAITING REVIEW,2024-02-15T13:54:58.357000Z,2024-02-15T14:18:22.600000Z,,2024-02-15T14:18:23.686848Z,1405.0,CVPIIDEI,323,26,Female,White,United States,United States,United States,English,No,DATA_EXPIRED,Not Applicable
63d3fc46ad1d27aab15872d4,<b>Getting all the information I want about important things is hard.,Highly disagree,62/94,Somewhat disagree,2,1708006331078,1708006338354,\Somewhat agree\,\Somewhat disagree\,\3\,1708006336554,1708006337144,5476,6066,7276,buq,qns-item-noham,62,941227,0.0-1.0-0.61,65ce17ad726e59eeb6124895,AWAITING REVIEW,2024-02-15T13:54:58.357000Z,2024-02-15T14:18:22.600000Z,,2024-02-15T14:18:23.686848Z,1405.0,CVPIIDEI,323,26,Female,White,United States,United States,United States,English,No,DATA_EXPIRED,Not Applicable
63d3fc46ad1d27aab15872d4,<b>Most false beliefs spread because people try to deceive one another.,Highly disagree,63/94,Somewhat disagree,2,1708006338356,1708006343372,\Somewhat disagree\,\Somewhat disagree\,\2\,1708006342132,1708006342132,3776,3776,5016,buq,qns-item-noham,63,946244,0.0-1.0-0.62,65ce17ad726e59eeb6124895,AWAITING REVIEW,2024-02-15T13:54:58.357000Z,2024-02-15T14:18:22.600000Z,,2024-02-15T14:18:23.686848Z,1405.0,CVPIIDEI,323,26,Female,White,United States,United States,United States,English,No,DATA_EXPIRED,Not Applicable
63d3fc46ad1d27aab15872d4,<b>I can usually find something to agree with in most people?s beliefs.,Highly disagree,64/94,Highly agree,4,1708006343373,1708006349679,\Highly agree\,\Highly agree\,\4\,1708006348675,1708006348675,5302,5302,6306,buq,qns-item-noham,64,952551,0.0-1.0-0.63,65ce17ad726e59eeb6124895,AWAITING REVIEW,2024-02-15T13:54:58.357000Z,2024-02-15T14:18:22.600000Z,,2024-02-15T14:18:23.686848Z,1405.0,CVPIIDEI,323,26,Female,White,United States,United States,United States,English,No,DATA_EXPIRED,Not Applicable
63d3fc46ad1d27aab15872d4,<b>I only form my views of people once I get to know them very well.,Highly disagree,65/94,Somewhat disagree,2,1708006349680,1708006354550,\Somewhat disagree\,\Somewhat disagree\,\2\,1708006353875,1708006353875,4195,4195,4870,buq,qns-item-noham,65,957422,0.0-1.0-0.64,65ce17ad726e59eeb6124895,AWAITING REVIEW,2024-02-15T13:54:58.357000Z,2024-02-15T14:18:22.600000Z,,2024-02-15T14:18:23.686848Z,1405.0,CVPIIDEI,323,26,Female,White,United States,United States,United States,English,No,DATA_EXPIRED,Not Applicable
63d3fc46ad1d27aab15872d4,"<b>When people tell me important things about the world, I usually believe them.",Highly disagree,66/94,Somewhat agree,3,1708006354551,1708006361312,\Somewhat agree\,\Somewhat agree\,\3\,1708006360288,1708006360288,5737,5737,6761,buq,qns-item-noham,66,964184,0.0-1.0-0.65,65ce17ad726e59eeb6124895,AWAITING REVIEW,2024-02-15T13:54:58.357000Z,2024-02-15T14:18:22.600000Z,,2024-02-15T14:18:23.686848Z,1405.0,CVPIIDEI,323,26,Female,White,United States,United States,United States,English,No,DATA_EXPIRED,Not Applicable
63d3fc46ad1d27aab15872d4,"<b>If a friend does something that upsets me, it reminds me what an unpredictable place the world is.",Highly disagree,67/94,Somewhat disagree,2,1708006361313,1708006364686,\Somewhat disagree\,\Somewhat disagree\,\2\,1708006364112,1708006364112,2799,2799,3373,buq,qns-item-noham,67,967558,0.0-1.0-0.66,65ce17ad726e59eeb6124895,AWAITING REVIEW,2024-02-15T13:54:58.357000Z,2024-02-15T14:18:22.600000Z,,2024-02-15T14:18:23.686848Z,1405.0,CVPIIDEI,323,26,Female,White,United States,United States,United States,English,No,DATA_EXPIRED,Not Applicable
63d3fc46ad1d27aab15872d4,<b>People tend to believe whatever is good for their friends.,Highly disagree,68/94,Somewhat agree,3,1708006364687,1708006369407,\Somewhat agree\,\Somewhat agree\,\3\,1708006368665,1708006368665,3978,3978,4720,buq,qns-item-noham,68,972279,0.0-1.0-0.67,65ce17ad726e59eeb6124895,AWAITING REVIEW,2024-02-15T13:54:58.357000Z,2024-02-15T14:18:22.600000Z,,2024-02-15T14:18:23.686848Z,1405.0,CVPIIDEI,323,26,Female,White,United States,United States,United States,English,No,DATA_EXPIRED,Not Applicable
63d3fc46ad1d27aab15872d4,<b>I used to be more certain my beliefs were true.,Highly disagree,69/94,Somewhat agree,3,1708006369409,1708006373464,\Somewhat agree\,\Somewhat agree\,\3\,1708006372342,1708006372342,2933,2933,4055,buq,qns-item-noham,69,976336,0.0-1.0-0.68,65ce17ad726e59eeb6124895,AWAITING REVIEW,2024-02-15T13:54:58.357000Z,2024-02-15T14:18:22.600000Z,,2024-02-15T14:18:23.686848Z,1405.0,CVPIIDEI,323,26,Female,White,United States,United States,United States,English,No,DATA_EXPIRED,Not Applicable
63d3fc46ad1d27aab15872d4,<b>It?s often pretty easy to figure out whether something is true based on who said it.,Highly disagree,70/94,Somewhat agree,3,1708006373465,1708006378948,\Somewhat agree\,\Somewhat agree\,\3\,1708006378376,1708006378376,4911,4911,5483,buq,qns-item-noham,70,981820,0.0-1.0-0.69,65ce17ad726e59eeb6124895,AWAITING REVIEW,2024-02-15T13:54:58.357000Z,2024-02-15T14:18:22.600000Z,,2024-02-15T14:18:23.686848Z,1405.0,CVPIIDEI,323,26,Female,White,United States,United States,United States,English,No,DATA_EXPIRED,Not Applicable
63d3fc46ad1d27aab15872d4,<b>I transform into a hummingbird every day.,Highly disagree,71/94,Highly disagree,1,1708006378949,1708006381936,\Highly disagree\,\Highly disagree\,\1\,1708006381229,1708006381229,2280,2280,2987,buq,qns-item-noham,71,984808,0.0-1.0-0.70,65ce17ad726e59eeb6124895,AWAITING REVIEW,2024-02-15T13:54:58.357000Z,2024-02-15T14:18:22.600000Z,,2024-02-15T14:18:23.686848Z,1405.0,CVPIIDEI,323,26,Female,White,United States,United States,United States,English,No,DATA_EXPIRED,Not Applicable
63d3fc46ad1d27aab15872d4,<b>I think a lot about arguments against my views.,Highly disagree,72/94,Somewhat agree,3,1708006381937,1708006387736,\Somewhat agree\,\Somewhat agree\,\3\,1708006387212,1708006387212,5275,5275,5799,buq,qns-item-noham,72,990608,0.0-1.0-0.71,65ce17ad726e59eeb6124895,AWAITING REVIEW,2024-02-15T13:54:58.357000Z,2024-02-15T14:18:22.600000Z,,2024-02-15T14:18:23.686848Z,1405.0,CVPIIDEI,323,26,Female,White,United States,United States,United States,English,No,DATA_EXPIRED,Not Applicable
63d3fc46ad1d27aab15872d4,<b>Personal experience is usually more important than facts and figures.,Highly disagree,73/94,Somewhat disagree,2,1708006387737,1708006393182,\Somewhat agree\,\Somewhat disagree\,\3\,1708006391093,1708006392516,3356,4779,5445,buq,qns-item-noham,73,996054,0.0-1.0-0.72,65ce17ad726e59eeb6124895,AWAITING REVIEW,2024-02-15T13:54:58.357000Z,2024-02-15T14:18:22.600000Z,,2024-02-15T14:18:23.686848Z,1405.0,CVPIIDEI,323,26,Female,White,United States,United States,United States,English,No,DATA_EXPIRED,Not Applicable
63d3fc46ad1d27aab15872d4,<b>I?ve been tricked before about important matters.,Highly disagree,74/94,Highly agree,4,1708006393183,1708006397226,\Somewhat agree\,\Highly agree\,\3\,1708006395386,1708006396409,2203,3226,4043,buq,qns-item-noham,74,1000098,0.0-1.0-0.73,65ce17ad726e59eeb6124895,AWAITING REVIEW,2024-02-15T13:54:58.357000Z,2024-02-15T14:18:22.600000Z,,2024-02-15T14:18:23.686848Z,1405.0,CVPIIDEI,323,26,Female,White,United States,United States,United States,English,No,DATA_EXPIRED,Not Applicable
63d3fc46ad1d27aab15872d4,<b>I would need to be totally wowed if I were to change my opinion of a restaurant I don?t like.,Highly disagree,75/94,Highly agree,4,1708006397227,1708006406259,\Highly agree\,\Highly agree\,\4\,1708006405521,1708006405521,8294,8294,9032,buq,qns-item-noham,75,1009131,0.0-1.0-0.74,65ce17ad726e59eeb6124895,AWAITING REVIEW,2024-02-15T13:54:58.357000Z,2024-02-15T14:18:22.600000Z,,2024-02-15T14:18:23.686848Z,1405.0,CVPIIDEI,323,26,Female,White,United States,United States,United States,English,No,DATA_EXPIRED,Not Applicable
63d3fc46ad1d27aab15872d4,<b>I care a lot about politics.,Highly disagree,76/94,Highly disagree,1,1708006406260,1708006408389,\Highly disagree\,\Highly disagree\,\1\,1708006407883,1708006407883,1623,1623,2129,buq,qns-item-noham,76,1011261,0.0-1.0-0.75,65ce17ad726e59eeb6124895,AWAITING REVIEW,2024-02-15T13:54:58.357000Z,2024-02-15T14:18:22.600000Z,,2024-02-15T14:18:23.686848Z,1405.0,CVPIIDEI,323,26,Female,White,United States,United States,United States,English,No,DATA_EXPIRED,Not Applicable
63d3fc46ad1d27aab15872d4,<b>There are some topics I?ve been really wrong about.,Highly disagree,77/94,Highly agree,4,1708006408390,1708006411038,\Highly agree\,\Highly agree\,\4\,1708006410381,1708006410381,1991,1991,2648,buq,qns-item-noham,77,1013910,0.0-1.0-0.76,65ce17ad726e59eeb6124895,AWAITING REVIEW,2024-02-15T13:54:58.357000Z,2024-02-15T14:18:22.600000Z,,2024-02-15T14:18:23.686848Z,1405.0,CVPIIDEI,323,26,Female,White,United States,United States,United States,English,No,DATA_EXPIRED,Not Applicable
63d3fc46ad1d27aab15872d4,<b>Most beliefs can be supported with at least some evidence.,Highly disagree,78/94,Highly agree,4,1708006411039,1708006414745,\Highly agree\,\Highly agree\,\4\,1708006414206,1708006414206,3167,3167,3706,buq,qns-item-noham,78,1017617,0.0-1.0-0.77,65ce17ad726e59eeb6124895,AWAITING REVIEW,2024-02-15T13:54:58.357000Z,2024-02-15T14:18:22.600000Z,,2024-02-15T14:18:23.686848Z,1405.0,CVPIIDEI,323,26,Female,White,United States,United States,United States,English,No,DATA_EXPIRED,Not Applicable
63d3fc46ad1d27aab15872d4,<b>Other people make life out to be more complicated than it really is.,Highly disagree,79/94,Highly agree,4,1708006414746,1708006418383,\Highly agree\,\Highly agree\,\4\,1708006417866,1708006417866,3120,3120,3637,buq,qns-item-noham,79,1021256,0.0-1.0-0.78,65ce17ad726e59eeb6124895,AWAITING REVIEW,2024-02-15T13:54:58.357000Z,2024-02-15T14:18:22.600000Z,,2024-02-15T14:18:23.686848Z,1405.0,CVPIIDEI,323,26,Female,White,United States,United States,United States,English,No,DATA_EXPIRED,Not Applicable
63d3fc46ad1d27aab15872d4,"<b>Policy details don?t matter much, just the big picture.",Highly disagree,80/94,Highly disagree,1,1708006418385,1708006423032,\Highly disagree\,\Highly disagree\,\1\,1708006421875,1708006421875,3490,3490,4647,buq,qns-item-noham,80,1025904,0.0-1.0-0.79,65ce17ad726e59eeb6124895,AWAITING REVIEW,2024-02-15T13:54:58.357000Z,2024-02-15T14:18:22.600000Z,,2024-02-15T14:18:23.686848Z,1405.0,CVPIIDEI,323,26,Female,White,United States,United States,United States,English,No,DATA_EXPIRED,Not Applicable
63d3fc46ad1d27aab15872d4,<b>I know my friends so well they can hardly ever surprise me.,Highly disagree,81/94,Highly agree,4,1708006423033,1708006426357,\Highly agree\,\Highly agree\,\4\,1708006425719,1708006425719,2686,2686,3324,buq,qns-item-noham,81,1029229,0.0-1.0-0.80,65ce17ad726e59eeb6124895,AWAITING REVIEW,2024-02-15T13:54:58.357000Z,2024-02-15T14:18:22.600000Z,,2024-02-15T14:18:23.686848Z,1405.0,CVPIIDEI,323,26,Female,White,United States,United States,United States,English,No,DATA_EXPIRED,Not Applicable
63d3fc46ad1d27aab15872d4,<b>I do not often change my views on people.,Highly disagree,82/94,Highly agree,4,1708006426358,1708006429514,\Highly agree\,\Highly agree\,\4\,1708006428725,1708006428725,2367,2367,3156,buq,qns-item-noham,82,1032386,0.0-1.0-0.81,65ce17ad726e59eeb6124895,AWAITING REVIEW,2024-02-15T13:54:58.357000Z,2024-02-15T14:18:22.600000Z,,2024-02-15T14:18:23.686848Z,1405.0,CVPIIDEI,323,26,Female,White,United States,United States,United States,English,No,DATA_EXPIRED,Not Applicable
63d3fc46ad1d27aab15872d4,<b>I?m more certain about my beliefs than I used to be.,Highly disagree,83/94,Highly disagree,1,1708006429516,1708006433982,\Highly disagree\,\Highly disagree\,\1\,1708006433424,1708006433424,3908,3908,4466,buq,qns-item-noham,83,1036854,0.0-1.0-0.82,65ce17ad726e59eeb6124895,AWAITING REVIEW,2024-02-15T13:54:58.357000Z,2024-02-15T14:18:22.600000Z,,2024-02-15T14:18:23.686848Z,1405.0,CVPIIDEI,323,26,Female,White,United States,United States,United States,English,No,DATA_EXPIRED,Not Applicable
63d3fc46ad1d27aab15872d4,<b>People often tell falsehoods unintentionally.,Highly disagree,84/94,Highly agree,4,1708006433983,1708006441423,\Highly agree\,\Highly agree\,\4\,1708006440684,1708006440684,6701,6701,7440,buq,qns-item-noham,84,1044295,0.0-1.0-0.83,65ce17ad726e59eeb6124895,AWAITING REVIEW,2024-02-15T13:54:58.357000Z,2024-02-15T14:18:22.600000Z,,2024-02-15T14:18:23.686848Z,1405.0,CVPIIDEI,323,26,Female,White,United States,United States,United States,English,No,DATA_EXPIRED,Not Applicable
63d3fc46ad1d27aab15872d4,<b>Most people don?t know much about most things.,Highly disagree,85/94,Somewhat agree,3,1708006441424,1708006444382,\Somewhat agree\,\Somewhat agree\,\3\,1708006443742,1708006443742,2318,2318,2958,buq,qns-item-noham,85,1047254,0.0-1.0-0.84,65ce17ad726e59eeb6124895,AWAITING REVIEW,2024-02-15T13:54:58.357000Z,2024-02-15T14:18:22.600000Z,,2024-02-15T14:18:23.686848Z,1405.0,CVPIIDEI,323,26,Female,White,United States,United States,United States,English,No,DATA_EXPIRED,Not Applicable
63d3fc46ad1d27aab15872d4,"<b>If I find out something new about someone, I easily change my views about them.",Highly disagree,86/94,Somewhat agree,3,1708006444384,1708006450437,\Somewhat agree\,\Somewhat agree\,\3\,1708006449614,1708006449614,5230,5230,6053,buq,qns-item-noham,86,1053309,0.0-1.0-0.85,65ce17ad726e59eeb6124895,AWAITING REVIEW,2024-02-15T13:54:58.357000Z,2024-02-15T14:18:22.600000Z,,2024-02-15T14:18:23.686848Z,1405.0,CVPIIDEI,323,26,Female,White,United States,United States,United States,English,No,DATA_EXPIRED,Not Applicable
63d3fc46ad1d27aab15872d4,<b>Having true beliefs is difficult.,Highly disagree,87/94,Somewhat agree,3,1708006450438,1708006453576,\Somewhat agree\,\Somewhat agree\,\3\,1708006452871,1708006452871,2433,2433,3138,buq,qns-item-noham,87,1056448,0.0-1.0-0.86,65ce17ad726e59eeb6124895,AWAITING REVIEW,2024-02-15T13:54:58.357000Z,2024-02-15T14:18:22.600000Z,,2024-02-15T14:18:23.686848Z,1405.0,CVPIIDEI,323,26,Female,White,United States,United States,United States,English,No,DATA_EXPIRED,Not Applicable
63d3fc46ad1d27aab15872d4,<b>I don?t try new foods since I know I won?t like them.,Highly disagree,88/94,Highly disagree,1,1708006453577,1708006456091,\Highly disagree\,\Highly disagree\,\1\,1708006455486,1708006455486,1909,1909,2514,buq,qns-item-noham,88,1058963,0.0-1.0-0.87,65ce17ad726e59eeb6124895,AWAITING REVIEW,2024-02-15T13:54:58.357000Z,2024-02-15T14:18:22.600000Z,,2024-02-15T14:18:23.686848Z,1405.0,CVPIIDEI,323,26,Female,White,United States,United States,United States,English,No,DATA_EXPIRED,Not Applicable
63d3fc46ad1d27aab15872d4,<b>Other people trick each other a lot.,Highly disagree,89/94,Highly agree,4,1708006456093,1708006458616,\Highly agree\,\Highly agree\,\4\,1708006458010,1708006458010,1917,1917,2523,buq,qns-item-noham,89,1061488,0.0-1.0-0.88,65ce17ad726e59eeb6124895,AWAITING REVIEW,2024-02-15T13:54:58.357000Z,2024-02-15T14:18:22.600000Z,,2024-02-15T14:18:23.686848Z,1405.0,CVPIIDEI,323,26,Female,White,United States,United States,United States,English,No,DATA_EXPIRED,Not Applicable
63d3fc46ad1d27aab15872d4,<b>I would need to learn a lot about a person for my opinion of them to be swayed.,Highly disagree,90/94,Somewhat agree,3,1708006458617,1708006462327,\Somewhat agree\,\Somewhat agree\,\3\,1708006461855,1708006461855,3238,3238,3710,buq,qns-item-noham,90,1065199,0.0-1.0-0.89,65ce17ad726e59eeb6124895,AWAITING REVIEW,2024-02-15T13:54:58.357000Z,2024-02-15T14:18:22.600000Z,,2024-02-15T14:18:23.686848Z,1405.0,CVPIIDEI,323,26,Female,White,United States,United States,United States,English,No,DATA_EXPIRED,Not Applicable
63d3fc46ad1d27aab15872d4,<b>People can?t usually trick me when it comes to topics I care about.,Highly disagree,91/94,Somewhat disagree,2,1708006462328,1708006466567,\Highly disagree\,\Somewhat disagree\,\1\,1708006464756,1708006465929,2428,3601,4239,buq,qns-item-noham,91,1069439,0.0-1.0-0.90,65ce17ad726e59eeb6124895,AWAITING REVIEW,2024-02-15T13:54:58.357000Z,2024-02-15T14:18:22.600000Z,,2024-02-15T14:18:23.686848Z,1405.0,CVPIIDEI,323,26,Female,White,United States,United States,United States,English,No,DATA_EXPIRED,Not Applicable
63d3fc46ad1d27aab15872d4,<b>I do not often change my views on food.,Highly disagree,92/94,Highly disagree,1,1708006466569,1708006470682,\Highly disagree\,\Highly disagree\,\1\,1708006470075,1708006470075,3506,3506,4113,buq,qns-item-noham,92,1073554,0.0-1.0-0.91,65ce17ad726e59eeb6124895,AWAITING REVIEW,2024-02-15T13:54:58.357000Z,2024-02-15T14:18:22.600000Z,,2024-02-15T14:18:23.686848Z,1405.0,CVPIIDEI,323,26,Female,White,United States,United States,United States,English,No,DATA_EXPIRED,Not Applicable
63d3fc46ad1d27aab15872d4,<b>Specific policies are often very important to me.,Highly disagree,93/94,Highly agree,4,1708006470683,1708006583199,\Highly agree\,\Highly agree\,\4\,1708006582504,1708006582504,111821,111821,112516,buq,qns-item-noham,93,1186071,0.0-1.0-0.92,65ce17ad726e59eeb6124895,AWAITING REVIEW,2024-02-15T13:54:58.357000Z,2024-02-15T14:18:22.600000Z,,2024-02-15T14:18:23.686848Z,1405.0,CVPIIDEI,323,26,Female,White,United States,United States,United States,English,No,DATA_EXPIRED,Not Applicable
63d3fc46ad1d27aab15872d4,<b>Most people are woefully under-informed.,Highly disagree,94/94,Highly agree,4,1708006583200,1708006683057,\Highly agree\,\Highly agree\,\4\,1708006681833,1708006681833,98633,98633,99857,buq,qns-item-noham,94,1285930,0.0-1.0-0.93,65ce17ad726e59eeb6124895,AWAITING REVIEW,2024-02-15T13:54:58.357000Z,2024-02-15T14:18:22.600000Z,,2024-02-15T14:18:23.686848Z,1405.0,CVPIIDEI,323,26,Female,White,United States,United States,United States,English,No,DATA_EXPIRED,Not Applicable
63d3fc46ad1d27aab15872d4,,,,,,,,,,,,,,,,,,,,,65ce17ad726e59eeb6124895,AWAITING REVIEW,2024-02-15T13:54:58.357000Z,2024-02-15T14:18:22.600000Z,,2024-02-15T14:18:23.686848Z,1405.0,CVPIIDEI,323,26,Female,White,United States,United States,United States,English,No,DATA_EXPIRED,Not Applicable
