PROLIFIC_PID,Question,qns_options,quest_num,answer,answer_num,question_load_timestamp,next_btn_timestamp,text_selected,final_text_selected,option_num_selected,preview_timestamps,final_text_selected_time_stamp,rt_first_option_click,rt_final_option_click,rt_submit_click,questionnaire,trial_type,trial_index,time_elapsed,internal_node_id,Demographic_Submission id,Demographic_Status,Demographic_Started at,Demographic_Completed at,Demographic_Reviewed at,Demographic_Archived at,Demographic_Time taken,Demographic_Completion code,Demographic_Total approvals,Demographic_Age,Demographic_Sex,Demographic_Ethnicity simplified,Demographic_Country of birth,Demographic_Country of residence,Demographic_Nationality,Demographic_Language,Demographic_Student status,Demographic_Employment status,Demographic_Custom study tncs accepted at
612c6bd26f5f81c5765989d9,<b>Knowing what?s true and knowing what to do about it are usually basically the same.,Highly disagree,1/94,Somewhat disagree,2,1708006518687,1708006557672,\Somewhat disagree\,\Somewhat disagree\,\2\,1708006556816,1708006556816,38129,38129,38985,buq,qns-item-noham,1,106751,0.0-1.0-0.0,65ce1ab1ccc2f2b8401248ac,AWAITING REVIEW,2024-02-15T14:12:31.397000Z,2024-02-15T14:50:54.475000Z,,2024-02-15T14:50:55.082533Z,2304.0,CVPIIDEI,1812,32,Male,Other,United States,United States,United States,English,No,Other,Not Applicable
612c6bd26f5f81c5765989d9,<b>Most people just believe whatever is convenient for them.,Highly disagree,2/94,Highly agree,4,1708006557677,1708006562653,\Highly agree\,\Highly agree\,\4\,1708006561864,1708006561864,4187,4187,4976,buq,qns-item-noham,2,111732,0.0-1.0-0.1,65ce1ab1ccc2f2b8401248ac,AWAITING REVIEW,2024-02-15T14:12:31.397000Z,2024-02-15T14:50:54.475000Z,,2024-02-15T14:50:55.082533Z,2304.0,CVPIIDEI,1812,32,Male,Other,United States,United States,United States,English,No,Other,Not Applicable
612c6bd26f5f81c5765989d9,<b>Having some big beliefs helps me sort out minor ones.,Highly disagree,3/94,Somewhat agree,3,1708006562655,1708006576110,\Somewhat agree\,\Somewhat agree\,\3\,1708006575353,1708006575353,12698,12698,13455,buq,qns-item-noham,3,125189,0.0-1.0-0.2,65ce1ab1ccc2f2b8401248ac,AWAITING REVIEW,2024-02-15T14:12:31.397000Z,2024-02-15T14:50:54.475000Z,,2024-02-15T14:50:55.082533Z,2304.0,CVPIIDEI,1812,32,Male,Other,United States,United States,United States,English,No,Other,Not Applicable
612c6bd26f5f81c5765989d9,<b>Political questions are usually pretty complicated.,Highly disagree,4/94,Somewhat agree,3,1708006576112,1708006582773,\Somewhat agree\,\Somewhat agree\,\3\,1708006581436,1708006581436,5324,5324,6661,buq,qns-item-noham,4,131852,0.0-1.0-0.3,65ce1ab1ccc2f2b8401248ac,AWAITING REVIEW,2024-02-15T14:12:31.397000Z,2024-02-15T14:50:54.475000Z,,2024-02-15T14:50:55.082533Z,2304.0,CVPIIDEI,1812,32,Male,Other,United States,United States,United States,English,No,Other,Not Applicable
612c6bd26f5f81c5765989d9,<b>Figuring out what?s important in life requires learning a lot of facts.,Highly disagree,5/94,Somewhat disagree,2,1708006582775,1708006602538,\Somewhat agree\,\Somewhat disagree\,\3\,1708006596107,1708006601586,13332,18811,19763,buq,qns-item-noham,5,151617,0.0-1.0-0.4,65ce1ab1ccc2f2b8401248ac,AWAITING REVIEW,2024-02-15T14:12:31.397000Z,2024-02-15T14:50:54.475000Z,,2024-02-15T14:50:55.082533Z,2304.0,CVPIIDEI,1812,32,Male,Other,United States,United States,United States,English,No,Other,Not Applicable
612c6bd26f5f81c5765989d9,<b>It is difficult for me to remember the last time I was surprised by politics.,Highly disagree,6/94,Somewhat disagree,2,1708006602539,1708006617258,\Highly agree\,\Somewhat disagree\,\4\,1708006610325,1708006616077,7786,13538,14719,buq,qns-item-noham,6,166337,0.0-1.0-0.5,65ce1ab1ccc2f2b8401248ac,AWAITING REVIEW,2024-02-15T14:12:31.397000Z,2024-02-15T14:50:54.475000Z,,2024-02-15T14:50:55.082533Z,2304.0,CVPIIDEI,1812,32,Male,Other,United States,United States,United States,English,No,Other,Not Applicable
612c6bd26f5f81c5765989d9,<b>People?s false beliefs are understandable.,Highly disagree,7/94,Somewhat agree,3,1708006617260,1708006633227,\Highly agree\,\Somewhat agree\,\4\,1708006630602,1708006631809,13342,14549,15967,buq,qns-item-noham,7,182306,0.0-1.0-0.6,65ce1ab1ccc2f2b8401248ac,AWAITING REVIEW,2024-02-15T14:12:31.397000Z,2024-02-15T14:50:54.475000Z,,2024-02-15T14:50:55.082533Z,2304.0,CVPIIDEI,1812,32,Male,Other,United States,United States,United States,English,No,Other,Not Applicable
612c6bd26f5f81c5765989d9,<b>I spend a lot of time trying to be informed about politics.,Highly disagree,8/94,Highly disagree,1,1708006633228,1708006639737,\Highly disagree\,\Highly disagree\,\1\,1708006638632,1708006638632,5404,5404,6509,buq,qns-item-noham,8,188816,0.0-1.0-0.7,65ce1ab1ccc2f2b8401248ac,AWAITING REVIEW,2024-02-15T14:12:31.397000Z,2024-02-15T14:50:54.475000Z,,2024-02-15T14:50:55.082533Z,2304.0,CVPIIDEI,1812,32,Male,Other,United States,United States,United States,English,No,Other,Not Applicable
612c6bd26f5f81c5765989d9,<b>I think a lot about whether my beliefs are right.,Highly disagree,9/94,Highly agree,4,1708006639738,1708006647362,\Highly agree\,\Highly agree\,\4\,1708006646528,1708006646528,6790,6790,7624,buq,qns-item-noham,9,196441,0.0-1.0-0.8,65ce1ab1ccc2f2b8401248ac,AWAITING REVIEW,2024-02-15T14:12:31.397000Z,2024-02-15T14:50:54.475000Z,,2024-02-15T14:50:55.082533Z,2304.0,CVPIIDEI,1812,32,Male,Other,United States,United States,United States,English,No,Other,Not Applicable
612c6bd26f5f81c5765989d9,<b>Statistics can be pretty misleading sometimes.,Highly disagree,10/94,Highly agree,4,1708006647363,1708006652472,\Highly agree\,\Highly agree\,\4\,1708006651468,1708006651468,4105,4105,5109,buq,qns-item-noham,10,201551,0.0-1.0-0.9,65ce1ab1ccc2f2b8401248ac,AWAITING REVIEW,2024-02-15T14:12:31.397000Z,2024-02-15T14:50:54.475000Z,,2024-02-15T14:50:55.082533Z,2304.0,CVPIIDEI,1812,32,Male,Other,United States,United States,United States,English,No,Other,Not Applicable
612c6bd26f5f81c5765989d9,<b>I have lots of beliefs that I?m only sort of sure about.,Highly disagree,11/94,Somewhat agree,3,1708006652474,1708006675317,\Highly agree\,\Somewhat agree\,\4\,1708006673355,1708006674326,20881,21852,22843,buq,qns-item-noham,11,224396,0.0-1.0-0.10,65ce1ab1ccc2f2b8401248ac,AWAITING REVIEW,2024-02-15T14:12:31.397000Z,2024-02-15T14:50:54.475000Z,,2024-02-15T14:50:55.082533Z,2304.0,CVPIIDEI,1812,32,Male,Other,United States,United States,United States,English,No,Other,Not Applicable
612c6bd26f5f81c5765989d9,"<b>If I go to my favorite restaurant and the food is surprisingly bad, it reminds me there are many disappointments in life.",Highly disagree,12/94,Somewhat agree,3,1708006675318,1708006685551,\Somewhat agree\,\Somewhat agree\,\3\,1708006684511,1708006684511,9193,9193,10233,buq,qns-item-noham,12,234630,0.0-1.0-0.11,65ce1ab1ccc2f2b8401248ac,AWAITING REVIEW,2024-02-15T14:12:31.397000Z,2024-02-15T14:50:54.475000Z,,2024-02-15T14:50:55.082533Z,2304.0,CVPIIDEI,1812,32,Male,Other,United States,United States,United States,English,No,Other,Not Applicable
612c6bd26f5f81c5765989d9,"<b>If you are paying attention, please select ?Somewhat agree?",Highly disagree,13/94,Somewhat agree,3,1708006685553,1708006689574,\Somewhat agree\,\Somewhat agree\,\3\,1708006688613,1708006688613,3060,3060,4021,buq,qns-item-noham,13,238653,0.0-1.0-0.12,65ce1ab1ccc2f2b8401248ac,AWAITING REVIEW,2024-02-15T14:12:31.397000Z,2024-02-15T14:50:54.475000Z,,2024-02-15T14:50:55.082533Z,2304.0,CVPIIDEI,1812,32,Male,Other,United States,United States,United States,English,No,Other,Not Applicable
612c6bd26f5f81c5765989d9,"<b>When I talk to others, I often worry I?ll convince them of something I didn?t mean to.",Highly disagree,14/94,Highly disagree,1,1708006689575,1708006720373,\Highly disagree\,\Highly disagree\,\1\,1708006719037,1708006719037,29462,29462,30798,buq,qns-item-noham,14,269452,0.0-1.0-0.13,65ce1ab1ccc2f2b8401248ac,AWAITING REVIEW,2024-02-15T14:12:31.397000Z,2024-02-15T14:50:54.475000Z,,2024-02-15T14:50:55.082533Z,2304.0,CVPIIDEI,1812,32,Male,Other,United States,United States,United States,English,No,Other,Not Applicable
612c6bd26f5f81c5765989d9,<b>I would need to learn something utterly shocking about my party in order to change my political views.,Highly disagree,15/94,Highly disagree,1,1708006720374,1708006732377,\Highly disagree\,\Highly disagree\,\1\,1708006731301,1708006731301,10927,10927,12003,buq,qns-item-noham,15,281456,0.0-1.0-0.14,65ce1ab1ccc2f2b8401248ac,AWAITING REVIEW,2024-02-15T14:12:31.397000Z,2024-02-15T14:50:54.475000Z,,2024-02-15T14:50:55.082533Z,2304.0,CVPIIDEI,1812,32,Male,Other,United States,United States,United States,English,No,Other,Not Applicable
612c6bd26f5f81c5765989d9,"<b>When I have new experiences, I tend to think of them as unique.",Highly disagree,16/94,Somewhat agree,3,1708006732378,1708006752532,\Somewhat agree\,\Somewhat agree\,\3\,1708006751320,1708006751320,18942,18942,20154,buq,qns-item-noham,16,301611,0.0-1.0-0.15,65ce1ab1ccc2f2b8401248ac,AWAITING REVIEW,2024-02-15T14:12:31.397000Z,2024-02-15T14:50:54.475000Z,,2024-02-15T14:50:55.082533Z,2304.0,CVPIIDEI,1812,32,Male,Other,United States,United States,United States,English,No,Other,Not Applicable
612c6bd26f5f81c5765989d9,<b>I change my mind about specific policies pretty frequently.,Highly disagree,17/94,Highly disagree,1,1708006752533,1708006773554,\Highly disagree\,\Highly disagree\,\1\,1708006772669,1708006772669,20136,20136,21021,buq,qns-item-noham,17,322633,0.0-1.0-0.16,65ce1ab1ccc2f2b8401248ac,AWAITING REVIEW,2024-02-15T14:12:31.397000Z,2024-02-15T14:50:54.475000Z,,2024-02-15T14:50:55.082533Z,2304.0,CVPIIDEI,1812,32,Male,Other,United States,United States,United States,English,No,Other,Not Applicable
612c6bd26f5f81c5765989d9,"<b>If a politician in my political party supports something I disagree with, I give them the benefit of the doubt, as such issues often involve hidden complexities that aren?t obvious.   ",Highly disagree,18/94,Highly disagree,1,1708006773555,1708007069613,\Highly disagree\,\Highly disagree\,\1\,1708007068283,1708007068283,294728,294728,296058,buq,qns-item-noham,18,618692,0.0-1.0-0.17,65ce1ab1ccc2f2b8401248ac,AWAITING REVIEW,2024-02-15T14:12:31.397000Z,2024-02-15T14:50:54.475000Z,,2024-02-15T14:50:55.082533Z,2304.0,CVPIIDEI,1812,32,Male,Other,United States,United States,United States,English,No,Other,Not Applicable
612c6bd26f5f81c5765989d9,<b>People?s bad politics are usually motivated by hatefulness.,Highly disagree,19/94,Highly disagree,1,1708007069617,1708007082396,\Somewhat disagree\,\Highly disagree\,\2\,1708007080098,1708007081481,10481,11864,12779,buq,qns-item-noham,19,631475,0.0-1.0-0.18,65ce1ab1ccc2f2b8401248ac,AWAITING REVIEW,2024-02-15T14:12:31.397000Z,2024-02-15T14:50:54.475000Z,,2024-02-15T14:50:55.082533Z,2304.0,CVPIIDEI,1812,32,Male,Other,United States,United States,United States,English,No,Other,Not Applicable
612c6bd26f5f81c5765989d9,<b>I think a lot about how to reconcile my beliefs with one another.,Highly disagree,20/94,Somewhat agree,3,1708007082400,1708007098040,\Somewhat agree\,\Somewhat agree\,\3\,1708007094789,1708007094789,12389,12389,15640,buq,qns-item-noham,20,647119,0.0-1.0-0.19,65ce1ab1ccc2f2b8401248ac,AWAITING REVIEW,2024-02-15T14:12:31.397000Z,2024-02-15T14:50:54.475000Z,,2024-02-15T14:50:55.082533Z,2304.0,CVPIIDEI,1812,32,Male,Other,United States,United States,United States,English,No,Other,Not Applicable
612c6bd26f5f81c5765989d9,<b>I might have false beliefs about important topics.,Highly disagree,21/94,Somewhat agree,3,1708007098041,1708007150938,\Somewhat agree\,\Somewhat agree\,\3\,1708007150082,1708007150082,52041,52041,52897,buq,qns-item-noham,21,700017,0.0-1.0-0.20,65ce1ab1ccc2f2b8401248ac,AWAITING REVIEW,2024-02-15T14:12:31.397000Z,2024-02-15T14:50:54.475000Z,,2024-02-15T14:50:55.082533Z,2304.0,CVPIIDEI,1812,32,Male,Other,United States,United States,United States,English,No,Other,Not Applicable
612c6bd26f5f81c5765989d9,"<b>If a good friend of mine does something unexpected that upsets me, I feel like I don?t know them anymore.",Highly disagree,22/94,Somewhat agree,3,1708007150940,1708007165317,\Somewhat agree\,\Somewhat agree\,\3\,1708007164286,1708007164286,13346,13346,14377,buq,qns-item-noham,22,714396,0.0-1.0-0.21,65ce1ab1ccc2f2b8401248ac,AWAITING REVIEW,2024-02-15T14:12:31.397000Z,2024-02-15T14:50:54.475000Z,,2024-02-15T14:50:55.082533Z,2304.0,CVPIIDEI,1812,32,Male,Other,United States,United States,United States,English,No,Other,Not Applicable
612c6bd26f5f81c5765989d9,<b>Other people?s beliefs are often incoherent.,Highly disagree,23/94,Somewhat agree,3,1708007165319,1708007174227,\Somewhat agree\,\Somewhat agree\,\3\,1708007173099,1708007173099,7780,7780,8908,buq,qns-item-noham,23,723306,0.0-1.0-0.22,65ce1ab1ccc2f2b8401248ac,AWAITING REVIEW,2024-02-15T14:12:31.397000Z,2024-02-15T14:50:54.475000Z,,2024-02-15T14:50:55.082533Z,2304.0,CVPIIDEI,1812,32,Male,Other,United States,United States,United States,English,No,Other,Not Applicable
612c6bd26f5f81c5765989d9,"<b>Every now and then, a new experience will unsettle beliefs I?ve had for a while.",Highly disagree,24/94,Somewhat agree,3,1708007174228,1708007201215,\Somewhat agree\,\Somewhat agree\,\3\,1708007199883,1708007199883,25655,25655,26987,buq,qns-item-noham,24,750294,0.0-1.0-0.23,65ce1ab1ccc2f2b8401248ac,AWAITING REVIEW,2024-02-15T14:12:31.397000Z,2024-02-15T14:50:54.475000Z,,2024-02-15T14:50:55.082533Z,2304.0,CVPIIDEI,1812,32,Male,Other,United States,United States,United States,English,No,Other,Not Applicable
612c6bd26f5f81c5765989d9,<b>Some policies I agree with in principle are so bad I don?t support them. ,Highly disagree,25/94,Highly agree,4,1708007201217,1708007210309,\Highly agree\,\Highly agree\,\4\,1708007208806,1708007208806,7589,7589,9092,buq,qns-item-noham,25,759388,0.0-1.0-0.24,65ce1ab1ccc2f2b8401248ac,AWAITING REVIEW,2024-02-15T14:12:31.397000Z,2024-02-15T14:50:54.475000Z,,2024-02-15T14:50:55.082533Z,2304.0,CVPIIDEI,1812,32,Male,Other,United States,United States,United States,English,No,Other,Not Applicable
612c6bd26f5f81c5765989d9,<b>I?m pretty sure I?ve accidentally spread false information.,Highly disagree,26/94,Somewhat agree,3,1708007210311,1708007221845,\Somewhat agree\,\Somewhat agree\,\3\,1708007221018,1708007221018,10707,10707,11534,buq,qns-item-noham,26,770924,0.0-1.0-0.25,65ce1ab1ccc2f2b8401248ac,AWAITING REVIEW,2024-02-15T14:12:31.397000Z,2024-02-15T14:50:54.475000Z,,2024-02-15T14:50:55.082533Z,2304.0,CVPIIDEI,1812,32,Male,Other,United States,United States,United States,English,No,Other,Not Applicable
612c6bd26f5f81c5765989d9,"<b>If I go to my favorite restaurant and the food is unexpectedly bad, then they have changed owners.",Highly disagree,27/94,Somewhat agree,3,1708007221847,1708007241612,\Somewhat agree\,\Somewhat agree\,\3\,1708007240453,1708007240453,18606,18606,19765,buq,qns-item-noham,27,790691,0.0-1.0-0.26,65ce1ab1ccc2f2b8401248ac,AWAITING REVIEW,2024-02-15T14:12:31.397000Z,2024-02-15T14:50:54.475000Z,,2024-02-15T14:50:55.082533Z,2304.0,CVPIIDEI,1812,32,Male,Other,United States,United States,United States,English,No,Other,Not Applicable
612c6bd26f5f81c5765989d9,"<b>In politics, it?s important to trust your friends and family.",Highly disagree,28/94,Somewhat disagree,2,1708007241614,1708007261630,\Highly disagree\,\Somewhat disagree\,\1\,1708007255750,1708007260490,14136,18876,20016,buq,qns-item-noham,28,810709,0.0-1.0-0.27,65ce1ab1ccc2f2b8401248ac,AWAITING REVIEW,2024-02-15T14:12:31.397000Z,2024-02-15T14:50:54.475000Z,,2024-02-15T14:50:55.082533Z,2304.0,CVPIIDEI,1812,32,Male,Other,United States,United States,United States,English,No,Other,Not Applicable
612c6bd26f5f81c5765989d9,<b>It?s OK to have some conflicting beliefs.,Highly disagree,29/94,Somewhat disagree,2,1708007261632,1708007271164,\Somewhat disagree\,\Somewhat disagree\,\2\,1708007270174,1708007270174,8542,8542,9532,buq,qns-item-noham,29,820243,0.0-1.0-0.28,65ce1ab1ccc2f2b8401248ac,AWAITING REVIEW,2024-02-15T14:12:31.397000Z,2024-02-15T14:50:54.475000Z,,2024-02-15T14:50:55.082533Z,2304.0,CVPIIDEI,1812,32,Male,Other,United States,United States,United States,English,No,Other,Not Applicable
612c6bd26f5f81c5765989d9,<b>Listening to people I disagree with makes my opinions better.,Highly disagree,30/94,Highly disagree,1,1708007271166,1708007287410,\Highly disagree\,\Highly disagree\,\1\,1708007285037,1708007285037,13871,13871,16244,buq,qns-item-noham,30,836489,0.0-1.0-0.29,65ce1ab1ccc2f2b8401248ac,AWAITING REVIEW,2024-02-15T14:12:31.397000Z,2024-02-15T14:50:54.475000Z,,2024-02-15T14:50:55.082533Z,2304.0,CVPIIDEI,1812,32,Male,Other,United States,United States,United States,English,No,Other,Not Applicable
612c6bd26f5f81c5765989d9,<b>My moral compass sometimes makes it harder to determine what?s true.,Highly disagree,31/94,Highly disagree,1,1708007287412,1708007310469,\Highly disagree\,\Highly disagree\,\1\,1708007307718,1708007309535,20306,22123,23057,buq,qns-item-noham,31,859549,0.0-1.0-0.30,65ce1ab1ccc2f2b8401248ac,AWAITING REVIEW,2024-02-15T14:12:31.397000Z,2024-02-15T14:50:54.475000Z,,2024-02-15T14:50:55.082533Z,2304.0,CVPIIDEI,1812,32,Male,Other,United States,United States,United States,English,No,Other,Not Applicable
612c6bd26f5f81c5765989d9,<b>Evidence pointing in the wrong direction isn?t really evidence at all.,Highly disagree,32/94,Highly disagree,1,1708007310471,1708007325345,\Highly disagree\,\Highly disagree\,\1\,1708007324343,1708007324343,13872,13872,14874,buq,qns-item-noham,32,874424,0.0-1.0-0.31,65ce1ab1ccc2f2b8401248ac,AWAITING REVIEW,2024-02-15T14:12:31.397000Z,2024-02-15T14:50:54.475000Z,,2024-02-15T14:50:55.082533Z,2304.0,CVPIIDEI,1812,32,Male,Other,United States,United States,United States,English,No,Other,Not Applicable
612c6bd26f5f81c5765989d9,"<b>If the political party I support messes up, it makes me think politics is rotten.",Highly disagree,33/94,Highly agree,4,1708007325347,1708007333741,\Highly agree\,\Highly agree\,\4\,1708007332747,1708007332747,7400,7400,8394,buq,qns-item-noham,33,882820,0.0-1.0-0.32,65ce1ab1ccc2f2b8401248ac,AWAITING REVIEW,2024-02-15T14:12:31.397000Z,2024-02-15T14:50:54.475000Z,,2024-02-15T14:50:55.082533Z,2304.0,CVPIIDEI,1812,32,Male,Other,United States,United States,United States,English,No,Other,Not Applicable
612c6bd26f5f81c5765989d9,<b>Lots of important topics can only really be understood by some groups of people.,Highly disagree,34/94,Somewhat agree,3,1708007333742,1708007349845,\Somewhat agree\,\Somewhat agree\,\3\,1708007348963,1708007348963,15221,15221,16103,buq,qns-item-noham,34,898924,0.0-1.0-0.33,65ce1ab1ccc2f2b8401248ac,AWAITING REVIEW,2024-02-15T14:12:31.397000Z,2024-02-15T14:50:54.475000Z,,2024-02-15T14:50:55.082533Z,2304.0,CVPIIDEI,1812,32,Male,Other,United States,United States,United States,English,No,Other,Not Applicable
612c6bd26f5f81c5765989d9,<b>Having conflicting beliefs means you haven?t thought about them enough.,Highly disagree,35/94,Highly agree,4,1708007349847,1708007390687,\Somewhat agree\,\Highly agree\,\3\,1708007387892,1708007388872,38045,39025,40840,buq,qns-item-noham,35,939766,0.0-1.0-0.34,65ce1ab1ccc2f2b8401248ac,AWAITING REVIEW,2024-02-15T14:12:31.397000Z,2024-02-15T14:50:54.475000Z,,2024-02-15T14:50:55.082533Z,2304.0,CVPIIDEI,1812,32,Male,Other,United States,United States,United States,English,No,Other,Not Applicable
612c6bd26f5f81c5765989d9,<b>I do not often change my political opinions.,Highly disagree,36/94,Highly agree,4,1708007390688,1708007399455,\Highly agree\,\Highly agree\,\4\,1708007397717,1708007397717,7029,7029,8767,buq,qns-item-noham,36,948534,0.0-1.0-0.35,65ce1ab1ccc2f2b8401248ac,AWAITING REVIEW,2024-02-15T14:12:31.397000Z,2024-02-15T14:50:54.475000Z,,2024-02-15T14:50:55.082533Z,2304.0,CVPIIDEI,1812,32,Male,Other,United States,United States,United States,English,No,Other,Not Applicable
612c6bd26f5f81c5765989d9,<b>It?s difficult to not have at least some conflicting beliefs.,Highly disagree,37/94,Somewhat disagree,2,1708007399457,1708007412518,\Somewhat disagree\,\Somewhat disagree\,\2\,1708007406051,1708007406051,6594,6594,13061,buq,qns-item-noham,37,961597,0.0-1.0-0.36,65ce1ab1ccc2f2b8401248ac,AWAITING REVIEW,2024-02-15T14:12:31.397000Z,2024-02-15T14:50:54.475000Z,,2024-02-15T14:50:55.082533Z,2304.0,CVPIIDEI,1812,32,Male,Other,United States,United States,United States,English,No,Other,Not Applicable
612c6bd26f5f81c5765989d9,<b>Wishful thinking causes a lot of problems.,Highly disagree,38/94,Somewhat disagree,2,1708007412519,1708007421634,\Somewhat disagree\,\Somewhat disagree\,\2\,1708007420138,1708007420138,7619,7619,9115,buq,qns-item-noham,38,970713,0.0-1.0-0.37,65ce1ab1ccc2f2b8401248ac,AWAITING REVIEW,2024-02-15T14:12:31.397000Z,2024-02-15T14:50:54.475000Z,,2024-02-15T14:50:55.082533Z,2304.0,CVPIIDEI,1812,32,Male,Other,United States,United States,United States,English,No,Other,Not Applicable
612c6bd26f5f81c5765989d9,<b>I judge a food item only once I try it many times.,Highly disagree,39/94,Highly disagree,1,1708007421635,1708007440165,\Highly disagree\,\Highly disagree\,\1\,1708007439248,1708007439248,17613,17613,18530,buq,qns-item-noham,39,989244,0.0-1.0-0.38,65ce1ab1ccc2f2b8401248ac,AWAITING REVIEW,2024-02-15T14:12:31.397000Z,2024-02-15T14:50:54.475000Z,,2024-02-15T14:50:55.082533Z,2304.0,CVPIIDEI,1812,32,Male,Other,United States,United States,United States,English,No,Other,Not Applicable
612c6bd26f5f81c5765989d9,"<b>When a person holds conflicting beliefs, they should really try to figure out what?s wrong.",Highly disagree,40/94,Highly agree,4,1708007440166,1708007450962,\Somewhat agree\,\Highly agree\,\3\,1708007449174,1708007450082,9008,9916,10796,buq,qns-item-noham,40,1000041,0.0-1.0-0.39,65ce1ab1ccc2f2b8401248ac,AWAITING REVIEW,2024-02-15T14:12:31.397000Z,2024-02-15T14:50:54.475000Z,,2024-02-15T14:50:55.082533Z,2304.0,CVPIIDEI,1812,32,Male,Other,United States,United States,United States,English,No,Other,Not Applicable
612c6bd26f5f81c5765989d9,<b>Knowing what?s important in life is easy.,Highly disagree,41/94,Somewhat disagree,2,1708007450963,1708007457545,\Somewhat disagree\,\Somewhat disagree\,\2\,1708007456549,1708007456549,5586,5586,6582,buq,qns-item-noham,41,1006624,0.0-1.0-0.40,65ce1ab1ccc2f2b8401248ac,AWAITING REVIEW,2024-02-15T14:12:31.397000Z,2024-02-15T14:50:54.475000Z,,2024-02-15T14:50:55.082533Z,2304.0,CVPIIDEI,1812,32,Male,Other,United States,United States,United States,English,No,Other,Not Applicable
612c6bd26f5f81c5765989d9,<b>I swim across the Atlantic Ocean to get to work every day.,Highly disagree,42/94,Highly disagree,1,1708007457546,1708007463531,\Highly disagree\,\Highly disagree\,\1\,1708007462265,1708007462265,4719,4719,5985,buq,qns-item-noham,42,1012610,0.0-1.0-0.41,65ce1ab1ccc2f2b8401248ac,AWAITING REVIEW,2024-02-15T14:12:31.397000Z,2024-02-15T14:50:54.475000Z,,2024-02-15T14:50:55.082533Z,2304.0,CVPIIDEI,1812,32,Male,Other,United States,United States,United States,English,No,Other,Not Applicable
612c6bd26f5f81c5765989d9,"<b>Sometimes, you just have to ignore evidence that you know is wrong.",Highly disagree,43/94,Highly disagree,1,1708007463532,1708007468670,\Highly disagree\,\Highly disagree\,\1\,1708007467626,1708007467626,4094,4094,5138,buq,qns-item-noham,43,1017749,0.0-1.0-0.42,65ce1ab1ccc2f2b8401248ac,AWAITING REVIEW,2024-02-15T14:12:31.397000Z,2024-02-15T14:50:54.475000Z,,2024-02-15T14:50:55.082533Z,2304.0,CVPIIDEI,1812,32,Male,Other,United States,United States,United States,English,No,Other,Not Applicable
612c6bd26f5f81c5765989d9,<b>I have had some false beliefs.,Highly disagree,44/94,Somewhat agree,3,1708007468671,1708007474717,\Somewhat agree\,\Somewhat agree\,\3\,1708007473863,1708007473863,5192,5192,6046,buq,qns-item-noham,44,1023796,0.0-1.0-0.43,65ce1ab1ccc2f2b8401248ac,AWAITING REVIEW,2024-02-15T14:12:31.397000Z,2024-02-15T14:50:54.475000Z,,2024-02-15T14:50:55.082533Z,2304.0,CVPIIDEI,1812,32,Male,Other,United States,United States,United States,English,No,Other,Not Applicable
612c6bd26f5f81c5765989d9,"<b>If one friend does something that upsets me, I sometimes start to distrust people in general.",Highly disagree,45/94,Highly agree,4,1708007474719,1708007483788,\Highly agree\,\Highly agree\,\4\,1708007482846,1708007482846,8127,8127,9069,buq,qns-item-noham,45,1032867,0.0-1.0-0.44,65ce1ab1ccc2f2b8401248ac,AWAITING REVIEW,2024-02-15T14:12:31.397000Z,2024-02-15T14:50:54.475000Z,,2024-02-15T14:50:55.082533Z,2304.0,CVPIIDEI,1812,32,Male,Other,United States,United States,United States,English,No,Other,Not Applicable
612c6bd26f5f81c5765989d9,<b>The facts about most important matters are easy to find.,Highly disagree,46/94,Somewhat disagree,2,1708007483789,1708007492169,\Somewhat disagree\,\Somewhat disagree\,\2\,1708007491299,1708007491299,7510,7510,8380,buq,qns-item-noham,46,1041248,0.0-1.0-0.45,65ce1ab1ccc2f2b8401248ac,AWAITING REVIEW,2024-02-15T14:12:31.397000Z,2024-02-15T14:50:54.475000Z,,2024-02-15T14:50:55.082533Z,2304.0,CVPIIDEI,1812,32,Male,Other,United States,United States,United States,English,No,Other,Not Applicable
612c6bd26f5f81c5765989d9,<b>It?s better to know what?s true than to know what?s moral.,Highly disagree,47/94,Highly agree,4,1708007492170,1708007512134,\Highly agree\,\Highly agree\,\4\,1708007508970,1708007508970,16800,16800,19964,buq,qns-item-noham,47,1061213,0.0-1.0-0.46,65ce1ab1ccc2f2b8401248ac,AWAITING REVIEW,2024-02-15T14:12:31.397000Z,2024-02-15T14:50:54.475000Z,,2024-02-15T14:50:55.082533Z,2304.0,CVPIIDEI,1812,32,Male,Other,United States,United States,United States,English,No,Other,Not Applicable
612c6bd26f5f81c5765989d9,<b>I used to think the world was less complicated than I do now.,Highly disagree,48/94,Highly agree,4,1708007512135,1708007549601,\Highly agree\,\Highly agree\,\4\,1708007548438,1708007548438,36303,36303,37466,buq,qns-item-noham,48,1098680,0.0-1.0-0.47,65ce1ab1ccc2f2b8401248ac,AWAITING REVIEW,2024-02-15T14:12:31.397000Z,2024-02-15T14:50:54.475000Z,,2024-02-15T14:50:55.082533Z,2304.0,CVPIIDEI,1812,32,Male,Other,United States,United States,United States,English,No,Other,Not Applicable
612c6bd26f5f81c5765989d9,<b>People are usually completely right or completely wrong.,Highly disagree,49/94,Highly disagree,1,1708007549602,1708007554732,\Highly disagree\,\Highly disagree\,\1\,1708007553782,1708007553782,4180,4180,5130,buq,qns-item-noham,49,1103811,0.0-1.0-0.48,65ce1ab1ccc2f2b8401248ac,AWAITING REVIEW,2024-02-15T14:12:31.397000Z,2024-02-15T14:50:54.475000Z,,2024-02-15T14:50:55.082533Z,2304.0,CVPIIDEI,1812,32,Male,Other,United States,United States,United States,English,No,Other,Not Applicable
612c6bd26f5f81c5765989d9,<b>I spend a lot of time considering alternatives to my beliefs.,Highly disagree,50/94,Somewhat agree,3,1708007554733,1708007559121,\Somewhat agree\,\Somewhat agree\,\3\,1708007558294,1708007558294,3561,3561,4388,buq,qns-item-noham,50,1108200,0.0-1.0-0.49,65ce1ab1ccc2f2b8401248ac,AWAITING REVIEW,2024-02-15T14:12:31.397000Z,2024-02-15T14:50:54.475000Z,,2024-02-15T14:50:55.082533Z,2304.0,CVPIIDEI,1812,32,Male,Other,United States,United States,United States,English,No,Other,Not Applicable
612c6bd26f5f81c5765989d9,"<b>Political enemies need to be defeated, not convinced.",Highly disagree,51/94,Somewhat agree,3,1708007559123,1708007573351,\Somewhat agree\,\Somewhat agree\,\3\,1708007572543,1708007572543,13420,13420,14228,buq,qns-item-noham,51,1122430,0.0-1.0-0.50,65ce1ab1ccc2f2b8401248ac,AWAITING REVIEW,2024-02-15T14:12:31.397000Z,2024-02-15T14:50:54.475000Z,,2024-02-15T14:50:55.082533Z,2304.0,CVPIIDEI,1812,32,Male,Other,United States,United States,United States,English,No,Other,Not Applicable
612c6bd26f5f81c5765989d9,<b>I form my political views only after meticulously gathering historical and present information about their policies.,Highly disagree,52/94,Somewhat disagree,2,1708007573352,1708007738772,\Somewhat disagree\,\Somewhat disagree\,\2\,1708007737874,1708007737874,164522,164522,165420,buq,qns-item-noham,52,1287851,0.0-1.0-0.51,65ce1ab1ccc2f2b8401248ac,AWAITING REVIEW,2024-02-15T14:12:31.397000Z,2024-02-15T14:50:54.475000Z,,2024-02-15T14:50:55.082533Z,2304.0,CVPIIDEI,1812,32,Male,Other,United States,United States,United States,English,No,Other,Not Applicable
612c6bd26f5f81c5765989d9,<b>It is difficult for me to remember the last time I was surprised by politics.,Highly disagree,53/94,Somewhat disagree,2,1708007738773,1708007769342,\Somewhat disagree\,\Somewhat disagree\,\2\,1708007768312,1708007768312,29539,29539,30569,buq,qns-item-noham,53,1318421,0.0-1.0-0.52,65ce1ab1ccc2f2b8401248ac,AWAITING REVIEW,2024-02-15T14:12:31.397000Z,2024-02-15T14:50:54.475000Z,,2024-02-15T14:50:55.082533Z,2304.0,CVPIIDEI,1812,32,Male,Other,United States,United States,United States,English,No,Other,Not Applicable
612c6bd26f5f81c5765989d9,"<b>When I find out I?m wrong, I think a lot about my related beliefs.",Highly disagree,54/94,Highly agree,4,1708007769344,1708007776708,\Highly agree\,\Highly agree\,\4\,1708007775822,1708007775822,6478,6478,7364,buq,qns-item-noham,54,1325787,0.0-1.0-0.53,65ce1ab1ccc2f2b8401248ac,AWAITING REVIEW,2024-02-15T14:12:31.397000Z,2024-02-15T14:50:54.475000Z,,2024-02-15T14:50:55.082533Z,2304.0,CVPIIDEI,1812,32,Male,Other,United States,United States,United States,English,No,Other,Not Applicable
612c6bd26f5f81c5765989d9,"<b>If the political party I support messes up, it makes me think you can?t trust anyone these days",Highly disagree,55/94,Highly disagree,1,1708007776709,1708007786723,\Highly disagree\,\Highly disagree\,\1\,1708007785467,1708007785467,8758,8758,10014,buq,qns-item-noham,55,1335802,0.0-1.0-0.54,65ce1ab1ccc2f2b8401248ac,AWAITING REVIEW,2024-02-15T14:12:31.397000Z,2024-02-15T14:50:54.475000Z,,2024-02-15T14:50:55.082533Z,2304.0,CVPIIDEI,1812,32,Male,Other,United States,United States,United States,English,No,Other,Not Applicable
612c6bd26f5f81c5765989d9,<b>People?s brains turn off when they talk about politics.,Highly disagree,56/94,Somewhat agree,3,1708007786724,1708007791567,\Somewhat agree\,\Somewhat agree\,\3\,1708007790478,1708007790478,3754,3754,4843,buq,qns-item-noham,56,1340646,0.0-1.0-0.55,65ce1ab1ccc2f2b8401248ac,AWAITING REVIEW,2024-02-15T14:12:31.397000Z,2024-02-15T14:50:54.475000Z,,2024-02-15T14:50:55.082533Z,2304.0,CVPIIDEI,1812,32,Male,Other,United States,United States,United States,English,No,Other,Not Applicable
612c6bd26f5f81c5765989d9,<b>People who are wrong are usually just ignoring the obvious.,Highly disagree,57/94,Somewhat agree,3,1708007791568,1708007801243,\Somewhat agree\,\Somewhat agree\,\3\,1708007796855,1708007800264,5287,8696,9675,buq,qns-item-noham,57,1350322,0.0-1.0-0.56,65ce1ab1ccc2f2b8401248ac,AWAITING REVIEW,2024-02-15T14:12:31.397000Z,2024-02-15T14:50:54.475000Z,,2024-02-15T14:50:55.082533Z,2304.0,CVPIIDEI,1812,32,Male,Other,United States,United States,United States,English,No,Other,Not Applicable
612c6bd26f5f81c5765989d9,"<b>When forming my views on people, I rely more on what they are like now rather than rely on my past experience with them.",Highly disagree,58/94,Highly disagree,1,1708007801244,1708007845723,\Somewhat disagree\,\Highly disagree\,\2\,1708007843030,1708007844657,41786,43413,44479,buq,qns-item-noham,58,1394802,0.0-1.0-0.57,65ce1ab1ccc2f2b8401248ac,AWAITING REVIEW,2024-02-15T14:12:31.397000Z,2024-02-15T14:50:54.475000Z,,2024-02-15T14:50:55.082533Z,2304.0,CVPIIDEI,1812,32,Male,Other,United States,United States,United States,English,No,Other,Not Applicable
612c6bd26f5f81c5765989d9,"<b>When people contradict my beliefs, I usually know about their evidence already.",Highly disagree,59/94,Somewhat disagree,2,1708007845724,1708007856441,\Somewhat disagree\,\Somewhat disagree\,\2\,1708007855117,1708007855117,9393,9393,10717,buq,qns-item-noham,59,1405520,0.0-1.0-0.58,65ce1ab1ccc2f2b8401248ac,AWAITING REVIEW,2024-02-15T14:12:31.397000Z,2024-02-15T14:50:54.475000Z,,2024-02-15T14:50:55.082533Z,2304.0,CVPIIDEI,1812,32,Male,Other,United States,United States,United States,English,No,Other,Not Applicable
612c6bd26f5f81c5765989d9,<b>Figuring out what?s true and what?s false mainly requires a strong moral compass.,Highly disagree,60/94,Somewhat agree,3,1708007856443,1708007888369,\Somewhat agree\,\Somewhat agree\,\3\,1708007887104,1708007887104,30661,30661,31926,buq,qns-item-noham,60,1437448,0.0-1.0-0.59,65ce1ab1ccc2f2b8401248ac,AWAITING REVIEW,2024-02-15T14:12:31.397000Z,2024-02-15T14:50:54.475000Z,,2024-02-15T14:50:55.082533Z,2304.0,CVPIIDEI,1812,32,Male,Other,United States,United States,United States,English,No,Other,Not Applicable
612c6bd26f5f81c5765989d9,"<b>Usually I?m wrong about simple things, not complicated ones.",Highly disagree,61/94,Somewhat disagree,2,1708007888370,1708007907550,\Somewhat disagree\,\Somewhat disagree\,\2\,1708007897937,1708007897937,9567,9567,19180,buq,qns-item-noham,61,1456629,0.0-1.0-0.60,65ce1ab1ccc2f2b8401248ac,AWAITING REVIEW,2024-02-15T14:12:31.397000Z,2024-02-15T14:50:54.475000Z,,2024-02-15T14:50:55.082533Z,2304.0,CVPIIDEI,1812,32,Male,Other,United States,United States,United States,English,No,Other,Not Applicable
612c6bd26f5f81c5765989d9,<b>Getting all the information I want about important things is hard.,Highly disagree,62/94,Highly disagree,1,1708007907551,1708007914587,\Highly disagree\,\Highly disagree\,\1\,1708007913680,1708007913680,6129,6129,7036,buq,qns-item-noham,62,1463666,0.0-1.0-0.61,65ce1ab1ccc2f2b8401248ac,AWAITING REVIEW,2024-02-15T14:12:31.397000Z,2024-02-15T14:50:54.475000Z,,2024-02-15T14:50:55.082533Z,2304.0,CVPIIDEI,1812,32,Male,Other,United States,United States,United States,English,No,Other,Not Applicable
612c6bd26f5f81c5765989d9,<b>Most false beliefs spread because people try to deceive one another.,Highly disagree,63/94,Highly agree,4,1708007914589,1708007922732,\Highly agree\,\Highly agree\,\4\,1708007921535,1708007921535,6946,6946,8143,buq,qns-item-noham,63,1471811,0.0-1.0-0.62,65ce1ab1ccc2f2b8401248ac,AWAITING REVIEW,2024-02-15T14:12:31.397000Z,2024-02-15T14:50:54.475000Z,,2024-02-15T14:50:55.082533Z,2304.0,CVPIIDEI,1812,32,Male,Other,United States,United States,United States,English,No,Other,Not Applicable
612c6bd26f5f81c5765989d9,<b>I can usually find something to agree with in most people?s beliefs.,Highly disagree,64/94,Highly agree,4,1708007922734,1708007928574,\Highly agree\,\Highly agree\,\4\,1708007927668,1708007927668,4934,4934,5840,buq,qns-item-noham,64,1477653,0.0-1.0-0.63,65ce1ab1ccc2f2b8401248ac,AWAITING REVIEW,2024-02-15T14:12:31.397000Z,2024-02-15T14:50:54.475000Z,,2024-02-15T14:50:55.082533Z,2304.0,CVPIIDEI,1812,32,Male,Other,United States,United States,United States,English,No,Other,Not Applicable
612c6bd26f5f81c5765989d9,<b>I only form my views of people once I get to know them very well.,Highly disagree,65/94,Somewhat agree,3,1708007928576,1708007936646,\Somewhat agree\,\Somewhat agree\,\3\,1708007935778,1708007935778,7202,7202,8070,buq,qns-item-noham,65,1485725,0.0-1.0-0.64,65ce1ab1ccc2f2b8401248ac,AWAITING REVIEW,2024-02-15T14:12:31.397000Z,2024-02-15T14:50:54.475000Z,,2024-02-15T14:50:55.082533Z,2304.0,CVPIIDEI,1812,32,Male,Other,United States,United States,United States,English,No,Other,Not Applicable
612c6bd26f5f81c5765989d9,"<b>When people tell me important things about the world, I usually believe them.",Highly disagree,66/94,Somewhat agree,3,1708007936647,1708007945552,\Somewhat agree\,\Somewhat agree\,\3\,1708007944265,1708007944265,7618,7618,8905,buq,qns-item-noham,66,1494631,0.0-1.0-0.65,65ce1ab1ccc2f2b8401248ac,AWAITING REVIEW,2024-02-15T14:12:31.397000Z,2024-02-15T14:50:54.475000Z,,2024-02-15T14:50:55.082533Z,2304.0,CVPIIDEI,1812,32,Male,Other,United States,United States,United States,English,No,Other,Not Applicable
612c6bd26f5f81c5765989d9,"<b>If a friend does something that upsets me, it reminds me what an unpredictable place the world is.",Highly disagree,67/94,Somewhat agree,3,1708007945554,1708007961446,\Somewhat agree\,\Somewhat agree\,\3\,1708007959963,1708007959963,14409,14409,15892,buq,qns-item-noham,67,1510525,0.0-1.0-0.66,65ce1ab1ccc2f2b8401248ac,AWAITING REVIEW,2024-02-15T14:12:31.397000Z,2024-02-15T14:50:54.475000Z,,2024-02-15T14:50:55.082533Z,2304.0,CVPIIDEI,1812,32,Male,Other,United States,United States,United States,English,No,Other,Not Applicable
612c6bd26f5f81c5765989d9,<b>People tend to believe whatever is good for their friends.,Highly disagree,68/94,Highly agree,4,1708007961447,1708007978529,\Highly agree\,\Highly agree\,\4\,1708007977442,1708007977442,15995,15995,17082,buq,qns-item-noham,68,1527608,0.0-1.0-0.67,65ce1ab1ccc2f2b8401248ac,AWAITING REVIEW,2024-02-15T14:12:31.397000Z,2024-02-15T14:50:54.475000Z,,2024-02-15T14:50:55.082533Z,2304.0,CVPIIDEI,1812,32,Male,Other,United States,United States,United States,English,No,Other,Not Applicable
612c6bd26f5f81c5765989d9,<b>I used to be more certain my beliefs were true.,Highly disagree,69/94,Highly agree,4,1708007978530,1708007984988,\Highly agree\,\Highly agree\,\4\,1708007983746,1708007983746,5216,5216,6458,buq,qns-item-noham,69,1534067,0.0-1.0-0.68,65ce1ab1ccc2f2b8401248ac,AWAITING REVIEW,2024-02-15T14:12:31.397000Z,2024-02-15T14:50:54.475000Z,,2024-02-15T14:50:55.082533Z,2304.0,CVPIIDEI,1812,32,Male,Other,United States,United States,United States,English,No,Other,Not Applicable
612c6bd26f5f81c5765989d9,<b>It?s often pretty easy to figure out whether something is true based on who said it.,Highly disagree,70/94,Somewhat disagree,2,1708007984989,1708008011181,\Highly disagree\,\Somewhat disagree\,\1\,1708008005211,1708008010094,20222,25105,26192,buq,qns-item-noham,70,1560260,0.0-1.0-0.69,65ce1ab1ccc2f2b8401248ac,AWAITING REVIEW,2024-02-15T14:12:31.397000Z,2024-02-15T14:50:54.475000Z,,2024-02-15T14:50:55.082533Z,2304.0,CVPIIDEI,1812,32,Male,Other,United States,United States,United States,English,No,Other,Not Applicable
612c6bd26f5f81c5765989d9,<b>I transform into a hummingbird every day.,Highly disagree,71/94,Highly disagree,1,1708008011182,1708008015193,\Highly disagree\,\Highly disagree\,\1\,1708008013355,1708008013355,2173,2173,4011,buq,qns-item-noham,71,1564272,0.0-1.0-0.70,65ce1ab1ccc2f2b8401248ac,AWAITING REVIEW,2024-02-15T14:12:31.397000Z,2024-02-15T14:50:54.475000Z,,2024-02-15T14:50:55.082533Z,2304.0,CVPIIDEI,1812,32,Male,Other,United States,United States,United States,English,No,Other,Not Applicable
612c6bd26f5f81c5765989d9,<b>I think a lot about arguments against my views.,Highly disagree,72/94,Highly disagree,1,1708008015195,1708008029673,\Somewhat disagree\,\Highly disagree\,\2\,1708008027273,1708008028630,12078,13435,14478,buq,qns-item-noham,72,1578752,0.0-1.0-0.71,65ce1ab1ccc2f2b8401248ac,AWAITING REVIEW,2024-02-15T14:12:31.397000Z,2024-02-15T14:50:54.475000Z,,2024-02-15T14:50:55.082533Z,2304.0,CVPIIDEI,1812,32,Male,Other,United States,United States,United States,English,No,Other,Not Applicable
612c6bd26f5f81c5765989d9,<b>Personal experience is usually more important than facts and figures.,Highly disagree,73/94,Highly agree,4,1708008029674,1708008042534,\Highly agree\,\Highly agree\,\4\,1708008040238,1708008040238,10564,10564,12860,buq,qns-item-noham,73,1591613,0.0-1.0-0.72,65ce1ab1ccc2f2b8401248ac,AWAITING REVIEW,2024-02-15T14:12:31.397000Z,2024-02-15T14:50:54.475000Z,,2024-02-15T14:50:55.082533Z,2304.0,CVPIIDEI,1812,32,Male,Other,United States,United States,United States,English,No,Other,Not Applicable
612c6bd26f5f81c5765989d9,<b>I?ve been tricked before about important matters.,Highly disagree,74/94,Highly agree,4,1708008042535,1708008046388,\Highly agree\,\Highly agree\,\4\,1708008045458,1708008045458,2923,2923,3853,buq,qns-item-noham,74,1595467,0.0-1.0-0.73,65ce1ab1ccc2f2b8401248ac,AWAITING REVIEW,2024-02-15T14:12:31.397000Z,2024-02-15T14:50:54.475000Z,,2024-02-15T14:50:55.082533Z,2304.0,CVPIIDEI,1812,32,Male,Other,United States,United States,United States,English,No,Other,Not Applicable
612c6bd26f5f81c5765989d9,<b>I would need to be totally wowed if I were to change my opinion of a restaurant I don?t like.,Highly disagree,75/94,Somewhat agree,3,1708008046390,1708008061986,\Somewhat agree\,\Somewhat agree\,\3\,1708008060256,1708008060256,13866,13866,15596,buq,qns-item-noham,75,1611065,0.0-1.0-0.74,65ce1ab1ccc2f2b8401248ac,AWAITING REVIEW,2024-02-15T14:12:31.397000Z,2024-02-15T14:50:54.475000Z,,2024-02-15T14:50:55.082533Z,2304.0,CVPIIDEI,1812,32,Male,Other,United States,United States,United States,English,No,Other,Not Applicable
612c6bd26f5f81c5765989d9,<b>I care a lot about politics.,Highly disagree,76/94,Somewhat agree,3,1708008061987,1708008066901,\Somewhat agree\,\Somewhat agree\,\3\,1708008065885,1708008065885,3898,3898,4914,buq,qns-item-noham,76,1615980,0.0-1.0-0.75,65ce1ab1ccc2f2b8401248ac,AWAITING REVIEW,2024-02-15T14:12:31.397000Z,2024-02-15T14:50:54.475000Z,,2024-02-15T14:50:55.082533Z,2304.0,CVPIIDEI,1812,32,Male,Other,United States,United States,United States,English,No,Other,Not Applicable
612c6bd26f5f81c5765989d9,<b>There are some topics I?ve been really wrong about.,Highly disagree,77/94,Somewhat agree,3,1708008066903,1708008078672,\Somewhat agree\,\Somewhat agree\,\3\,1708008077403,1708008077403,10500,10500,11769,buq,qns-item-noham,77,1627751,0.0-1.0-0.76,65ce1ab1ccc2f2b8401248ac,AWAITING REVIEW,2024-02-15T14:12:31.397000Z,2024-02-15T14:50:54.475000Z,,2024-02-15T14:50:55.082533Z,2304.0,CVPIIDEI,1812,32,Male,Other,United States,United States,United States,English,No,Other,Not Applicable
612c6bd26f5f81c5765989d9,<b>Most beliefs can be supported with at least some evidence.,Highly disagree,78/94,Somewhat agree,3,1708008078673,1708008084857,\Somewhat agree\,\Somewhat agree\,\3\,1708008083900,1708008083900,5227,5227,6184,buq,qns-item-noham,78,1633936,0.0-1.0-0.77,65ce1ab1ccc2f2b8401248ac,AWAITING REVIEW,2024-02-15T14:12:31.397000Z,2024-02-15T14:50:54.475000Z,,2024-02-15T14:50:55.082533Z,2304.0,CVPIIDEI,1812,32,Male,Other,United States,United States,United States,English,No,Other,Not Applicable
612c6bd26f5f81c5765989d9,<b>Other people make life out to be more complicated than it really is.,Highly disagree,79/94,Somewhat agree,3,1708008084859,1708008096348,\Somewhat agree\,\Somewhat agree\,\3\,1708008095054,1708008095054,10195,10195,11489,buq,qns-item-noham,79,1645427,0.0-1.0-0.78,65ce1ab1ccc2f2b8401248ac,AWAITING REVIEW,2024-02-15T14:12:31.397000Z,2024-02-15T14:50:54.475000Z,,2024-02-15T14:50:55.082533Z,2304.0,CVPIIDEI,1812,32,Male,Other,United States,United States,United States,English,No,Other,Not Applicable
612c6bd26f5f81c5765989d9,"<b>Policy details don?t matter much, just the big picture.",Highly disagree,80/94,Highly disagree,1,1708008096349,1708008495174,\Highly disagree\,\Highly disagree\,\1\,1708008493932,1708008493932,397583,397583,398825,buq,qns-item-noham,80,2044253,0.0-1.0-0.79,65ce1ab1ccc2f2b8401248ac,AWAITING REVIEW,2024-02-15T14:12:31.397000Z,2024-02-15T14:50:54.475000Z,,2024-02-15T14:50:55.082533Z,2304.0,CVPIIDEI,1812,32,Male,Other,United States,United States,United States,English,No,Other,Not Applicable
612c6bd26f5f81c5765989d9,<b>I know my friends so well they can hardly ever surprise me.,Highly disagree,81/94,Highly agree,4,1708008495176,1708008500663,\Highly agree\,\Highly agree\,\4\,1708008499563,1708008499563,4387,4387,5487,buq,qns-item-noham,81,2049742,0.0-1.0-0.80,65ce1ab1ccc2f2b8401248ac,AWAITING REVIEW,2024-02-15T14:12:31.397000Z,2024-02-15T14:50:54.475000Z,,2024-02-15T14:50:55.082533Z,2304.0,CVPIIDEI,1812,32,Male,Other,United States,United States,United States,English,No,Other,Not Applicable
612c6bd26f5f81c5765989d9,<b>I do not often change my views on people.,Highly disagree,82/94,Somewhat disagree,2,1708008500665,1708008519281,\Somewhat disagree\,\Somewhat disagree\,\2\,1708008515950,1708008515950,15285,15285,18616,buq,qns-item-noham,82,2068360,0.0-1.0-0.81,65ce1ab1ccc2f2b8401248ac,AWAITING REVIEW,2024-02-15T14:12:31.397000Z,2024-02-15T14:50:54.475000Z,,2024-02-15T14:50:55.082533Z,2304.0,CVPIIDEI,1812,32,Male,Other,United States,United States,United States,English,No,Other,Not Applicable
612c6bd26f5f81c5765989d9,<b>I?m more certain about my beliefs than I used to be.,Highly disagree,83/94,Highly disagree,1,1708008519282,1708008526993,\Highly disagree\,\Highly disagree\,\1\,1708008522671,1708008522671,3389,3389,7711,buq,qns-item-noham,83,2076072,0.0-1.0-0.82,65ce1ab1ccc2f2b8401248ac,AWAITING REVIEW,2024-02-15T14:12:31.397000Z,2024-02-15T14:50:54.475000Z,,2024-02-15T14:50:55.082533Z,2304.0,CVPIIDEI,1812,32,Male,Other,United States,United States,United States,English,No,Other,Not Applicable
612c6bd26f5f81c5765989d9,<b>People often tell falsehoods unintentionally.,Highly disagree,84/94,Highly agree,4,1708008526994,1708008536329,\Highly agree\,\Highly agree\,\4\,1708008535126,1708008535126,8132,8132,9335,buq,qns-item-noham,84,2085408,0.0-1.0-0.83,65ce1ab1ccc2f2b8401248ac,AWAITING REVIEW,2024-02-15T14:12:31.397000Z,2024-02-15T14:50:54.475000Z,,2024-02-15T14:50:55.082533Z,2304.0,CVPIIDEI,1812,32,Male,Other,United States,United States,United States,English,No,Other,Not Applicable
612c6bd26f5f81c5765989d9,<b>Most people don?t know much about most things.,Highly disagree,85/94,Highly agree,4,1708008536330,1708008541509,\Highly agree\,\Highly agree\,\4\,1708008540564,1708008540564,4234,4234,5179,buq,qns-item-noham,85,2090588,0.0-1.0-0.84,65ce1ab1ccc2f2b8401248ac,AWAITING REVIEW,2024-02-15T14:12:31.397000Z,2024-02-15T14:50:54.475000Z,,2024-02-15T14:50:55.082533Z,2304.0,CVPIIDEI,1812,32,Male,Other,United States,United States,United States,English,No,Other,Not Applicable
612c6bd26f5f81c5765989d9,"<b>If I find out something new about someone, I easily change my views about them.",Highly disagree,86/94,Somewhat disagree,2,1708008541511,1708008551382,\Somewhat disagree\,\Somewhat disagree\,\2\,1708008549830,1708008549830,8319,8319,9871,buq,qns-item-noham,86,2100461,0.0-1.0-0.85,65ce1ab1ccc2f2b8401248ac,AWAITING REVIEW,2024-02-15T14:12:31.397000Z,2024-02-15T14:50:54.475000Z,,2024-02-15T14:50:55.082533Z,2304.0,CVPIIDEI,1812,32,Male,Other,United States,United States,United States,English,No,Other,Not Applicable
612c6bd26f5f81c5765989d9,<b>Having true beliefs is difficult.,Highly disagree,87/94,Highly disagree,1,1708008551383,1708008557073,\Highly disagree\,\Highly disagree\,\1\,1708008556174,1708008556174,4791,4791,5690,buq,qns-item-noham,87,2106152,0.0-1.0-0.86,65ce1ab1ccc2f2b8401248ac,AWAITING REVIEW,2024-02-15T14:12:31.397000Z,2024-02-15T14:50:54.475000Z,,2024-02-15T14:50:55.082533Z,2304.0,CVPIIDEI,1812,32,Male,Other,United States,United States,United States,English,No,Other,Not Applicable
612c6bd26f5f81c5765989d9,<b>I don?t try new foods since I know I won?t like them.,Highly disagree,88/94,Somewhat disagree,2,1708008557075,1708008564811,\Somewhat disagree\,\Somewhat disagree\,\2\,1708008563803,1708008563803,6728,6728,7736,buq,qns-item-noham,88,2113890,0.0-1.0-0.87,65ce1ab1ccc2f2b8401248ac,AWAITING REVIEW,2024-02-15T14:12:31.397000Z,2024-02-15T14:50:54.475000Z,,2024-02-15T14:50:55.082533Z,2304.0,CVPIIDEI,1812,32,Male,Other,United States,United States,United States,English,No,Other,Not Applicable
612c6bd26f5f81c5765989d9,<b>Other people trick each other a lot.,Highly disagree,89/94,Highly agree,4,1708008564813,1708008569406,\Highly agree\,\Highly agree\,\4\,1708008568418,1708008568418,3605,3605,4593,buq,qns-item-noham,89,2118485,0.0-1.0-0.88,65ce1ab1ccc2f2b8401248ac,AWAITING REVIEW,2024-02-15T14:12:31.397000Z,2024-02-15T14:50:54.475000Z,,2024-02-15T14:50:55.082533Z,2304.0,CVPIIDEI,1812,32,Male,Other,United States,United States,United States,English,No,Other,Not Applicable
612c6bd26f5f81c5765989d9,<b>I would need to learn a lot about a person for my opinion of them to be swayed.,Highly disagree,90/94,Somewhat disagree,2,1708008569408,1708008581393,\Somewhat disagree\,\Somewhat disagree\,\2\,1708008580450,1708008580450,11042,11042,11985,buq,qns-item-noham,90,2130472,0.0-1.0-0.89,65ce1ab1ccc2f2b8401248ac,AWAITING REVIEW,2024-02-15T14:12:31.397000Z,2024-02-15T14:50:54.475000Z,,2024-02-15T14:50:55.082533Z,2304.0,CVPIIDEI,1812,32,Male,Other,United States,United States,United States,English,No,Other,Not Applicable
612c6bd26f5f81c5765989d9,<b>People can?t usually trick me when it comes to topics I care about.,Highly disagree,91/94,Highly agree,4,1708008581394,1708008591081,\Somewhat agree\,\Highly agree\,\3\,1708008588517,1708008589604,7123,8210,9687,buq,qns-item-noham,91,2140160,0.0-1.0-0.90,65ce1ab1ccc2f2b8401248ac,AWAITING REVIEW,2024-02-15T14:12:31.397000Z,2024-02-15T14:50:54.475000Z,,2024-02-15T14:50:55.082533Z,2304.0,CVPIIDEI,1812,32,Male,Other,United States,United States,United States,English,No,Other,Not Applicable
612c6bd26f5f81c5765989d9,<b>I do not often change my views on food.,Highly disagree,92/94,Somewhat disagree,2,1708008591083,1708008602262,\Somewhat disagree\,\Somewhat disagree\,\2\,1708008601398,1708008601398,10315,10315,11179,buq,qns-item-noham,92,2151341,0.0-1.0-0.91,65ce1ab1ccc2f2b8401248ac,AWAITING REVIEW,2024-02-15T14:12:31.397000Z,2024-02-15T14:50:54.475000Z,,2024-02-15T14:50:55.082533Z,2304.0,CVPIIDEI,1812,32,Male,Other,United States,United States,United States,English,No,Other,Not Applicable
612c6bd26f5f81c5765989d9,<b>Specific policies are often very important to me.,Highly disagree,93/94,Highly agree,4,1708008602263,1708008611046,\Highly agree\,\Highly agree\,\4\,1708008610126,1708008610126,7863,7863,8783,buq,qns-item-noham,93,2160125,0.0-1.0-0.92,65ce1ab1ccc2f2b8401248ac,AWAITING REVIEW,2024-02-15T14:12:31.397000Z,2024-02-15T14:50:54.475000Z,,2024-02-15T14:50:55.082533Z,2304.0,CVPIIDEI,1812,32,Male,Other,United States,United States,United States,English,No,Other,Not Applicable
612c6bd26f5f81c5765989d9,<b>Most people are woefully under-informed.,Highly disagree,94/94,Highly agree,4,1708008611047,1708008616120,\Highly agree\,\Highly agree\,\4\,1708008615270,1708008615270,4223,4223,5073,buq,qns-item-noham,94,2165199,0.0-1.0-0.93,65ce1ab1ccc2f2b8401248ac,AWAITING REVIEW,2024-02-15T14:12:31.397000Z,2024-02-15T14:50:54.475000Z,,2024-02-15T14:50:55.082533Z,2304.0,CVPIIDEI,1812,32,Male,Other,United States,United States,United States,English,No,Other,Not Applicable
612c6bd26f5f81c5765989d9,,,,,,,,,,,,,,,,,,,,,65ce1ab1ccc2f2b8401248ac,AWAITING REVIEW,2024-02-15T14:12:31.397000Z,2024-02-15T14:50:54.475000Z,,2024-02-15T14:50:55.082533Z,2304.0,CVPIIDEI,1812,32,Male,Other,United States,United States,United States,English,No,Other,Not Applicable
