PROLIFIC_PID,Question,qns_options,quest_num,answer,answer_num,question_load_timestamp,next_btn_timestamp,text_selected,final_text_selected,option_num_selected,preview_timestamps,final_text_selected_time_stamp,rt_first_option_click,rt_final_option_click,rt_submit_click,questionnaire,trial_type,trial_index,time_elapsed,internal_node_id,Demographic_Submission id,Demographic_Status,Demographic_Started at,Demographic_Completed at,Demographic_Reviewed at,Demographic_Archived at,Demographic_Time taken,Demographic_Completion code,Demographic_Total approvals,Demographic_Age,Demographic_Sex,Demographic_Ethnicity simplified,Demographic_Country of birth,Demographic_Country of residence,Demographic_Nationality,Demographic_Language,Demographic_Student status,Demographic_Employment status,Demographic_Custom study tncs accepted at
65cb7c46800d57cbac8023c7,<b>Knowing what?s true and knowing what to do about it are usually basically the same.,Highly disagree,1/94,Somewhat disagree,2,1708006322358,1708006331823,\Somewhat disagree\,\Somewhat disagree\,\2\,1708006330890,1708006330890,8532,8532,9465,buq,qns-item-noham,1,18177,0.0-1.0-0.0,65ce1b92d17ca311d7c513d2,AWAITING REVIEW,2024-02-15T14:11:38.715000Z,2024-02-15T15:03:09.850000Z,,2024-02-15T15:03:10.528109Z,3092.0,CVPIIDEI,5,38,Female,Asian,United States,United States,United States,English,No,DATA_EXPIRED,Not Applicable
65cb7c46800d57cbac8023c7,<b>Most people just believe whatever is convenient for them.,Highly disagree,2/94,Somewhat agree,3,1708006331828,1708006337640,\Somewhat agree\,\Somewhat agree\,\3\,1708006336606,1708006336606,4778,4778,5812,buq,qns-item-noham,2,23994,0.0-1.0-0.1,65ce1b92d17ca311d7c513d2,AWAITING REVIEW,2024-02-15T14:11:38.715000Z,2024-02-15T15:03:09.850000Z,,2024-02-15T15:03:10.528109Z,3092.0,CVPIIDEI,5,38,Female,Asian,United States,United States,United States,English,No,DATA_EXPIRED,Not Applicable
65cb7c46800d57cbac8023c7,<b>Having some big beliefs helps me sort out minor ones.,Highly disagree,3/94,Somewhat disagree,2,1708006337643,1708006345973,\Somewhat disagree\,\Somewhat disagree\,\2\,1708006345123,1708006345123,7480,7480,8330,buq,qns-item-noham,3,32327,0.0-1.0-0.2,65ce1b92d17ca311d7c513d2,AWAITING REVIEW,2024-02-15T14:11:38.715000Z,2024-02-15T15:03:09.850000Z,,2024-02-15T15:03:10.528109Z,3092.0,CVPIIDEI,5,38,Female,Asian,United States,United States,United States,English,No,DATA_EXPIRED,Not Applicable
65cb7c46800d57cbac8023c7,<b>Political questions are usually pretty complicated.,Highly disagree,4/94,Highly agree,4,1708006345976,1708006350672,\Highly agree\,\Highly agree\,\4\,1708006349889,1708006349889,3913,3913,4696,buq,qns-item-noham,4,37026,0.0-1.0-0.3,65ce1b92d17ca311d7c513d2,AWAITING REVIEW,2024-02-15T14:11:38.715000Z,2024-02-15T15:03:09.850000Z,,2024-02-15T15:03:10.528109Z,3092.0,CVPIIDEI,5,38,Female,Asian,United States,United States,United States,English,No,DATA_EXPIRED,Not Applicable
65cb7c46800d57cbac8023c7,<b>Figuring out what?s important in life requires learning a lot of facts.,Highly disagree,5/94,Highly disagree,1,1708006350674,1708006358907,\Somewhat disagree\,\Highly disagree\,\2\,1708006357239,1708006358223,6565,7549,8233,buq,qns-item-noham,5,45261,0.0-1.0-0.4,65ce1b92d17ca311d7c513d2,AWAITING REVIEW,2024-02-15T14:11:38.715000Z,2024-02-15T15:03:09.850000Z,,2024-02-15T15:03:10.528109Z,3092.0,CVPIIDEI,5,38,Female,Asian,United States,United States,United States,English,No,DATA_EXPIRED,Not Applicable
65cb7c46800d57cbac8023c7,<b>It is difficult for me to remember the last time I was surprised by politics.,Highly disagree,6/94,Highly disagree,1,1708006358909,1708006364907,\Highly disagree\,\Highly disagree\,\1\,1708006364256,1708006364256,5347,5347,5998,buq,qns-item-noham,6,51261,0.0-1.0-0.5,65ce1b92d17ca311d7c513d2,AWAITING REVIEW,2024-02-15T14:11:38.715000Z,2024-02-15T15:03:09.850000Z,,2024-02-15T15:03:10.528109Z,3092.0,CVPIIDEI,5,38,Female,Asian,United States,United States,United States,English,No,DATA_EXPIRED,Not Applicable
65cb7c46800d57cbac8023c7,<b>People?s false beliefs are understandable.,Highly disagree,7/94,Somewhat disagree,2,1708006364910,1708006370490,\Somewhat disagree\,\Somewhat disagree\,\2\,1708006369824,1708006369824,4914,4914,5580,buq,qns-item-noham,7,56844,0.0-1.0-0.6,65ce1b92d17ca311d7c513d2,AWAITING REVIEW,2024-02-15T14:11:38.715000Z,2024-02-15T15:03:09.850000Z,,2024-02-15T15:03:10.528109Z,3092.0,CVPIIDEI,5,38,Female,Asian,United States,United States,United States,English,No,DATA_EXPIRED,Not Applicable
65cb7c46800d57cbac8023c7,<b>I spend a lot of time trying to be informed about politics.,Highly disagree,8/94,Somewhat disagree,2,1708006370492,1708006375257,\Somewhat disagree\,\Somewhat disagree\,\2\,1708006374074,1708006374074,3582,3582,4765,buq,qns-item-noham,8,61611,0.0-1.0-0.7,65ce1b92d17ca311d7c513d2,AWAITING REVIEW,2024-02-15T14:11:38.715000Z,2024-02-15T15:03:09.850000Z,,2024-02-15T15:03:10.528109Z,3092.0,CVPIIDEI,5,38,Female,Asian,United States,United States,United States,English,No,DATA_EXPIRED,Not Applicable
65cb7c46800d57cbac8023c7,<b>I think a lot about whether my beliefs are right.,Highly disagree,9/94,Somewhat agree,3,1708006375260,1708006379141,\Somewhat agree\,\Somewhat agree\,\3\,1708006378207,1708006378207,2947,2947,3881,buq,qns-item-noham,9,65495,0.0-1.0-0.8,65ce1b92d17ca311d7c513d2,AWAITING REVIEW,2024-02-15T14:11:38.715000Z,2024-02-15T15:03:09.850000Z,,2024-02-15T15:03:10.528109Z,3092.0,CVPIIDEI,5,38,Female,Asian,United States,United States,United States,English,No,DATA_EXPIRED,Not Applicable
65cb7c46800d57cbac8023c7,<b>Statistics can be pretty misleading sometimes.,Highly disagree,10/94,Somewhat agree,3,1708006379144,1708006384107,\Somewhat agree\,\Somewhat agree\,\3\,1708006382224,1708006382224,3080,3080,4963,buq,qns-item-noham,10,70461,0.0-1.0-0.9,65ce1b92d17ca311d7c513d2,AWAITING REVIEW,2024-02-15T14:11:38.715000Z,2024-02-15T15:03:09.850000Z,,2024-02-15T15:03:10.528109Z,3092.0,CVPIIDEI,5,38,Female,Asian,United States,United States,United States,English,No,DATA_EXPIRED,Not Applicable
65cb7c46800d57cbac8023c7,<b>I have lots of beliefs that I?m only sort of sure about.,Highly disagree,11/94,Somewhat agree,3,1708006384109,1708006391090,\Somewhat agree\,\Somewhat agree\,\3\,1708006390290,1708006390290,6181,6181,6981,buq,qns-item-noham,11,77445,0.0-1.0-0.10,65ce1b92d17ca311d7c513d2,AWAITING REVIEW,2024-02-15T14:11:38.715000Z,2024-02-15T15:03:09.850000Z,,2024-02-15T15:03:10.528109Z,3092.0,CVPIIDEI,5,38,Female,Asian,United States,United States,United States,English,No,DATA_EXPIRED,Not Applicable
65cb7c46800d57cbac8023c7,"<b>If I go to my favorite restaurant and the food is surprisingly bad, it reminds me there are many disappointments in life.",Highly disagree,12/94,Highly agree,4,1708006391092,1708006397074,\Highly agree\,\Highly agree\,\4\,1708006396340,1708006396340,5248,5248,5982,buq,qns-item-noham,12,83428,0.0-1.0-0.11,65ce1b92d17ca311d7c513d2,AWAITING REVIEW,2024-02-15T14:11:38.715000Z,2024-02-15T15:03:09.850000Z,,2024-02-15T15:03:10.528109Z,3092.0,CVPIIDEI,5,38,Female,Asian,United States,United States,United States,English,No,DATA_EXPIRED,Not Applicable
65cb7c46800d57cbac8023c7,"<b>If you are paying attention, please select ?Somewhat agree?",Highly disagree,13/94,Somewhat agree,3,1708006397075,1708006403157,\Somewhat agree\,\Somewhat agree\,\3\,1708006402157,1708006402157,5082,5082,6082,buq,qns-item-noham,13,89511,0.0-1.0-0.12,65ce1b92d17ca311d7c513d2,AWAITING REVIEW,2024-02-15T14:11:38.715000Z,2024-02-15T15:03:09.850000Z,,2024-02-15T15:03:10.528109Z,3092.0,CVPIIDEI,5,38,Female,Asian,United States,United States,United States,English,No,DATA_EXPIRED,Not Applicable
65cb7c46800d57cbac8023c7,"<b>When I talk to others, I often worry I?ll convince them of something I didn?t mean to.",Highly disagree,14/94,Somewhat agree,3,1708006403159,1708006410390,\Somewhat agree\,\Somewhat agree\,\3\,1708006409723,1708006409723,6564,6564,7231,buq,qns-item-noham,14,96744,0.0-1.0-0.13,65ce1b92d17ca311d7c513d2,AWAITING REVIEW,2024-02-15T14:11:38.715000Z,2024-02-15T15:03:09.850000Z,,2024-02-15T15:03:10.528109Z,3092.0,CVPIIDEI,5,38,Female,Asian,United States,United States,United States,English,No,DATA_EXPIRED,Not Applicable
65cb7c46800d57cbac8023c7,<b>I would need to learn something utterly shocking about my party in order to change my political views.,Highly disagree,15/94,Somewhat disagree,2,1708006410393,1708006417656,\Somewhat disagree\,\Somewhat disagree\,\2\,1708006416974,1708006416974,6581,6581,7263,buq,qns-item-noham,15,104010,0.0-1.0-0.14,65ce1b92d17ca311d7c513d2,AWAITING REVIEW,2024-02-15T14:11:38.715000Z,2024-02-15T15:03:09.850000Z,,2024-02-15T15:03:10.528109Z,3092.0,CVPIIDEI,5,38,Female,Asian,United States,United States,United States,English,No,DATA_EXPIRED,Not Applicable
65cb7c46800d57cbac8023c7,"<b>When I have new experiences, I tend to think of them as unique.",Highly disagree,16/94,Highly agree,4,1708006417658,1708006423541,\Highly agree\,\Highly agree\,\4\,1708006422824,1708006422824,5166,5166,5883,buq,qns-item-noham,16,109895,0.0-1.0-0.15,65ce1b92d17ca311d7c513d2,AWAITING REVIEW,2024-02-15T14:11:38.715000Z,2024-02-15T15:03:09.850000Z,,2024-02-15T15:03:10.528109Z,3092.0,CVPIIDEI,5,38,Female,Asian,United States,United States,United States,English,No,DATA_EXPIRED,Not Applicable
65cb7c46800d57cbac8023c7,<b>I change my mind about specific policies pretty frequently.,Highly disagree,17/94,Somewhat agree,3,1708006423543,1708006429423,\Somewhat agree\,\Somewhat agree\,\3\,1708006428774,1708006428774,5231,5231,5880,buq,qns-item-noham,17,115778,0.0-1.0-0.16,65ce1b92d17ca311d7c513d2,AWAITING REVIEW,2024-02-15T14:11:38.715000Z,2024-02-15T15:03:09.850000Z,,2024-02-15T15:03:10.528109Z,3092.0,CVPIIDEI,5,38,Female,Asian,United States,United States,United States,English,No,DATA_EXPIRED,Not Applicable
65cb7c46800d57cbac8023c7,"<b>If a politician in my political party supports something I disagree with, I give them the benefit of the doubt, as such issues often involve hidden complexities that aren?t obvious.   ",Highly disagree,18/94,Somewhat agree,3,1708006429426,1708006440624,\Somewhat agree\,\Somewhat agree\,\3\,1708006439840,1708006439840,10414,10414,11198,buq,qns-item-noham,18,126978,0.0-1.0-0.17,65ce1b92d17ca311d7c513d2,AWAITING REVIEW,2024-02-15T14:11:38.715000Z,2024-02-15T15:03:09.850000Z,,2024-02-15T15:03:10.528109Z,3092.0,CVPIIDEI,5,38,Female,Asian,United States,United States,United States,English,No,DATA_EXPIRED,Not Applicable
65cb7c46800d57cbac8023c7,<b>People?s bad politics are usually motivated by hatefulness.,Highly disagree,19/94,Highly agree,4,1708006440627,1708006448625,\Highly agree\,\Highly agree\,\4\,1708006447891,1708006447891,7264,7264,7998,buq,qns-item-noham,19,134979,0.0-1.0-0.18,65ce1b92d17ca311d7c513d2,AWAITING REVIEW,2024-02-15T14:11:38.715000Z,2024-02-15T15:03:09.850000Z,,2024-02-15T15:03:10.528109Z,3092.0,CVPIIDEI,5,38,Female,Asian,United States,United States,United States,English,No,DATA_EXPIRED,Not Applicable
65cb7c46800d57cbac8023c7,<b>I think a lot about how to reconcile my beliefs with one another.,Highly disagree,20/94,Somewhat agree,3,1708006448627,1708006457274,\Somewhat agree\,\Somewhat agree\,\3\,1708006456157,1708006456157,7530,7530,8647,buq,qns-item-noham,20,143628,0.0-1.0-0.19,65ce1b92d17ca311d7c513d2,AWAITING REVIEW,2024-02-15T14:11:38.715000Z,2024-02-15T15:03:09.850000Z,,2024-02-15T15:03:10.528109Z,3092.0,CVPIIDEI,5,38,Female,Asian,United States,United States,United States,English,No,DATA_EXPIRED,Not Applicable
65cb7c46800d57cbac8023c7,<b>I might have false beliefs about important topics.,Highly disagree,21/94,Somewhat agree,3,1708006457277,1708006461357,\Somewhat agree\,\Somewhat agree\,\3\,1708006460557,1708006460557,3280,3280,4080,buq,qns-item-noham,21,147711,0.0-1.0-0.20,65ce1b92d17ca311d7c513d2,AWAITING REVIEW,2024-02-15T14:11:38.715000Z,2024-02-15T15:03:09.850000Z,,2024-02-15T15:03:10.528109Z,3092.0,CVPIIDEI,5,38,Female,Asian,United States,United States,United States,English,No,DATA_EXPIRED,Not Applicable
65cb7c46800d57cbac8023c7,"<b>If a good friend of mine does something unexpected that upsets me, I feel like I don?t know them anymore.",Highly disagree,22/94,Somewhat disagree,2,1708006461360,1708006467024,\Somewhat disagree\,\Somewhat disagree\,\2\,1708006466374,1708006466374,5014,5014,5664,buq,qns-item-noham,22,153378,0.0-1.0-0.21,65ce1b92d17ca311d7c513d2,AWAITING REVIEW,2024-02-15T14:11:38.715000Z,2024-02-15T15:03:09.850000Z,,2024-02-15T15:03:10.528109Z,3092.0,CVPIIDEI,5,38,Female,Asian,United States,United States,United States,English,No,DATA_EXPIRED,Not Applicable
65cb7c46800d57cbac8023c7,<b>Other people?s beliefs are often incoherent.,Highly disagree,23/94,Somewhat agree,3,1708006467026,1708006472541,\Somewhat agree\,\Somewhat agree\,\3\,1708006471824,1708006471824,4798,4798,5515,buq,qns-item-noham,23,158895,0.0-1.0-0.22,65ce1b92d17ca311d7c513d2,AWAITING REVIEW,2024-02-15T14:11:38.715000Z,2024-02-15T15:03:09.850000Z,,2024-02-15T15:03:10.528109Z,3092.0,CVPIIDEI,5,38,Female,Asian,United States,United States,United States,English,No,DATA_EXPIRED,Not Applicable
65cb7c46800d57cbac8023c7,"<b>Every now and then, a new experience will unsettle beliefs I?ve had for a while.",Highly disagree,24/94,Somewhat agree,3,1708006472543,1708006479907,\Somewhat agree\,\Somewhat agree\,\3\,1708006479274,1708006479274,6731,6731,7364,buq,qns-item-noham,24,166261,0.0-1.0-0.23,65ce1b92d17ca311d7c513d2,AWAITING REVIEW,2024-02-15T14:11:38.715000Z,2024-02-15T15:03:09.850000Z,,2024-02-15T15:03:10.528109Z,3092.0,CVPIIDEI,5,38,Female,Asian,United States,United States,United States,English,No,DATA_EXPIRED,Not Applicable
65cb7c46800d57cbac8023c7,<b>Some policies I agree with in principle are so bad I don?t support them. ,Highly disagree,25/94,Somewhat agree,3,1708006479910,1708006486474,\Somewhat agree\,\Somewhat agree\,\3\,1708006485891,1708006485891,5981,5981,6564,buq,qns-item-noham,25,172828,0.0-1.0-0.24,65ce1b92d17ca311d7c513d2,AWAITING REVIEW,2024-02-15T14:11:38.715000Z,2024-02-15T15:03:09.850000Z,,2024-02-15T15:03:10.528109Z,3092.0,CVPIIDEI,5,38,Female,Asian,United States,United States,United States,English,No,DATA_EXPIRED,Not Applicable
65cb7c46800d57cbac8023c7,<b>I?m pretty sure I?ve accidentally spread false information.,Highly disagree,26/94,Somewhat agree,3,1708006486477,1708006513908,\Somewhat agree\,\Somewhat agree\,\3\,1708006513307,1708006513307,26830,26830,27431,buq,qns-item-noham,26,200262,0.0-1.0-0.25,65ce1b92d17ca311d7c513d2,AWAITING REVIEW,2024-02-15T14:11:38.715000Z,2024-02-15T15:03:09.850000Z,,2024-02-15T15:03:10.528109Z,3092.0,CVPIIDEI,5,38,Female,Asian,United States,United States,United States,English,No,DATA_EXPIRED,Not Applicable
65cb7c46800d57cbac8023c7,"<b>If I go to my favorite restaurant and the food is unexpectedly bad, then they have changed owners.",Highly disagree,27/94,Somewhat disagree,2,1708006513910,1708006523742,\Somewhat disagree\,\Somewhat disagree\,\2\,1708006522758,1708006522758,8848,8848,9832,buq,qns-item-noham,27,210096,0.0-1.0-0.26,65ce1b92d17ca311d7c513d2,AWAITING REVIEW,2024-02-15T14:11:38.715000Z,2024-02-15T15:03:09.850000Z,,2024-02-15T15:03:10.528109Z,3092.0,CVPIIDEI,5,38,Female,Asian,United States,United States,United States,English,No,DATA_EXPIRED,Not Applicable
65cb7c46800d57cbac8023c7,"<b>In politics, it?s important to trust your friends and family.",Highly disagree,28/94,Highly disagree,1,1708006523744,1708006529175,\Highly disagree\,\Highly disagree\,\1\,1708006528308,1708006528308,4564,4564,5431,buq,qns-item-noham,28,215529,0.0-1.0-0.27,65ce1b92d17ca311d7c513d2,AWAITING REVIEW,2024-02-15T14:11:38.715000Z,2024-02-15T15:03:09.850000Z,,2024-02-15T15:03:10.528109Z,3092.0,CVPIIDEI,5,38,Female,Asian,United States,United States,United States,English,No,DATA_EXPIRED,Not Applicable
65cb7c46800d57cbac8023c7,<b>It?s OK to have some conflicting beliefs.,Highly disagree,29/94,Highly agree,4,1708006529177,1708006532558,\Highly agree\,\Highly agree\,\4\,1708006531558,1708006531558,2381,2381,3381,buq,qns-item-noham,29,218912,0.0-1.0-0.28,65ce1b92d17ca311d7c513d2,AWAITING REVIEW,2024-02-15T14:11:38.715000Z,2024-02-15T15:03:09.850000Z,,2024-02-15T15:03:10.528109Z,3092.0,CVPIIDEI,5,38,Female,Asian,United States,United States,United States,English,No,DATA_EXPIRED,Not Applicable
65cb7c46800d57cbac8023c7,<b>Listening to people I disagree with makes my opinions better.,Highly disagree,30/94,Somewhat disagree,2,1708006532560,1708006539358,\Somewhat disagree\,\Somewhat disagree\,\2\,1708006538642,1708006538642,6082,6082,6798,buq,qns-item-noham,30,225712,0.0-1.0-0.29,65ce1b92d17ca311d7c513d2,AWAITING REVIEW,2024-02-15T14:11:38.715000Z,2024-02-15T15:03:09.850000Z,,2024-02-15T15:03:10.528109Z,3092.0,CVPIIDEI,5,38,Female,Asian,United States,United States,United States,English,No,DATA_EXPIRED,Not Applicable
65cb7c46800d57cbac8023c7,<b>My moral compass sometimes makes it harder to determine what?s true.,Highly disagree,31/94,Somewhat agree,3,1708006539361,1708006670660,\Somewhat agree\,\Somewhat agree\,\3\,1708006669659,1708006669659,130298,130298,131299,buq,qns-item-noham,31,357014,0.0-1.0-0.30,65ce1b92d17ca311d7c513d2,AWAITING REVIEW,2024-02-15T14:11:38.715000Z,2024-02-15T15:03:09.850000Z,,2024-02-15T15:03:10.528109Z,3092.0,CVPIIDEI,5,38,Female,Asian,United States,United States,United States,English,No,DATA_EXPIRED,Not Applicable
65cb7c46800d57cbac8023c7,<b>Evidence pointing in the wrong direction isn?t really evidence at all.,Highly disagree,32/94,Somewhat agree,3,1708006670662,1708006686209,\Somewhat agree\,\Somewhat agree\,\3\,1708006684644,1708006684644,13982,13982,15547,buq,qns-item-noham,32,372563,0.0-1.0-0.31,65ce1b92d17ca311d7c513d2,AWAITING REVIEW,2024-02-15T14:11:38.715000Z,2024-02-15T15:03:09.850000Z,,2024-02-15T15:03:10.528109Z,3092.0,CVPIIDEI,5,38,Female,Asian,United States,United States,United States,English,No,DATA_EXPIRED,Not Applicable
65cb7c46800d57cbac8023c7,"<b>If the political party I support messes up, it makes me think politics is rotten.",Highly disagree,33/94,Somewhat disagree,2,1708006686211,1708006783227,\Somewhat disagree\,\Somewhat disagree\,\2\,1708006782611,1708006782611,96400,96400,97016,buq,qns-item-noham,33,469582,0.0-1.0-0.32,65ce1b92d17ca311d7c513d2,AWAITING REVIEW,2024-02-15T14:11:38.715000Z,2024-02-15T15:03:09.850000Z,,2024-02-15T15:03:10.528109Z,3092.0,CVPIIDEI,5,38,Female,Asian,United States,United States,United States,English,No,DATA_EXPIRED,Not Applicable
65cb7c46800d57cbac8023c7,<b>Lots of important topics can only really be understood by some groups of people.,Highly disagree,34/94,Somewhat disagree,2,1708006783229,1708006788588,\Somewhat disagree\,\Somewhat disagree\,\2\,1708006787922,1708006787922,4693,4693,5359,buq,qns-item-noham,34,474942,0.0-1.0-0.33,65ce1b92d17ca311d7c513d2,AWAITING REVIEW,2024-02-15T14:11:38.715000Z,2024-02-15T15:03:09.850000Z,,2024-02-15T15:03:10.528109Z,3092.0,CVPIIDEI,5,38,Female,Asian,United States,United States,United States,English,No,DATA_EXPIRED,Not Applicable
65cb7c46800d57cbac8023c7,<b>Having conflicting beliefs means you haven?t thought about them enough.,Highly disagree,35/94,Highly disagree,1,1708006788591,1708006794779,\Highly disagree\,\Highly disagree\,\1\,1708006794230,1708006794230,5639,5639,6188,buq,qns-item-noham,35,481134,0.0-1.0-0.34,65ce1b92d17ca311d7c513d2,AWAITING REVIEW,2024-02-15T14:11:38.715000Z,2024-02-15T15:03:09.850000Z,,2024-02-15T15:03:10.528109Z,3092.0,CVPIIDEI,5,38,Female,Asian,United States,United States,United States,English,No,DATA_EXPIRED,Not Applicable
65cb7c46800d57cbac8023c7,<b>I do not often change my political opinions.,Highly disagree,36/94,Highly disagree,1,1708006794781,1708006797811,\Highly disagree\,\Highly disagree\,\1\,1708006797244,1708006797244,2463,2463,3030,buq,qns-item-noham,36,484165,0.0-1.0-0.35,65ce1b92d17ca311d7c513d2,AWAITING REVIEW,2024-02-15T14:11:38.715000Z,2024-02-15T15:03:09.850000Z,,2024-02-15T15:03:10.528109Z,3092.0,CVPIIDEI,5,38,Female,Asian,United States,United States,United States,English,No,DATA_EXPIRED,Not Applicable
65cb7c46800d57cbac8023c7,<b>It?s difficult to not have at least some conflicting beliefs.,Highly disagree,37/94,Somewhat disagree,2,1708006797813,1708007241113,\Somewhat disagree\,\Somewhat disagree\,\2\,1708007239480,1708007239480,441667,441667,443300,buq,qns-item-noham,37,927467,0.0-1.0-0.36,65ce1b92d17ca311d7c513d2,AWAITING REVIEW,2024-02-15T14:11:38.715000Z,2024-02-15T15:03:09.850000Z,,2024-02-15T15:03:10.528109Z,3092.0,CVPIIDEI,5,38,Female,Asian,United States,United States,United States,English,No,DATA_EXPIRED,Not Applicable
65cb7c46800d57cbac8023c7,<b>Wishful thinking causes a lot of problems.,Highly disagree,38/94,Somewhat disagree,2,1708007241116,1708007245663,\Somewhat disagree\,\Somewhat disagree\,\2\,1708007245063,1708007245063,3947,3947,4547,buq,qns-item-noham,38,932018,0.0-1.0-0.37,65ce1b92d17ca311d7c513d2,AWAITING REVIEW,2024-02-15T14:11:38.715000Z,2024-02-15T15:03:09.850000Z,,2024-02-15T15:03:10.528109Z,3092.0,CVPIIDEI,5,38,Female,Asian,United States,United States,United States,English,No,DATA_EXPIRED,Not Applicable
65cb7c46800d57cbac8023c7,<b>I judge a food item only once I try it many times.,Highly disagree,39/94,Highly agree,4,1708007245666,1708007251097,\Highly agree\,\Highly agree\,\4\,1708007250497,1708007250497,4831,4831,5431,buq,qns-item-noham,39,937451,0.0-1.0-0.38,65ce1b92d17ca311d7c513d2,AWAITING REVIEW,2024-02-15T14:11:38.715000Z,2024-02-15T15:03:09.850000Z,,2024-02-15T15:03:10.528109Z,3092.0,CVPIIDEI,5,38,Female,Asian,United States,United States,United States,English,No,DATA_EXPIRED,Not Applicable
65cb7c46800d57cbac8023c7,"<b>When a person holds conflicting beliefs, they should really try to figure out what?s wrong.",Highly disagree,40/94,Somewhat agree,3,1708007251099,1708007257598,\Somewhat agree\,\Somewhat agree\,\3\,1708007256980,1708007256980,5881,5881,6499,buq,qns-item-noham,40,943952,0.0-1.0-0.39,65ce1b92d17ca311d7c513d2,AWAITING REVIEW,2024-02-15T14:11:38.715000Z,2024-02-15T15:03:09.850000Z,,2024-02-15T15:03:10.528109Z,3092.0,CVPIIDEI,5,38,Female,Asian,United States,United States,United States,English,No,DATA_EXPIRED,Not Applicable
65cb7c46800d57cbac8023c7,<b>Knowing what?s important in life is easy.,Highly disagree,41/94,Somewhat disagree,2,1708007257600,1708007261197,\Somewhat disagree\,\Somewhat disagree\,\2\,1708007260680,1708007260680,3080,3080,3597,buq,qns-item-noham,41,947551,0.0-1.0-0.40,65ce1b92d17ca311d7c513d2,AWAITING REVIEW,2024-02-15T14:11:38.715000Z,2024-02-15T15:03:09.850000Z,,2024-02-15T15:03:10.528109Z,3092.0,CVPIIDEI,5,38,Female,Asian,United States,United States,United States,English,No,DATA_EXPIRED,Not Applicable
65cb7c46800d57cbac8023c7,<b>I swim across the Atlantic Ocean to get to work every day.,Highly disagree,42/94,Highly disagree,1,1708007261199,1708007265896,\Highly disagree\,\Highly disagree\,\1\,1708007265213,1708007265213,4014,4014,4697,buq,qns-item-noham,42,952250,0.0-1.0-0.41,65ce1b92d17ca311d7c513d2,AWAITING REVIEW,2024-02-15T14:11:38.715000Z,2024-02-15T15:03:09.850000Z,,2024-02-15T15:03:10.528109Z,3092.0,CVPIIDEI,5,38,Female,Asian,United States,United States,United States,English,No,DATA_EXPIRED,Not Applicable
65cb7c46800d57cbac8023c7,"<b>Sometimes, you just have to ignore evidence that you know is wrong.",Highly disagree,43/94,Somewhat disagree,2,1708007265899,1708007272264,\Somewhat disagree\,\Somewhat disagree\,\2\,1708007270814,1708007270814,4915,4915,6365,buq,qns-item-noham,43,958618,0.0-1.0-0.42,65ce1b92d17ca311d7c513d2,AWAITING REVIEW,2024-02-15T14:11:38.715000Z,2024-02-15T15:03:09.850000Z,,2024-02-15T15:03:10.528109Z,3092.0,CVPIIDEI,5,38,Female,Asian,United States,United States,United States,English,No,DATA_EXPIRED,Not Applicable
65cb7c46800d57cbac8023c7,<b>I have had some false beliefs.,Highly disagree,44/94,Somewhat agree,3,1708007272266,1708007274930,\Somewhat agree\,\Somewhat agree\,\3\,1708007274397,1708007274397,2131,2131,2664,buq,qns-item-noham,44,961284,0.0-1.0-0.43,65ce1b92d17ca311d7c513d2,AWAITING REVIEW,2024-02-15T14:11:38.715000Z,2024-02-15T15:03:09.850000Z,,2024-02-15T15:03:10.528109Z,3092.0,CVPIIDEI,5,38,Female,Asian,United States,United States,United States,English,No,DATA_EXPIRED,Not Applicable
65cb7c46800d57cbac8023c7,"<b>If one friend does something that upsets me, I sometimes start to distrust people in general.",Highly disagree,45/94,Somewhat agree,3,1708007274932,1708007281097,\Somewhat agree\,\Somewhat agree\,\3\,1708007280496,1708007280496,5564,5564,6165,buq,qns-item-noham,45,967451,0.0-1.0-0.44,65ce1b92d17ca311d7c513d2,AWAITING REVIEW,2024-02-15T14:11:38.715000Z,2024-02-15T15:03:09.850000Z,,2024-02-15T15:03:10.528109Z,3092.0,CVPIIDEI,5,38,Female,Asian,United States,United States,United States,English,No,DATA_EXPIRED,Not Applicable
65cb7c46800d57cbac8023c7,<b>The facts about most important matters are easy to find.,Highly disagree,46/94,Somewhat agree,3,1708007281100,1708007406664,\Somewhat agree\,\Somewhat agree\,\3\,1708007406029,1708007406029,124929,124929,125564,buq,qns-item-noham,46,1093018,0.0-1.0-0.45,65ce1b92d17ca311d7c513d2,AWAITING REVIEW,2024-02-15T14:11:38.715000Z,2024-02-15T15:03:09.850000Z,,2024-02-15T15:03:10.528109Z,3092.0,CVPIIDEI,5,38,Female,Asian,United States,United States,United States,English,No,DATA_EXPIRED,Not Applicable
65cb7c46800d57cbac8023c7,<b>It?s better to know what?s true than to know what?s moral.,Highly disagree,47/94,Somewhat agree,3,1708007406666,1708007412113,\Somewhat agree\,\Somewhat agree\,\3\,1708007411563,1708007411563,4897,4897,5447,buq,qns-item-noham,47,1098467,0.0-1.0-0.46,65ce1b92d17ca311d7c513d2,AWAITING REVIEW,2024-02-15T14:11:38.715000Z,2024-02-15T15:03:09.850000Z,,2024-02-15T15:03:10.528109Z,3092.0,CVPIIDEI,5,38,Female,Asian,United States,United States,United States,English,No,DATA_EXPIRED,Not Applicable
65cb7c46800d57cbac8023c7,<b>I used to think the world was less complicated than I do now.,Highly disagree,48/94,Highly agree,4,1708007412116,1708007417630,\Highly agree\,\Highly agree\,\4\,1708007416730,1708007416730,4614,4614,5514,buq,qns-item-noham,48,1103984,0.0-1.0-0.47,65ce1b92d17ca311d7c513d2,AWAITING REVIEW,2024-02-15T14:11:38.715000Z,2024-02-15T15:03:09.850000Z,,2024-02-15T15:03:10.528109Z,3092.0,CVPIIDEI,5,38,Female,Asian,United States,United States,United States,English,No,DATA_EXPIRED,Not Applicable
65cb7c46800d57cbac8023c7,<b>People are usually completely right or completely wrong.,Highly disagree,49/94,Somewhat disagree,2,1708007417633,1708007422713,\Somewhat disagree\,\Somewhat disagree\,\2\,1708007421647,1708007421647,4014,4014,5080,buq,qns-item-noham,49,1109067,0.0-1.0-0.48,65ce1b92d17ca311d7c513d2,AWAITING REVIEW,2024-02-15T14:11:38.715000Z,2024-02-15T15:03:09.850000Z,,2024-02-15T15:03:10.528109Z,3092.0,CVPIIDEI,5,38,Female,Asian,United States,United States,United States,English,No,DATA_EXPIRED,Not Applicable
65cb7c46800d57cbac8023c7,<b>I spend a lot of time considering alternatives to my beliefs.,Highly disagree,50/94,Somewhat agree,3,1708007422716,1708007426980,\Somewhat agree\,\Somewhat agree\,\3\,1708007426280,1708007426280,3564,3564,4264,buq,qns-item-noham,50,1113334,0.0-1.0-0.49,65ce1b92d17ca311d7c513d2,AWAITING REVIEW,2024-02-15T14:11:38.715000Z,2024-02-15T15:03:09.850000Z,,2024-02-15T15:03:10.528109Z,3092.0,CVPIIDEI,5,38,Female,Asian,United States,United States,United States,English,No,DATA_EXPIRED,Not Applicable
65cb7c46800d57cbac8023c7,"<b>Political enemies need to be defeated, not convinced.",Highly disagree,51/94,Somewhat disagree,2,1708007426982,1708007433047,\Somewhat disagree\,\Somewhat disagree\,\2\,1708007432429,1708007432429,5447,5447,6065,buq,qns-item-noham,51,1119401,0.0-1.0-0.50,65ce1b92d17ca311d7c513d2,AWAITING REVIEW,2024-02-15T14:11:38.715000Z,2024-02-15T15:03:09.850000Z,,2024-02-15T15:03:10.528109Z,3092.0,CVPIIDEI,5,38,Female,Asian,United States,United States,United States,English,No,DATA_EXPIRED,Not Applicable
65cb7c46800d57cbac8023c7,<b>I form my political views only after meticulously gathering historical and present information about their policies.,Highly disagree,52/94,Somewhat disagree,2,1708007433049,1708007752230,\Somewhat disagree\,\Somewhat disagree\,\2\,1708007751663,1708007751663,318614,318614,319181,buq,qns-item-noham,52,1438584,0.0-1.0-0.51,65ce1b92d17ca311d7c513d2,AWAITING REVIEW,2024-02-15T14:11:38.715000Z,2024-02-15T15:03:09.850000Z,,2024-02-15T15:03:10.528109Z,3092.0,CVPIIDEI,5,38,Female,Asian,United States,United States,United States,English,No,DATA_EXPIRED,Not Applicable
65cb7c46800d57cbac8023c7,<b>It is difficult for me to remember the last time I was surprised by politics.,Highly disagree,53/94,Highly disagree,1,1708007752232,1708007758263,\Highly disagree\,\Highly disagree\,\1\,1708007757747,1708007757747,5515,5515,6031,buq,qns-item-noham,53,1444618,0.0-1.0-0.52,65ce1b92d17ca311d7c513d2,AWAITING REVIEW,2024-02-15T14:11:38.715000Z,2024-02-15T15:03:09.850000Z,,2024-02-15T15:03:10.528109Z,3092.0,CVPIIDEI,5,38,Female,Asian,United States,United States,United States,English,No,DATA_EXPIRED,Not Applicable
65cb7c46800d57cbac8023c7,"<b>When I find out I?m wrong, I think a lot about my related beliefs.",Highly disagree,54/94,Somewhat agree,3,1708007758266,1708007763579,\Somewhat agree\,\Somewhat agree\,\3\,1708007762795,1708007762795,4529,4529,5313,buq,qns-item-noham,54,1449933,0.0-1.0-0.53,65ce1b92d17ca311d7c513d2,AWAITING REVIEW,2024-02-15T14:11:38.715000Z,2024-02-15T15:03:09.850000Z,,2024-02-15T15:03:10.528109Z,3092.0,CVPIIDEI,5,38,Female,Asian,United States,United States,United States,English,No,DATA_EXPIRED,Not Applicable
65cb7c46800d57cbac8023c7,"<b>If the political party I support messes up, it makes me think you can?t trust anyone these days",Highly disagree,55/94,Somewhat agree,3,1708007763581,1708007768063,\Somewhat agree\,\Somewhat agree\,\3\,1708007767429,1708007767429,3848,3848,4482,buq,qns-item-noham,55,1454417,0.0-1.0-0.54,65ce1b92d17ca311d7c513d2,AWAITING REVIEW,2024-02-15T14:11:38.715000Z,2024-02-15T15:03:09.850000Z,,2024-02-15T15:03:10.528109Z,3092.0,CVPIIDEI,5,38,Female,Asian,United States,United States,United States,English,No,DATA_EXPIRED,Not Applicable
65cb7c46800d57cbac8023c7,<b>People?s brains turn off when they talk about politics.,Highly disagree,56/94,Somewhat agree,3,1708007768065,1708007772180,\Somewhat agree\,\Somewhat agree\,\3\,1708007771695,1708007771695,3630,3630,4115,buq,qns-item-noham,56,1458534,0.0-1.0-0.55,65ce1b92d17ca311d7c513d2,AWAITING REVIEW,2024-02-15T14:11:38.715000Z,2024-02-15T15:03:09.850000Z,,2024-02-15T15:03:10.528109Z,3092.0,CVPIIDEI,5,38,Female,Asian,United States,United States,United States,English,No,DATA_EXPIRED,Not Applicable
65cb7c46800d57cbac8023c7,<b>People who are wrong are usually just ignoring the obvious.,Highly disagree,57/94,Somewhat agree,3,1708007772182,1708007775913,\Somewhat agree\,\Somewhat agree\,\3\,1708007775429,1708007775429,3247,3247,3731,buq,qns-item-noham,57,1462267,0.0-1.0-0.56,65ce1b92d17ca311d7c513d2,AWAITING REVIEW,2024-02-15T14:11:38.715000Z,2024-02-15T15:03:09.850000Z,,2024-02-15T15:03:10.528109Z,3092.0,CVPIIDEI,5,38,Female,Asian,United States,United States,United States,English,No,DATA_EXPIRED,Not Applicable
65cb7c46800d57cbac8023c7,"<b>When forming my views on people, I rely more on what they are like now rather than rely on my past experience with them.",Highly disagree,58/94,Somewhat agree,3,1708007775915,1708007782847,\Somewhat agree\,\Somewhat agree\,\3\,1708007781979,1708007781979,6064,6064,6932,buq,qns-item-noham,58,1469201,0.0-1.0-0.57,65ce1b92d17ca311d7c513d2,AWAITING REVIEW,2024-02-15T14:11:38.715000Z,2024-02-15T15:03:09.850000Z,,2024-02-15T15:03:10.528109Z,3092.0,CVPIIDEI,5,38,Female,Asian,United States,United States,United States,English,No,DATA_EXPIRED,Not Applicable
65cb7c46800d57cbac8023c7,"<b>When people contradict my beliefs, I usually know about their evidence already.",Highly disagree,59/94,Somewhat agree,3,1708007782849,1708007787113,\Somewhat agree\,\Somewhat agree\,\3\,1708007786629,1708007786629,3780,3780,4264,buq,qns-item-noham,59,1473467,0.0-1.0-0.58,65ce1b92d17ca311d7c513d2,AWAITING REVIEW,2024-02-15T14:11:38.715000Z,2024-02-15T15:03:09.850000Z,,2024-02-15T15:03:10.528109Z,3092.0,CVPIIDEI,5,38,Female,Asian,United States,United States,United States,English,No,DATA_EXPIRED,Not Applicable
65cb7c46800d57cbac8023c7,<b>Figuring out what?s true and what?s false mainly requires a strong moral compass.,Highly disagree,60/94,Somewhat agree,3,1708007787115,1708007794879,\Somewhat agree\,\Somewhat agree\,\3\,1708007794162,1708007794162,7047,7047,7764,buq,qns-item-noham,60,1481233,0.0-1.0-0.59,65ce1b92d17ca311d7c513d2,AWAITING REVIEW,2024-02-15T14:11:38.715000Z,2024-02-15T15:03:09.850000Z,,2024-02-15T15:03:10.528109Z,3092.0,CVPIIDEI,5,38,Female,Asian,United States,United States,United States,English,No,DATA_EXPIRED,Not Applicable
65cb7c46800d57cbac8023c7,"<b>Usually I?m wrong about simple things, not complicated ones.",Highly disagree,61/94,Somewhat disagree,2,1708007794882,1708007799180,\Somewhat disagree\,\Somewhat disagree\,\2\,1708007798546,1708007798546,3664,3664,4298,buq,qns-item-noham,61,1485534,0.0-1.0-0.60,65ce1b92d17ca311d7c513d2,AWAITING REVIEW,2024-02-15T14:11:38.715000Z,2024-02-15T15:03:09.850000Z,,2024-02-15T15:03:10.528109Z,3092.0,CVPIIDEI,5,38,Female,Asian,United States,United States,United States,English,No,DATA_EXPIRED,Not Applicable
65cb7c46800d57cbac8023c7,<b>Getting all the information I want about important things is hard.,Highly disagree,62/94,Somewhat agree,3,1708007799182,1708007805380,\Somewhat agree\,\Somewhat agree\,\3\,1708007804013,1708007804013,4831,4831,6198,buq,qns-item-noham,62,1491734,0.0-1.0-0.61,65ce1b92d17ca311d7c513d2,AWAITING REVIEW,2024-02-15T14:11:38.715000Z,2024-02-15T15:03:09.850000Z,,2024-02-15T15:03:10.528109Z,3092.0,CVPIIDEI,5,38,Female,Asian,United States,United States,United States,English,No,DATA_EXPIRED,Not Applicable
65cb7c46800d57cbac8023c7,<b>Most false beliefs spread because people try to deceive one another.,Highly disagree,63/94,Somewhat disagree,2,1708007805383,1708007862614,\Somewhat disagree\,\Somewhat disagree\,\2\,1708007861696,1708007861696,56313,56313,57231,buq,qns-item-noham,63,1548968,0.0-1.0-0.62,65ce1b92d17ca311d7c513d2,AWAITING REVIEW,2024-02-15T14:11:38.715000Z,2024-02-15T15:03:09.850000Z,,2024-02-15T15:03:10.528109Z,3092.0,CVPIIDEI,5,38,Female,Asian,United States,United States,United States,English,No,DATA_EXPIRED,Not Applicable
65cb7c46800d57cbac8023c7,<b>I can usually find something to agree with in most people?s beliefs.,Highly disagree,64/94,Highly agree,4,1708007862616,1708007868512,\Highly agree\,\Highly agree\,\4\,1708007867896,1708007867896,5280,5280,5896,buq,qns-item-noham,64,1554866,0.0-1.0-0.63,65ce1b92d17ca311d7c513d2,AWAITING REVIEW,2024-02-15T14:11:38.715000Z,2024-02-15T15:03:09.850000Z,,2024-02-15T15:03:10.528109Z,3092.0,CVPIIDEI,5,38,Female,Asian,United States,United States,United States,English,No,DATA_EXPIRED,Not Applicable
65cb7c46800d57cbac8023c7,<b>I only form my views of people once I get to know them very well.,Highly disagree,65/94,Highly agree,4,1708007868513,1708007873230,\Highly agree\,\Highly agree\,\4\,1708007872429,1708007872429,3916,3916,4717,buq,qns-item-noham,65,1559584,0.0-1.0-0.64,65ce1b92d17ca311d7c513d2,AWAITING REVIEW,2024-02-15T14:11:38.715000Z,2024-02-15T15:03:09.850000Z,,2024-02-15T15:03:10.528109Z,3092.0,CVPIIDEI,5,38,Female,Asian,United States,United States,United States,English,No,DATA_EXPIRED,Not Applicable
65cb7c46800d57cbac8023c7,"<b>When people tell me important things about the world, I usually believe them.",Highly disagree,66/94,Somewhat disagree,2,1708007873232,1708007877520,\Somewhat disagree\,\Somewhat disagree\,\2\,1708007876645,1708007876645,3413,3413,4288,buq,qns-item-noham,66,1563874,0.0-1.0-0.65,65ce1b92d17ca311d7c513d2,AWAITING REVIEW,2024-02-15T14:11:38.715000Z,2024-02-15T15:03:09.850000Z,,2024-02-15T15:03:10.528109Z,3092.0,CVPIIDEI,5,38,Female,Asian,United States,United States,United States,English,No,DATA_EXPIRED,Not Applicable
65cb7c46800d57cbac8023c7,"<b>If a friend does something that upsets me, it reminds me what an unpredictable place the world is.",Highly disagree,67/94,Somewhat disagree,2,1708007877521,1708007882829,\Somewhat disagree\,\Somewhat disagree\,\2\,1708007882112,1708007882112,4591,4591,5308,buq,qns-item-noham,67,1569183,0.0-1.0-0.66,65ce1b92d17ca311d7c513d2,AWAITING REVIEW,2024-02-15T14:11:38.715000Z,2024-02-15T15:03:09.850000Z,,2024-02-15T15:03:10.528109Z,3092.0,CVPIIDEI,5,38,Female,Asian,United States,United States,United States,English,No,DATA_EXPIRED,Not Applicable
65cb7c46800d57cbac8023c7,<b>People tend to believe whatever is good for their friends.,Highly disagree,68/94,Somewhat disagree,2,1708007882831,1708007890379,\Somewhat disagree\,\Somewhat disagree\,\2\,1708007889779,1708007889779,6948,6948,7548,buq,qns-item-noham,68,1576734,0.0-1.0-0.67,65ce1b92d17ca311d7c513d2,AWAITING REVIEW,2024-02-15T14:11:38.715000Z,2024-02-15T15:03:09.850000Z,,2024-02-15T15:03:10.528109Z,3092.0,CVPIIDEI,5,38,Female,Asian,United States,United States,United States,English,No,DATA_EXPIRED,Not Applicable
65cb7c46800d57cbac8023c7,<b>I used to be more certain my beliefs were true.,Highly disagree,69/94,Somewhat agree,3,1708007890382,1708007897346,\Somewhat agree\,\Somewhat agree\,\3\,1708007896830,1708007896830,6448,6448,6964,buq,qns-item-noham,69,1583700,0.0-1.0-0.68,65ce1b92d17ca311d7c513d2,AWAITING REVIEW,2024-02-15T14:11:38.715000Z,2024-02-15T15:03:09.850000Z,,2024-02-15T15:03:10.528109Z,3092.0,CVPIIDEI,5,38,Female,Asian,United States,United States,United States,English,No,DATA_EXPIRED,Not Applicable
65cb7c46800d57cbac8023c7,<b>It?s often pretty easy to figure out whether something is true based on who said it.,Highly disagree,70/94,Somewhat disagree,2,1708007897348,1708007901880,\Somewhat disagree\,\Somewhat disagree\,\2\,1708007901412,1708007901412,4064,4064,4532,buq,qns-item-noham,70,1588234,0.0-1.0-0.69,65ce1b92d17ca311d7c513d2,AWAITING REVIEW,2024-02-15T14:11:38.715000Z,2024-02-15T15:03:09.850000Z,,2024-02-15T15:03:10.528109Z,3092.0,CVPIIDEI,5,38,Female,Asian,United States,United States,United States,English,No,DATA_EXPIRED,Not Applicable
65cb7c46800d57cbac8023c7,<b>I transform into a hummingbird every day.,Highly disagree,71/94,Highly disagree,1,1708007901882,1708007906413,\Highly disagree\,\Highly disagree\,\1\,1708007905779,1708007905779,3897,3897,4531,buq,qns-item-noham,71,1592767,0.0-1.0-0.70,65ce1b92d17ca311d7c513d2,AWAITING REVIEW,2024-02-15T14:11:38.715000Z,2024-02-15T15:03:09.850000Z,,2024-02-15T15:03:10.528109Z,3092.0,CVPIIDEI,5,38,Female,Asian,United States,United States,United States,English,No,DATA_EXPIRED,Not Applicable
65cb7c46800d57cbac8023c7,<b>I think a lot about arguments against my views.,Highly disagree,72/94,Somewhat agree,3,1708007906416,1708007914430,\Highly disagree\,\Somewhat agree\,\1\,1708007911095,1708007913862,4679,7446,8014,buq,qns-item-noham,72,1600784,0.0-1.0-0.71,65ce1b92d17ca311d7c513d2,AWAITING REVIEW,2024-02-15T14:11:38.715000Z,2024-02-15T15:03:09.850000Z,,2024-02-15T15:03:10.528109Z,3092.0,CVPIIDEI,5,38,Female,Asian,United States,United States,United States,English,No,DATA_EXPIRED,Not Applicable
65cb7c46800d57cbac8023c7,<b>Personal experience is usually more important than facts and figures.,Highly disagree,73/94,Somewhat disagree,2,1708007914432,1708007918763,\Somewhat disagree\,\Somewhat disagree\,\2\,1708007918030,1708007918030,3598,3598,4331,buq,qns-item-noham,73,1605117,0.0-1.0-0.72,65ce1b92d17ca311d7c513d2,AWAITING REVIEW,2024-02-15T14:11:38.715000Z,2024-02-15T15:03:09.850000Z,,2024-02-15T15:03:10.528109Z,3092.0,CVPIIDEI,5,38,Female,Asian,United States,United States,United States,English,No,DATA_EXPIRED,Not Applicable
65cb7c46800d57cbac8023c7,<b>I?ve been tricked before about important matters.,Highly disagree,74/94,Somewhat disagree,2,1708007918765,1708007927695,\Somewhat disagree\,\Somewhat disagree\,\2\,1708007926912,1708007926912,8147,8147,8930,buq,qns-item-noham,74,1614050,0.0-1.0-0.73,65ce1b92d17ca311d7c513d2,AWAITING REVIEW,2024-02-15T14:11:38.715000Z,2024-02-15T15:03:09.850000Z,,2024-02-15T15:03:10.528109Z,3092.0,CVPIIDEI,5,38,Female,Asian,United States,United States,United States,English,No,DATA_EXPIRED,Not Applicable
65cb7c46800d57cbac8023c7,<b>I would need to be totally wowed if I were to change my opinion of a restaurant I don?t like.,Highly disagree,75/94,Somewhat agree,3,1708007927698,1708007937212,\Somewhat agree\,\Somewhat agree\,\3\,1708007936679,1708007936679,8981,8981,9514,buq,qns-item-noham,75,1623566,0.0-1.0-0.74,65ce1b92d17ca311d7c513d2,AWAITING REVIEW,2024-02-15T14:11:38.715000Z,2024-02-15T15:03:09.850000Z,,2024-02-15T15:03:10.528109Z,3092.0,CVPIIDEI,5,38,Female,Asian,United States,United States,United States,English,No,DATA_EXPIRED,Not Applicable
65cb7c46800d57cbac8023c7,<b>I care a lot about politics.,Highly disagree,76/94,Somewhat agree,3,1708007937214,1708007940446,\Somewhat disagree\,\Somewhat agree\,\2\,1708007938829,1708007939896,1615,2682,3232,buq,qns-item-noham,76,1626800,0.0-1.0-0.75,65ce1b92d17ca311d7c513d2,AWAITING REVIEW,2024-02-15T14:11:38.715000Z,2024-02-15T15:03:09.850000Z,,2024-02-15T15:03:10.528109Z,3092.0,CVPIIDEI,5,38,Female,Asian,United States,United States,United States,English,No,DATA_EXPIRED,Not Applicable
65cb7c46800d57cbac8023c7,<b>There are some topics I?ve been really wrong about.,Highly disagree,77/94,Somewhat agree,3,1708007940449,1708007943362,\Somewhat agree\,\Somewhat agree\,\3\,1708007942545,1708007942545,2096,2096,2913,buq,qns-item-noham,77,1629716,0.0-1.0-0.76,65ce1b92d17ca311d7c513d2,AWAITING REVIEW,2024-02-15T14:11:38.715000Z,2024-02-15T15:03:09.850000Z,,2024-02-15T15:03:10.528109Z,3092.0,CVPIIDEI,5,38,Female,Asian,United States,United States,United States,English,No,DATA_EXPIRED,Not Applicable
65cb7c46800d57cbac8023c7,<b>Most beliefs can be supported with at least some evidence.,Highly disagree,78/94,Somewhat agree,3,1708007943364,1708007946429,\Somewhat agree\,\Somewhat agree\,\3\,1708007945829,1708007945829,2465,2465,3065,buq,qns-item-noham,78,1632783,0.0-1.0-0.77,65ce1b92d17ca311d7c513d2,AWAITING REVIEW,2024-02-15T14:11:38.715000Z,2024-02-15T15:03:09.850000Z,,2024-02-15T15:03:10.528109Z,3092.0,CVPIIDEI,5,38,Female,Asian,United States,United States,United States,English,No,DATA_EXPIRED,Not Applicable
65cb7c46800d57cbac8023c7,<b>Other people make life out to be more complicated than it really is.,Highly disagree,79/94,Somewhat agree,3,1708007946432,1708007951546,\Somewhat agree\,\Somewhat agree\,\3\,1708007950762,1708007950762,4330,4330,5114,buq,qns-item-noham,79,1637900,0.0-1.0-0.78,65ce1b92d17ca311d7c513d2,AWAITING REVIEW,2024-02-15T14:11:38.715000Z,2024-02-15T15:03:09.850000Z,,2024-02-15T15:03:10.528109Z,3092.0,CVPIIDEI,5,38,Female,Asian,United States,United States,United States,English,No,DATA_EXPIRED,Not Applicable
65cb7c46800d57cbac8023c7,"<b>Policy details don?t matter much, just the big picture.",Highly disagree,80/94,Somewhat disagree,2,1708007951548,1708007993463,\Somewhat disagree\,\Somewhat disagree\,\2\,1708007992813,1708007992813,41265,41265,41915,buq,qns-item-noham,80,1679817,0.0-1.0-0.79,65ce1b92d17ca311d7c513d2,AWAITING REVIEW,2024-02-15T14:11:38.715000Z,2024-02-15T15:03:09.850000Z,,2024-02-15T15:03:10.528109Z,3092.0,CVPIIDEI,5,38,Female,Asian,United States,United States,United States,English,No,DATA_EXPIRED,Not Applicable
65cb7c46800d57cbac8023c7,<b>I know my friends so well they can hardly ever surprise me.,Highly disagree,81/94,Somewhat disagree,2,1708007993465,1708007996863,\Somewhat disagree\,\Somewhat disagree\,\2\,1708007996279,1708007996279,2814,2814,3398,buq,qns-item-noham,81,1683217,0.0-1.0-0.80,65ce1b92d17ca311d7c513d2,AWAITING REVIEW,2024-02-15T14:11:38.715000Z,2024-02-15T15:03:09.850000Z,,2024-02-15T15:03:10.528109Z,3092.0,CVPIIDEI,5,38,Female,Asian,United States,United States,United States,English,No,DATA_EXPIRED,Not Applicable
65cb7c46800d57cbac8023c7,<b>I do not often change my views on people.,Highly disagree,82/94,Somewhat agree,3,1708007996865,1708008000612,\Somewhat agree\,\Somewhat agree\,\3\,1708007999929,1708007999929,3064,3064,3747,buq,qns-item-noham,82,1686966,0.0-1.0-0.81,65ce1b92d17ca311d7c513d2,AWAITING REVIEW,2024-02-15T14:11:38.715000Z,2024-02-15T15:03:09.850000Z,,2024-02-15T15:03:10.528109Z,3092.0,CVPIIDEI,5,38,Female,Asian,United States,United States,United States,English,No,DATA_EXPIRED,Not Applicable
65cb7c46800d57cbac8023c7,<b>I?m more certain about my beliefs than I used to be.,Highly disagree,83/94,Somewhat agree,3,1708008000613,1708009286448,\Somewhat agree\,\Somewhat agree\,\3\,1708009285781,1708009285781,1285168,1285168,1285835,buq,qns-item-noham,83,2972802,0.0-1.0-0.82,65ce1b92d17ca311d7c513d2,AWAITING REVIEW,2024-02-15T14:11:38.715000Z,2024-02-15T15:03:09.850000Z,,2024-02-15T15:03:10.528109Z,3092.0,CVPIIDEI,5,38,Female,Asian,United States,United States,United States,English,No,DATA_EXPIRED,Not Applicable
65cb7c46800d57cbac8023c7,<b>People often tell falsehoods unintentionally.,Highly disagree,84/94,Somewhat agree,3,1708009286453,1708009291165,\Somewhat agree\,\Somewhat agree\,\3\,1708009290648,1708009290648,4195,4195,4712,buq,qns-item-noham,84,2977519,0.0-1.0-0.83,65ce1b92d17ca311d7c513d2,AWAITING REVIEW,2024-02-15T14:11:38.715000Z,2024-02-15T15:03:09.850000Z,,2024-02-15T15:03:10.528109Z,3092.0,CVPIIDEI,5,38,Female,Asian,United States,United States,United States,English,No,DATA_EXPIRED,Not Applicable
65cb7c46800d57cbac8023c7,<b>Most people don?t know much about most things.,Highly disagree,85/94,Somewhat agree,3,1708009291170,1708009296715,\Somewhat agree\,\Somewhat agree\,\3\,1708009296115,1708009296115,4945,4945,5545,buq,qns-item-noham,85,2983069,0.0-1.0-0.84,65ce1b92d17ca311d7c513d2,AWAITING REVIEW,2024-02-15T14:11:38.715000Z,2024-02-15T15:03:09.850000Z,,2024-02-15T15:03:10.528109Z,3092.0,CVPIIDEI,5,38,Female,Asian,United States,United States,United States,English,No,DATA_EXPIRED,Not Applicable
65cb7c46800d57cbac8023c7,"<b>If I find out something new about someone, I easily change my views about them.",Highly disagree,86/94,Somewhat disagree,2,1708009296718,1708009302149,\Somewhat disagree\,\Somewhat disagree\,\2\,1708009301649,1708009301649,4931,4931,5431,buq,qns-item-noham,86,2988503,0.0-1.0-0.85,65ce1b92d17ca311d7c513d2,AWAITING REVIEW,2024-02-15T14:11:38.715000Z,2024-02-15T15:03:09.850000Z,,2024-02-15T15:03:10.528109Z,3092.0,CVPIIDEI,5,38,Female,Asian,United States,United States,United States,English,No,DATA_EXPIRED,Not Applicable
65cb7c46800d57cbac8023c7,<b>Having true beliefs is difficult.,Highly disagree,87/94,Somewhat agree,3,1708009302151,1708009305265,\Somewhat agree\,\Somewhat agree\,\3\,1708009304798,1708009304798,2647,2647,3114,buq,qns-item-noham,87,2991619,0.0-1.0-0.86,65ce1b92d17ca311d7c513d2,AWAITING REVIEW,2024-02-15T14:11:38.715000Z,2024-02-15T15:03:09.850000Z,,2024-02-15T15:03:10.528109Z,3092.0,CVPIIDEI,5,38,Female,Asian,United States,United States,United States,English,No,DATA_EXPIRED,Not Applicable
65cb7c46800d57cbac8023c7,<b>I don?t try new foods since I know I won?t like them.,Highly disagree,88/94,Highly disagree,1,1708009305268,1708009310182,\Highly disagree\,\Highly disagree\,\1\,1708009309382,1708009309382,4114,4114,4914,buq,qns-item-noham,88,2996536,0.0-1.0-0.87,65ce1b92d17ca311d7c513d2,AWAITING REVIEW,2024-02-15T14:11:38.715000Z,2024-02-15T15:03:09.850000Z,,2024-02-15T15:03:10.528109Z,3092.0,CVPIIDEI,5,38,Female,Asian,United States,United States,United States,English,No,DATA_EXPIRED,Not Applicable
65cb7c46800d57cbac8023c7,<b>Other people trick each other a lot.,Highly disagree,89/94,Somewhat disagree,2,1708009310184,1708009313698,\Somewhat disagree\,\Somewhat disagree\,\2\,1708009313115,1708009313115,2931,2931,3514,buq,qns-item-noham,89,3000052,0.0-1.0-0.88,65ce1b92d17ca311d7c513d2,AWAITING REVIEW,2024-02-15T14:11:38.715000Z,2024-02-15T15:03:09.850000Z,,2024-02-15T15:03:10.528109Z,3092.0,CVPIIDEI,5,38,Female,Asian,United States,United States,United States,English,No,DATA_EXPIRED,Not Applicable
65cb7c46800d57cbac8023c7,<b>I would need to learn a lot about a person for my opinion of them to be swayed.,Highly disagree,90/94,Highly agree,4,1708009313701,1708009328548,\Somewhat disagree\,\Highly agree\,\2\,1708009323048,1708009327998,9347,14297,14847,buq,qns-item-noham,90,3014902,0.0-1.0-0.89,65ce1b92d17ca311d7c513d2,AWAITING REVIEW,2024-02-15T14:11:38.715000Z,2024-02-15T15:03:09.850000Z,,2024-02-15T15:03:10.528109Z,3092.0,CVPIIDEI,5,38,Female,Asian,United States,United States,United States,English,No,DATA_EXPIRED,Not Applicable
65cb7c46800d57cbac8023c7,<b>People can?t usually trick me when it comes to topics I care about.,Highly disagree,91/94,Somewhat disagree,2,1708009328551,1708009333014,\Somewhat disagree\,\Somewhat disagree\,\2\,1708009332482,1708009332482,3931,3931,4463,buq,qns-item-noham,91,3019368,0.0-1.0-0.90,65ce1b92d17ca311d7c513d2,AWAITING REVIEW,2024-02-15T14:11:38.715000Z,2024-02-15T15:03:09.850000Z,,2024-02-15T15:03:10.528109Z,3092.0,CVPIIDEI,5,38,Female,Asian,United States,United States,United States,English,No,DATA_EXPIRED,Not Applicable
65cb7c46800d57cbac8023c7,<b>I do not often change my views on food.,Highly disagree,92/94,Somewhat disagree,2,1708009333016,1708009337782,\Somewhat disagree\,\Somewhat disagree\,\2\,1708009337149,1708009337149,4133,4133,4766,buq,qns-item-noham,92,3024136,0.0-1.0-0.91,65ce1b92d17ca311d7c513d2,AWAITING REVIEW,2024-02-15T14:11:38.715000Z,2024-02-15T15:03:09.850000Z,,2024-02-15T15:03:10.528109Z,3092.0,CVPIIDEI,5,38,Female,Asian,United States,United States,United States,English,No,DATA_EXPIRED,Not Applicable
65cb7c46800d57cbac8023c7,<b>Specific policies are often very important to me.,Highly disagree,93/94,Somewhat agree,3,1708009337784,1708009342299,\Somewhat agree\,\Somewhat agree\,\3\,1708009341633,1708009341633,3849,3849,4515,buq,qns-item-noham,93,3028653,0.0-1.0-0.92,65ce1b92d17ca311d7c513d2,AWAITING REVIEW,2024-02-15T14:11:38.715000Z,2024-02-15T15:03:09.850000Z,,2024-02-15T15:03:10.528109Z,3092.0,CVPIIDEI,5,38,Female,Asian,United States,United States,United States,English,No,DATA_EXPIRED,Not Applicable
65cb7c46800d57cbac8023c7,<b>Most people are woefully under-informed.,Highly disagree,94/94,Somewhat agree,3,1708009342301,1708009346416,\Somewhat agree\,\Somewhat agree\,\3\,1708009345565,1708009345565,3264,3264,4115,buq,qns-item-noham,94,3032770,0.0-1.0-0.93,65ce1b92d17ca311d7c513d2,AWAITING REVIEW,2024-02-15T14:11:38.715000Z,2024-02-15T15:03:09.850000Z,,2024-02-15T15:03:10.528109Z,3092.0,CVPIIDEI,5,38,Female,Asian,United States,United States,United States,English,No,DATA_EXPIRED,Not Applicable
65cb7c46800d57cbac8023c7,,,,,,,,,,,,,,,,,,,,,65ce1b92d17ca311d7c513d2,AWAITING REVIEW,2024-02-15T14:11:38.715000Z,2024-02-15T15:03:09.850000Z,,2024-02-15T15:03:10.528109Z,3092.0,CVPIIDEI,5,38,Female,Asian,United States,United States,United States,English,No,DATA_EXPIRED,Not Applicable
