PROLIFIC_PID,Question,qns_options,quest_num,answer,answer_num,question_load_timestamp,next_btn_timestamp,text_selected,final_text_selected,option_num_selected,preview_timestamps,final_text_selected_time_stamp,rt_first_option_click,rt_final_option_click,rt_submit_click,questionnaire,trial_type,trial_index,time_elapsed,internal_node_id,Demographic_Submission id,Demographic_Status,Demographic_Started at,Demographic_Completed at,Demographic_Reviewed at,Demographic_Archived at,Demographic_Time taken,Demographic_Completion code,Demographic_Total approvals,Demographic_Age,Demographic_Sex,Demographic_Ethnicity simplified,Demographic_Country of birth,Demographic_Country of residence,Demographic_Nationality,Demographic_Language,Demographic_Student status,Demographic_Employment status,Demographic_Custom study tncs accepted at
6290c6d191ba8fb0309ebfc9,<b>Knowing what?s true and knowing what to do about it are usually basically the same.,Highly disagree,1/94,Somewhat disagree,2,1708006403377,1708006416875,\Somewhat disagree\,\Somewhat disagree\,\2\,1708006415626,1708006415626,12249,12249,13498,buq,qns-item-noham,1,57308,0.0-1.0-0.0,65ce1bb09fcc51092f25ac48,AWAITING REVIEW,2024-02-15T14:12:26.170000Z,2024-02-15T14:22:17.852000Z,,2024-02-15T14:22:18.555549Z,592.0,CVPIIDEI,1346,27,Male,White,United States,United States,United States,English,No,Full-Time,Not Applicable
6290c6d191ba8fb0309ebfc9,<b>Most people just believe whatever is convenient for them.,Highly disagree,2/94,Somewhat agree,3,1708006416880,1708006420097,\Somewhat agree\,\Somewhat agree\,\3\,1708006419693,1708006419693,2813,2813,3217,buq,qns-item-noham,2,60530,0.0-1.0-0.1,65ce1bb09fcc51092f25ac48,AWAITING REVIEW,2024-02-15T14:12:26.170000Z,2024-02-15T14:22:17.852000Z,,2024-02-15T14:22:18.555549Z,592.0,CVPIIDEI,1346,27,Male,White,United States,United States,United States,English,No,Full-Time,Not Applicable
6290c6d191ba8fb0309ebfc9,<b>Having some big beliefs helps me sort out minor ones.,Highly disagree,3/94,Somewhat agree,3,1708006420099,1708006424300,\Somewhat agree\,\Somewhat agree\,\3\,1708006423873,1708006423873,3774,3774,4201,buq,qns-item-noham,3,64733,0.0-1.0-0.2,65ce1bb09fcc51092f25ac48,AWAITING REVIEW,2024-02-15T14:12:26.170000Z,2024-02-15T14:22:17.852000Z,,2024-02-15T14:22:18.555549Z,592.0,CVPIIDEI,1346,27,Male,White,United States,United States,United States,English,No,Full-Time,Not Applicable
6290c6d191ba8fb0309ebfc9,<b>Political questions are usually pretty complicated.,Highly disagree,4/94,Highly agree,4,1708006424302,1708006427973,\Highly agree\,\Highly agree\,\4\,1708006427133,1708006427133,2831,2831,3671,buq,qns-item-noham,4,68406,0.0-1.0-0.3,65ce1bb09fcc51092f25ac48,AWAITING REVIEW,2024-02-15T14:12:26.170000Z,2024-02-15T14:22:17.852000Z,,2024-02-15T14:22:18.555549Z,592.0,CVPIIDEI,1346,27,Male,White,United States,United States,United States,English,No,Full-Time,Not Applicable
6290c6d191ba8fb0309ebfc9,<b>Figuring out what?s important in life requires learning a lot of facts.,Highly disagree,5/94,Somewhat agree,3,1708006427974,1708006431730,\Somewhat agree\,\Somewhat agree\,\3\,1708006431399,1708006431399,3425,3425,3756,buq,qns-item-noham,5,72163,0.0-1.0-0.4,65ce1bb09fcc51092f25ac48,AWAITING REVIEW,2024-02-15T14:12:26.170000Z,2024-02-15T14:22:17.852000Z,,2024-02-15T14:22:18.555549Z,592.0,CVPIIDEI,1346,27,Male,White,United States,United States,United States,English,No,Full-Time,Not Applicable
6290c6d191ba8fb0309ebfc9,<b>It is difficult for me to remember the last time I was surprised by politics.,Highly disagree,6/94,Highly disagree,1,1708006431732,1708006435583,\Highly disagree\,\Highly disagree\,\1\,1708006435083,1708006435083,3351,3351,3851,buq,qns-item-noham,6,76016,0.0-1.0-0.5,65ce1bb09fcc51092f25ac48,AWAITING REVIEW,2024-02-15T14:12:26.170000Z,2024-02-15T14:22:17.852000Z,,2024-02-15T14:22:18.555549Z,592.0,CVPIIDEI,1346,27,Male,White,United States,United States,United States,English,No,Full-Time,Not Applicable
6290c6d191ba8fb0309ebfc9,<b>People?s false beliefs are understandable.,Highly disagree,7/94,Somewhat agree,3,1708006435585,1708006439469,\Somewhat agree\,\Somewhat agree\,\3\,1708006439074,1708006439074,3489,3489,3884,buq,qns-item-noham,7,79902,0.0-1.0-0.6,65ce1bb09fcc51092f25ac48,AWAITING REVIEW,2024-02-15T14:12:26.170000Z,2024-02-15T14:22:17.852000Z,,2024-02-15T14:22:18.555549Z,592.0,CVPIIDEI,1346,27,Male,White,United States,United States,United States,English,No,Full-Time,Not Applicable
6290c6d191ba8fb0309ebfc9,<b>I spend a lot of time trying to be informed about politics.,Highly disagree,8/94,Somewhat agree,3,1708006439470,1708006442269,\Somewhat agree\,\Somewhat agree\,\3\,1708006441744,1708006441744,2274,2274,2799,buq,qns-item-noham,8,82702,0.0-1.0-0.7,65ce1bb09fcc51092f25ac48,AWAITING REVIEW,2024-02-15T14:12:26.170000Z,2024-02-15T14:22:17.852000Z,,2024-02-15T14:22:18.555549Z,592.0,CVPIIDEI,1346,27,Male,White,United States,United States,United States,English,No,Full-Time,Not Applicable
6290c6d191ba8fb0309ebfc9,<b>I think a lot about whether my beliefs are right.,Highly disagree,9/94,Somewhat agree,3,1708006442270,1708006447184,\Somewhat agree\,\Somewhat agree\,\3\,1708006446831,1708006446831,4561,4561,4914,buq,qns-item-noham,9,87617,0.0-1.0-0.8,65ce1bb09fcc51092f25ac48,AWAITING REVIEW,2024-02-15T14:12:26.170000Z,2024-02-15T14:22:17.852000Z,,2024-02-15T14:22:18.555549Z,592.0,CVPIIDEI,1346,27,Male,White,United States,United States,United States,English,No,Full-Time,Not Applicable
6290c6d191ba8fb0309ebfc9,<b>Statistics can be pretty misleading sometimes.,Highly disagree,10/94,Highly agree,4,1708006447185,1708006449453,\Highly agree\,\Highly agree\,\4\,1708006449035,1708006449035,1850,1850,2268,buq,qns-item-noham,10,89886,0.0-1.0-0.9,65ce1bb09fcc51092f25ac48,AWAITING REVIEW,2024-02-15T14:12:26.170000Z,2024-02-15T14:22:17.852000Z,,2024-02-15T14:22:18.555549Z,592.0,CVPIIDEI,1346,27,Male,White,United States,United States,United States,English,No,Full-Time,Not Applicable
6290c6d191ba8fb0309ebfc9,<b>I have lots of beliefs that I?m only sort of sure about.,Highly disagree,11/94,Somewhat agree,3,1708006449454,1708006452217,\Somewhat agree\,\Somewhat agree\,\3\,1708006451848,1708006451848,2394,2394,2763,buq,qns-item-noham,11,92650,0.0-1.0-0.10,65ce1bb09fcc51092f25ac48,AWAITING REVIEW,2024-02-15T14:12:26.170000Z,2024-02-15T14:22:17.852000Z,,2024-02-15T14:22:18.555549Z,592.0,CVPIIDEI,1346,27,Male,White,United States,United States,United States,English,No,Full-Time,Not Applicable
6290c6d191ba8fb0309ebfc9,"<b>If I go to my favorite restaurant and the food is surprisingly bad, it reminds me there are many disappointments in life.",Highly disagree,12/94,Somewhat disagree,2,1708006452218,1708006458034,\Highly disagree\,\Somewhat disagree\,\1\,1708006457121,1708006457741,4903,5523,5816,buq,qns-item-noham,12,98467,0.0-1.0-0.11,65ce1bb09fcc51092f25ac48,AWAITING REVIEW,2024-02-15T14:12:26.170000Z,2024-02-15T14:22:17.852000Z,,2024-02-15T14:22:18.555549Z,592.0,CVPIIDEI,1346,27,Male,White,United States,United States,United States,English,No,Full-Time,Not Applicable
6290c6d191ba8fb0309ebfc9,"<b>If you are paying attention, please select ?Somewhat agree?",Highly disagree,13/94,Somewhat agree,3,1708006458036,1708006460604,\Somewhat agree\,\Somewhat agree\,\3\,1708006460177,1708006460177,2141,2141,2568,buq,qns-item-noham,13,101037,0.0-1.0-0.12,65ce1bb09fcc51092f25ac48,AWAITING REVIEW,2024-02-15T14:12:26.170000Z,2024-02-15T14:22:17.852000Z,,2024-02-15T14:22:18.555549Z,592.0,CVPIIDEI,1346,27,Male,White,United States,United States,United States,English,No,Full-Time,Not Applicable
6290c6d191ba8fb0309ebfc9,"<b>When I talk to others, I often worry I?ll convince them of something I didn?t mean to.",Highly disagree,14/94,Somewhat agree,3,1708006460605,1708006466339,\Somewhat agree\,\Somewhat agree\,\3\,1708006465865,1708006465865,5260,5260,5734,buq,qns-item-noham,14,106772,0.0-1.0-0.13,65ce1bb09fcc51092f25ac48,AWAITING REVIEW,2024-02-15T14:12:26.170000Z,2024-02-15T14:22:17.852000Z,,2024-02-15T14:22:18.555549Z,592.0,CVPIIDEI,1346,27,Male,White,United States,United States,United States,English,No,Full-Time,Not Applicable
6290c6d191ba8fb0309ebfc9,<b>I would need to learn something utterly shocking about my party in order to change my political views.,Highly disagree,15/94,Somewhat agree,3,1708006466340,1708006473504,\Somewhat agree\,\Somewhat agree\,\3\,1708006473048,1708006473048,6708,6708,7164,buq,qns-item-noham,15,113937,0.0-1.0-0.14,65ce1bb09fcc51092f25ac48,AWAITING REVIEW,2024-02-15T14:12:26.170000Z,2024-02-15T14:22:17.852000Z,,2024-02-15T14:22:18.555549Z,592.0,CVPIIDEI,1346,27,Male,White,United States,United States,United States,English,No,Full-Time,Not Applicable
6290c6d191ba8fb0309ebfc9,"<b>When I have new experiences, I tend to think of them as unique.",Highly disagree,16/94,Highly agree,4,1708006473505,1708006484792,\Somewhat agree\,\Highly agree\,\3\,1708006483938,1708006484463,10433,10958,11287,buq,qns-item-noham,16,125225,0.0-1.0-0.15,65ce1bb09fcc51092f25ac48,AWAITING REVIEW,2024-02-15T14:12:26.170000Z,2024-02-15T14:22:17.852000Z,,2024-02-15T14:22:18.555549Z,592.0,CVPIIDEI,1346,27,Male,White,United States,United States,United States,English,No,Full-Time,Not Applicable
6290c6d191ba8fb0309ebfc9,<b>I change my mind about specific policies pretty frequently.,Highly disagree,17/94,Highly disagree,1,1708006484793,1708006488175,\Highly disagree\,\Highly disagree\,\1\,1708006487576,1708006487576,2783,2783,3382,buq,qns-item-noham,17,128608,0.0-1.0-0.16,65ce1bb09fcc51092f25ac48,AWAITING REVIEW,2024-02-15T14:12:26.170000Z,2024-02-15T14:22:17.852000Z,,2024-02-15T14:22:18.555549Z,592.0,CVPIIDEI,1346,27,Male,White,United States,United States,United States,English,No,Full-Time,Not Applicable
6290c6d191ba8fb0309ebfc9,"<b>If a politician in my political party supports something I disagree with, I give them the benefit of the doubt, as such issues often involve hidden complexities that aren?t obvious.   ",Highly disagree,18/94,Highly disagree,1,1708006488177,1708006495073,\Highly disagree\,\Highly disagree\,\1\,1708006494682,1708006494682,6505,6505,6896,buq,qns-item-noham,18,135506,0.0-1.0-0.17,65ce1bb09fcc51092f25ac48,AWAITING REVIEW,2024-02-15T14:12:26.170000Z,2024-02-15T14:22:17.852000Z,,2024-02-15T14:22:18.555549Z,592.0,CVPIIDEI,1346,27,Male,White,United States,United States,United States,English,No,Full-Time,Not Applicable
6290c6d191ba8fb0309ebfc9,<b>People?s bad politics are usually motivated by hatefulness.,Highly disagree,19/94,Somewhat disagree,2,1708006495074,1708006499298,\Somewhat disagree\,\Somewhat disagree\,\2\,1708006498376,1708006498376,3302,3302,4224,buq,qns-item-noham,19,139731,0.0-1.0-0.18,65ce1bb09fcc51092f25ac48,AWAITING REVIEW,2024-02-15T14:12:26.170000Z,2024-02-15T14:22:17.852000Z,,2024-02-15T14:22:18.555549Z,592.0,CVPIIDEI,1346,27,Male,White,United States,United States,United States,English,No,Full-Time,Not Applicable
6290c6d191ba8fb0309ebfc9,<b>I think a lot about how to reconcile my beliefs with one another.,Highly disagree,20/94,Somewhat disagree,2,1708006499299,1708006504080,\Somewhat disagree\,\Somewhat disagree\,\2\,1708006503486,1708006503486,4187,4187,4781,buq,qns-item-noham,20,144513,0.0-1.0-0.19,65ce1bb09fcc51092f25ac48,AWAITING REVIEW,2024-02-15T14:12:26.170000Z,2024-02-15T14:22:17.852000Z,,2024-02-15T14:22:18.555549Z,592.0,CVPIIDEI,1346,27,Male,White,United States,United States,United States,English,No,Full-Time,Not Applicable
6290c6d191ba8fb0309ebfc9,<b>I might have false beliefs about important topics.,Highly disagree,21/94,Somewhat agree,3,1708006504080,1708006511082,\Somewhat agree\,\Somewhat agree\,\3\,1708006508952,1708006508952,4872,4872,7002,buq,qns-item-noham,21,151515,0.0-1.0-0.20,65ce1bb09fcc51092f25ac48,AWAITING REVIEW,2024-02-15T14:12:26.170000Z,2024-02-15T14:22:17.852000Z,,2024-02-15T14:22:18.555549Z,592.0,CVPIIDEI,1346,27,Male,White,United States,United States,United States,English,No,Full-Time,Not Applicable
6290c6d191ba8fb0309ebfc9,"<b>If a good friend of mine does something unexpected that upsets me, I feel like I don?t know them anymore.",Highly disagree,22/94,Somewhat agree,3,1708006511084,1708006515988,\Somewhat agree\,\Somewhat agree\,\3\,1708006515512,1708006515512,4428,4428,4904,buq,qns-item-noham,22,156421,0.0-1.0-0.21,65ce1bb09fcc51092f25ac48,AWAITING REVIEW,2024-02-15T14:12:26.170000Z,2024-02-15T14:22:17.852000Z,,2024-02-15T14:22:18.555549Z,592.0,CVPIIDEI,1346,27,Male,White,United States,United States,United States,English,No,Full-Time,Not Applicable
6290c6d191ba8fb0309ebfc9,<b>Other people?s beliefs are often incoherent.,Highly disagree,23/94,Highly disagree,1,1708006515989,1708006519290,\Highly disagree\,\Highly disagree\,\1\,1708006518936,1708006518936,2947,2947,3301,buq,qns-item-noham,23,159723,0.0-1.0-0.22,65ce1bb09fcc51092f25ac48,AWAITING REVIEW,2024-02-15T14:12:26.170000Z,2024-02-15T14:22:17.852000Z,,2024-02-15T14:22:18.555549Z,592.0,CVPIIDEI,1346,27,Male,White,United States,United States,United States,English,No,Full-Time,Not Applicable
6290c6d191ba8fb0309ebfc9,"<b>Every now and then, a new experience will unsettle beliefs I?ve had for a while.",Highly disagree,24/94,Somewhat agree,3,1708006519291,1708006528106,\Somewhat agree\,\Somewhat agree\,\3\,1708006527746,1708006527746,8455,8455,8815,buq,qns-item-noham,24,168539,0.0-1.0-0.23,65ce1bb09fcc51092f25ac48,AWAITING REVIEW,2024-02-15T14:12:26.170000Z,2024-02-15T14:22:17.852000Z,,2024-02-15T14:22:18.555549Z,592.0,CVPIIDEI,1346,27,Male,White,United States,United States,United States,English,No,Full-Time,Not Applicable
6290c6d191ba8fb0309ebfc9,<b>Some policies I agree with in principle are so bad I don?t support them. ,Highly disagree,25/94,Somewhat disagree,2,1708006528107,1708006532890,\Somewhat disagree\,\Somewhat disagree\,\2\,1708006532302,1708006532302,4195,4195,4783,buq,qns-item-noham,25,173323,0.0-1.0-0.24,65ce1bb09fcc51092f25ac48,AWAITING REVIEW,2024-02-15T14:12:26.170000Z,2024-02-15T14:22:17.852000Z,,2024-02-15T14:22:18.555549Z,592.0,CVPIIDEI,1346,27,Male,White,United States,United States,United States,English,No,Full-Time,Not Applicable
6290c6d191ba8fb0309ebfc9,<b>I?m pretty sure I?ve accidentally spread false information.,Highly disagree,26/94,Somewhat agree,3,1708006532891,1708006535708,\Somewhat agree\,\Somewhat agree\,\3\,1708006535088,1708006535088,2197,2197,2817,buq,qns-item-noham,26,176141,0.0-1.0-0.25,65ce1bb09fcc51092f25ac48,AWAITING REVIEW,2024-02-15T14:12:26.170000Z,2024-02-15T14:22:17.852000Z,,2024-02-15T14:22:18.555549Z,592.0,CVPIIDEI,1346,27,Male,White,United States,United States,United States,English,No,Full-Time,Not Applicable
6290c6d191ba8fb0309ebfc9,"<b>If I go to my favorite restaurant and the food is unexpectedly bad, then they have changed owners.",Highly disagree,27/94,Somewhat agree,3,1708006535709,1708006541554,\Highly disagree\,\Somewhat agree\,\1\,1708006539294,1708006540678,3585,4969,5845,buq,qns-item-noham,27,181987,0.0-1.0-0.26,65ce1bb09fcc51092f25ac48,AWAITING REVIEW,2024-02-15T14:12:26.170000Z,2024-02-15T14:22:17.852000Z,,2024-02-15T14:22:18.555549Z,592.0,CVPIIDEI,1346,27,Male,White,United States,United States,United States,English,No,Full-Time,Not Applicable
6290c6d191ba8fb0309ebfc9,"<b>In politics, it?s important to trust your friends and family.",Highly disagree,28/94,Somewhat agree,3,1708006541556,1708006546406,\Somewhat agree\,\Somewhat agree\,\3\,1708006545834,1708006545834,4278,4278,4850,buq,qns-item-noham,28,186839,0.0-1.0-0.27,65ce1bb09fcc51092f25ac48,AWAITING REVIEW,2024-02-15T14:12:26.170000Z,2024-02-15T14:22:17.852000Z,,2024-02-15T14:22:18.555549Z,592.0,CVPIIDEI,1346,27,Male,White,United States,United States,United States,English,No,Full-Time,Not Applicable
6290c6d191ba8fb0309ebfc9,<b>It?s OK to have some conflicting beliefs.,Highly disagree,29/94,Highly agree,4,1708006546407,1708006548992,\Highly agree\,\Highly agree\,\4\,1708006548569,1708006548569,2162,2162,2585,buq,qns-item-noham,29,189425,0.0-1.0-0.28,65ce1bb09fcc51092f25ac48,AWAITING REVIEW,2024-02-15T14:12:26.170000Z,2024-02-15T14:22:17.852000Z,,2024-02-15T14:22:18.555549Z,592.0,CVPIIDEI,1346,27,Male,White,United States,United States,United States,English,No,Full-Time,Not Applicable
6290c6d191ba8fb0309ebfc9,<b>Listening to people I disagree with makes my opinions better.,Highly disagree,30/94,Somewhat agree,3,1708006548994,1708006563100,\Somewhat agree\,\Somewhat agree\,\3\,1708006562620,1708006562620,13626,13626,14106,buq,qns-item-noham,30,203533,0.0-1.0-0.29,65ce1bb09fcc51092f25ac48,AWAITING REVIEW,2024-02-15T14:12:26.170000Z,2024-02-15T14:22:17.852000Z,,2024-02-15T14:22:18.555549Z,592.0,CVPIIDEI,1346,27,Male,White,United States,United States,United States,English,No,Full-Time,Not Applicable
6290c6d191ba8fb0309ebfc9,<b>My moral compass sometimes makes it harder to determine what?s true.,Highly disagree,31/94,Highly disagree,1,1708006563101,1708006572504,\Highly disagree\,\Highly disagree\,\1\,1708006572032,1708006572032,8931,8931,9403,buq,qns-item-noham,31,212937,0.0-1.0-0.30,65ce1bb09fcc51092f25ac48,AWAITING REVIEW,2024-02-15T14:12:26.170000Z,2024-02-15T14:22:17.852000Z,,2024-02-15T14:22:18.555549Z,592.0,CVPIIDEI,1346,27,Male,White,United States,United States,United States,English,No,Full-Time,Not Applicable
6290c6d191ba8fb0309ebfc9,<b>Evidence pointing in the wrong direction isn?t really evidence at all.,Highly disagree,32/94,Highly disagree,1,1708006572505,1708006577372,\Highly disagree\,\Highly disagree\,\1\,1708006576692,1708006576692,4187,4187,4867,buq,qns-item-noham,32,217805,0.0-1.0-0.31,65ce1bb09fcc51092f25ac48,AWAITING REVIEW,2024-02-15T14:12:26.170000Z,2024-02-15T14:22:17.852000Z,,2024-02-15T14:22:18.555549Z,592.0,CVPIIDEI,1346,27,Male,White,United States,United States,United States,English,No,Full-Time,Not Applicable
6290c6d191ba8fb0309ebfc9,"<b>If the political party I support messes up, it makes me think politics is rotten.",Highly disagree,33/94,Somewhat agree,3,1708006577373,1708006581534,\Somewhat agree\,\Somewhat agree\,\3\,1708006581002,1708006581002,3629,3629,4161,buq,qns-item-noham,33,221967,0.0-1.0-0.32,65ce1bb09fcc51092f25ac48,AWAITING REVIEW,2024-02-15T14:12:26.170000Z,2024-02-15T14:22:17.852000Z,,2024-02-15T14:22:18.555549Z,592.0,CVPIIDEI,1346,27,Male,White,United States,United States,United States,English,No,Full-Time,Not Applicable
6290c6d191ba8fb0309ebfc9,<b>Lots of important topics can only really be understood by some groups of people.,Highly disagree,34/94,Highly disagree,1,1708006581536,1708006587042,\Highly disagree\,\Highly disagree\,\1\,1708006586580,1708006586580,5044,5044,5506,buq,qns-item-noham,34,227475,0.0-1.0-0.33,65ce1bb09fcc51092f25ac48,AWAITING REVIEW,2024-02-15T14:12:26.170000Z,2024-02-15T14:22:17.852000Z,,2024-02-15T14:22:18.555549Z,592.0,CVPIIDEI,1346,27,Male,White,United States,United States,United States,English,No,Full-Time,Not Applicable
6290c6d191ba8fb0309ebfc9,<b>Having conflicting beliefs means you haven?t thought about them enough.,Highly disagree,35/94,Highly disagree,1,1708006587043,1708006599692,\Highly disagree\,\Highly disagree\,\1\,1708006599254,1708006599254,12211,12211,12649,buq,qns-item-noham,35,240125,0.0-1.0-0.34,65ce1bb09fcc51092f25ac48,AWAITING REVIEW,2024-02-15T14:12:26.170000Z,2024-02-15T14:22:17.852000Z,,2024-02-15T14:22:18.555549Z,592.0,CVPIIDEI,1346,27,Male,White,United States,United States,United States,English,No,Full-Time,Not Applicable
6290c6d191ba8fb0309ebfc9,<b>I do not often change my political opinions.,Highly disagree,36/94,Somewhat disagree,2,1708006599693,1708006603145,\Somewhat disagree\,\Somewhat disagree\,\2\,1708006602758,1708006602758,3065,3065,3452,buq,qns-item-noham,36,243578,0.0-1.0-0.35,65ce1bb09fcc51092f25ac48,AWAITING REVIEW,2024-02-15T14:12:26.170000Z,2024-02-15T14:22:17.852000Z,,2024-02-15T14:22:18.555549Z,592.0,CVPIIDEI,1346,27,Male,White,United States,United States,United States,English,No,Full-Time,Not Applicable
6290c6d191ba8fb0309ebfc9,<b>It?s difficult to not have at least some conflicting beliefs.,Highly disagree,37/94,Highly agree,4,1708006603147,1708006606298,\Highly agree\,\Highly agree\,\4\,1708006605900,1708006605900,2753,2753,3151,buq,qns-item-noham,37,246731,0.0-1.0-0.36,65ce1bb09fcc51092f25ac48,AWAITING REVIEW,2024-02-15T14:12:26.170000Z,2024-02-15T14:22:17.852000Z,,2024-02-15T14:22:18.555549Z,592.0,CVPIIDEI,1346,27,Male,White,United States,United States,United States,English,No,Full-Time,Not Applicable
6290c6d191ba8fb0309ebfc9,<b>Wishful thinking causes a lot of problems.,Highly disagree,38/94,Somewhat disagree,2,1708006606299,1708006609866,\Somewhat disagree\,\Somewhat disagree\,\2\,1708006609392,1708006609392,3093,3093,3567,buq,qns-item-noham,38,250299,0.0-1.0-0.37,65ce1bb09fcc51092f25ac48,AWAITING REVIEW,2024-02-15T14:12:26.170000Z,2024-02-15T14:22:17.852000Z,,2024-02-15T14:22:18.555549Z,592.0,CVPIIDEI,1346,27,Male,White,United States,United States,United States,English,No,Full-Time,Not Applicable
6290c6d191ba8fb0309ebfc9,<b>I judge a food item only once I try it many times.,Highly disagree,39/94,Somewhat disagree,2,1708006609867,1708006613908,\Somewhat disagree\,\Somewhat disagree\,\2\,1708006612984,1708006612984,3117,3117,4041,buq,qns-item-noham,39,254341,0.0-1.0-0.38,65ce1bb09fcc51092f25ac48,AWAITING REVIEW,2024-02-15T14:12:26.170000Z,2024-02-15T14:22:17.852000Z,,2024-02-15T14:22:18.555549Z,592.0,CVPIIDEI,1346,27,Male,White,United States,United States,United States,English,No,Full-Time,Not Applicable
6290c6d191ba8fb0309ebfc9,"<b>When a person holds conflicting beliefs, they should really try to figure out what?s wrong.",Highly disagree,40/94,Somewhat agree,3,1708006613909,1708006622694,\Somewhat agree\,\Somewhat agree\,\3\,1708006622256,1708006622256,8347,8347,8785,buq,qns-item-noham,40,263127,0.0-1.0-0.39,65ce1bb09fcc51092f25ac48,AWAITING REVIEW,2024-02-15T14:12:26.170000Z,2024-02-15T14:22:17.852000Z,,2024-02-15T14:22:18.555549Z,592.0,CVPIIDEI,1346,27,Male,White,United States,United States,United States,English,No,Full-Time,Not Applicable
6290c6d191ba8fb0309ebfc9,<b>Knowing what?s important in life is easy.,Highly disagree,41/94,Highly disagree,1,1708006622695,1708006625384,\Highly disagree\,\Highly disagree\,\1\,1708006624800,1708006624800,2105,2105,2689,buq,qns-item-noham,41,265817,0.0-1.0-0.40,65ce1bb09fcc51092f25ac48,AWAITING REVIEW,2024-02-15T14:12:26.170000Z,2024-02-15T14:22:17.852000Z,,2024-02-15T14:22:18.555549Z,592.0,CVPIIDEI,1346,27,Male,White,United States,United States,United States,English,No,Full-Time,Not Applicable
6290c6d191ba8fb0309ebfc9,<b>I swim across the Atlantic Ocean to get to work every day.,Highly disagree,42/94,Highly disagree,1,1708006625385,1708006628546,\Highly disagree\,\Highly disagree\,\1\,1708006627466,1708006627466,2081,2081,3161,buq,qns-item-noham,42,268979,0.0-1.0-0.41,65ce1bb09fcc51092f25ac48,AWAITING REVIEW,2024-02-15T14:12:26.170000Z,2024-02-15T14:22:17.852000Z,,2024-02-15T14:22:18.555549Z,592.0,CVPIIDEI,1346,27,Male,White,United States,United States,United States,English,No,Full-Time,Not Applicable
6290c6d191ba8fb0309ebfc9,"<b>Sometimes, you just have to ignore evidence that you know is wrong.",Highly disagree,43/94,Somewhat agree,3,1708006628548,1708006632826,\Somewhat agree\,\Somewhat agree\,\3\,1708006632114,1708006632114,3566,3566,4278,buq,qns-item-noham,43,273259,0.0-1.0-0.42,65ce1bb09fcc51092f25ac48,AWAITING REVIEW,2024-02-15T14:12:26.170000Z,2024-02-15T14:22:17.852000Z,,2024-02-15T14:22:18.555549Z,592.0,CVPIIDEI,1346,27,Male,White,United States,United States,United States,English,No,Full-Time,Not Applicable
6290c6d191ba8fb0309ebfc9,<b>I have had some false beliefs.,Highly disagree,44/94,Somewhat agree,3,1708006632827,1708006638908,\Somewhat agree\,\Somewhat agree\,\3\,1708006638352,1708006638352,5525,5525,6081,buq,qns-item-noham,44,279341,0.0-1.0-0.43,65ce1bb09fcc51092f25ac48,AWAITING REVIEW,2024-02-15T14:12:26.170000Z,2024-02-15T14:22:17.852000Z,,2024-02-15T14:22:18.555549Z,592.0,CVPIIDEI,1346,27,Male,White,United States,United States,United States,English,No,Full-Time,Not Applicable
6290c6d191ba8fb0309ebfc9,"<b>If one friend does something that upsets me, I sometimes start to distrust people in general.",Highly disagree,45/94,Somewhat agree,3,1708006638909,1708006643590,\Somewhat agree\,\Somewhat agree\,\3\,1708006643185,1708006643185,4276,4276,4681,buq,qns-item-noham,45,284023,0.0-1.0-0.44,65ce1bb09fcc51092f25ac48,AWAITING REVIEW,2024-02-15T14:12:26.170000Z,2024-02-15T14:22:17.852000Z,,2024-02-15T14:22:18.555549Z,592.0,CVPIIDEI,1346,27,Male,White,United States,United States,United States,English,No,Full-Time,Not Applicable
6290c6d191ba8fb0309ebfc9,<b>The facts about most important matters are easy to find.,Highly disagree,46/94,Somewhat disagree,2,1708006643591,1708006657076,\Somewhat disagree\,\Somewhat disagree\,\2\,1708006656715,1708006656715,13124,13124,13485,buq,qns-item-noham,46,297509,0.0-1.0-0.45,65ce1bb09fcc51092f25ac48,AWAITING REVIEW,2024-02-15T14:12:26.170000Z,2024-02-15T14:22:17.852000Z,,2024-02-15T14:22:18.555549Z,592.0,CVPIIDEI,1346,27,Male,White,United States,United States,United States,English,No,Full-Time,Not Applicable
6290c6d191ba8fb0309ebfc9,<b>It?s better to know what?s true than to know what?s moral.,Highly disagree,47/94,Somewhat disagree,2,1708006657077,1708006662143,\Somewhat disagree\,\Somewhat disagree\,\2\,1708006661435,1708006661435,4358,4358,5066,buq,qns-item-noham,47,302576,0.0-1.0-0.46,65ce1bb09fcc51092f25ac48,AWAITING REVIEW,2024-02-15T14:12:26.170000Z,2024-02-15T14:22:17.852000Z,,2024-02-15T14:22:18.555549Z,592.0,CVPIIDEI,1346,27,Male,White,United States,United States,United States,English,No,Full-Time,Not Applicable
6290c6d191ba8fb0309ebfc9,<b>I used to think the world was less complicated than I do now.,Highly disagree,48/94,Somewhat disagree,2,1708006662144,1708006667248,\Somewhat disagree\,\Somewhat disagree\,\2\,1708006666291,1708006666291,4147,4147,5104,buq,qns-item-noham,48,307681,0.0-1.0-0.47,65ce1bb09fcc51092f25ac48,AWAITING REVIEW,2024-02-15T14:12:26.170000Z,2024-02-15T14:22:17.852000Z,,2024-02-15T14:22:18.555549Z,592.0,CVPIIDEI,1346,27,Male,White,United States,United States,United States,English,No,Full-Time,Not Applicable
6290c6d191ba8fb0309ebfc9,<b>People are usually completely right or completely wrong.,Highly disagree,49/94,Highly disagree,1,1708006667250,1708006669922,\Highly disagree\,\Highly disagree\,\1\,1708006669545,1708006669545,2295,2295,2672,buq,qns-item-noham,49,310355,0.0-1.0-0.48,65ce1bb09fcc51092f25ac48,AWAITING REVIEW,2024-02-15T14:12:26.170000Z,2024-02-15T14:22:17.852000Z,,2024-02-15T14:22:18.555549Z,592.0,CVPIIDEI,1346,27,Male,White,United States,United States,United States,English,No,Full-Time,Not Applicable
6290c6d191ba8fb0309ebfc9,<b>I spend a lot of time considering alternatives to my beliefs.,Highly disagree,50/94,Somewhat agree,3,1708006669924,1708006673584,\Somewhat agree\,\Somewhat agree\,\3\,1708006673161,1708006673161,3237,3237,3660,buq,qns-item-noham,50,314017,0.0-1.0-0.49,65ce1bb09fcc51092f25ac48,AWAITING REVIEW,2024-02-15T14:12:26.170000Z,2024-02-15T14:22:17.852000Z,,2024-02-15T14:22:18.555549Z,592.0,CVPIIDEI,1346,27,Male,White,United States,United States,United States,English,No,Full-Time,Not Applicable
6290c6d191ba8fb0309ebfc9,"<b>Political enemies need to be defeated, not convinced.",Highly disagree,51/94,Somewhat disagree,2,1708006673586,1708006676939,\Somewhat disagree\,\Somewhat disagree\,\2\,1708006676503,1708006676503,2917,2917,3353,buq,qns-item-noham,51,317372,0.0-1.0-0.50,65ce1bb09fcc51092f25ac48,AWAITING REVIEW,2024-02-15T14:12:26.170000Z,2024-02-15T14:22:17.852000Z,,2024-02-15T14:22:18.555549Z,592.0,CVPIIDEI,1346,27,Male,White,United States,United States,United States,English,No,Full-Time,Not Applicable
6290c6d191ba8fb0309ebfc9,<b>I form my political views only after meticulously gathering historical and present information about their policies.,Highly disagree,52/94,Somewhat disagree,2,1708006676940,1708006682850,\Somewhat disagree\,\Somewhat disagree\,\2\,1708006682271,1708006682271,5331,5331,5910,buq,qns-item-noham,52,323283,0.0-1.0-0.51,65ce1bb09fcc51092f25ac48,AWAITING REVIEW,2024-02-15T14:12:26.170000Z,2024-02-15T14:22:17.852000Z,,2024-02-15T14:22:18.555549Z,592.0,CVPIIDEI,1346,27,Male,White,United States,United States,United States,English,No,Full-Time,Not Applicable
6290c6d191ba8fb0309ebfc9,<b>It is difficult for me to remember the last time I was surprised by politics.,Highly disagree,53/94,Somewhat disagree,2,1708006682851,1708006687074,\Somewhat disagree\,\Somewhat disagree\,\2\,1708006686660,1708006686660,3809,3809,4223,buq,qns-item-noham,53,327507,0.0-1.0-0.52,65ce1bb09fcc51092f25ac48,AWAITING REVIEW,2024-02-15T14:12:26.170000Z,2024-02-15T14:22:17.852000Z,,2024-02-15T14:22:18.555549Z,592.0,CVPIIDEI,1346,27,Male,White,United States,United States,United States,English,No,Full-Time,Not Applicable
6290c6d191ba8fb0309ebfc9,"<b>When I find out I?m wrong, I think a lot about my related beliefs.",Highly disagree,54/94,Somewhat agree,3,1708006687075,1708006690924,\Somewhat agree\,\Somewhat agree\,\3\,1708006690550,1708006690550,3475,3475,3849,buq,qns-item-noham,54,331357,0.0-1.0-0.53,65ce1bb09fcc51092f25ac48,AWAITING REVIEW,2024-02-15T14:12:26.170000Z,2024-02-15T14:22:17.852000Z,,2024-02-15T14:22:18.555549Z,592.0,CVPIIDEI,1346,27,Male,White,United States,United States,United States,English,No,Full-Time,Not Applicable
6290c6d191ba8fb0309ebfc9,"<b>If the political party I support messes up, it makes me think you can?t trust anyone these days",Highly disagree,55/94,Highly disagree,1,1708006690925,1708006695601,\Somewhat disagree\,\Highly disagree\,\2\,1708006694428,1708006695234,3503,4309,4676,buq,qns-item-noham,55,336034,0.0-1.0-0.54,65ce1bb09fcc51092f25ac48,AWAITING REVIEW,2024-02-15T14:12:26.170000Z,2024-02-15T14:22:17.852000Z,,2024-02-15T14:22:18.555549Z,592.0,CVPIIDEI,1346,27,Male,White,United States,United States,United States,English,No,Full-Time,Not Applicable
6290c6d191ba8fb0309ebfc9,<b>People?s brains turn off when they talk about politics.,Highly disagree,56/94,Somewhat disagree,2,1708006695602,1708006698931,\Somewhat disagree\,\Somewhat disagree\,\2\,1708006698621,1708006698621,3019,3019,3329,buq,qns-item-noham,56,339364,0.0-1.0-0.55,65ce1bb09fcc51092f25ac48,AWAITING REVIEW,2024-02-15T14:12:26.170000Z,2024-02-15T14:22:17.852000Z,,2024-02-15T14:22:18.555549Z,592.0,CVPIIDEI,1346,27,Male,White,United States,United States,United States,English,No,Full-Time,Not Applicable
6290c6d191ba8fb0309ebfc9,<b>People who are wrong are usually just ignoring the obvious.,Highly disagree,57/94,Highly disagree,1,1708006698932,1708006702450,\Highly disagree\,\Highly disagree\,\1\,1708006702007,1708006702007,3075,3075,3518,buq,qns-item-noham,57,342883,0.0-1.0-0.56,65ce1bb09fcc51092f25ac48,AWAITING REVIEW,2024-02-15T14:12:26.170000Z,2024-02-15T14:22:17.852000Z,,2024-02-15T14:22:18.555549Z,592.0,CVPIIDEI,1346,27,Male,White,United States,United States,United States,English,No,Full-Time,Not Applicable
6290c6d191ba8fb0309ebfc9,"<b>When forming my views on people, I rely more on what they are like now rather than rely on my past experience with them.",Highly disagree,58/94,Somewhat disagree,2,1708006702451,1708006709799,\Somewhat disagree\,\Somewhat disagree\,\2\,1708006709428,1708006709428,6977,6977,7348,buq,qns-item-noham,58,350232,0.0-1.0-0.57,65ce1bb09fcc51092f25ac48,AWAITING REVIEW,2024-02-15T14:12:26.170000Z,2024-02-15T14:22:17.852000Z,,2024-02-15T14:22:18.555549Z,592.0,CVPIIDEI,1346,27,Male,White,United States,United States,United States,English,No,Full-Time,Not Applicable
6290c6d191ba8fb0309ebfc9,"<b>When people contradict my beliefs, I usually know about their evidence already.",Highly disagree,59/94,Somewhat agree,3,1708006709800,1708006715275,\Somewhat agree\,\Somewhat agree\,\3\,1708006714519,1708006714519,4719,4719,5475,buq,qns-item-noham,59,355708,0.0-1.0-0.58,65ce1bb09fcc51092f25ac48,AWAITING REVIEW,2024-02-15T14:12:26.170000Z,2024-02-15T14:22:17.852000Z,,2024-02-15T14:22:18.555549Z,592.0,CVPIIDEI,1346,27,Male,White,United States,United States,United States,English,No,Full-Time,Not Applicable
6290c6d191ba8fb0309ebfc9,<b>Figuring out what?s true and what?s false mainly requires a strong moral compass.,Highly disagree,60/94,Somewhat disagree,2,1708006715276,1708006721154,\Somewhat disagree\,\Somewhat disagree\,\2\,1708006720695,1708006720695,5419,5419,5878,buq,qns-item-noham,60,361587,0.0-1.0-0.59,65ce1bb09fcc51092f25ac48,AWAITING REVIEW,2024-02-15T14:12:26.170000Z,2024-02-15T14:22:17.852000Z,,2024-02-15T14:22:18.555549Z,592.0,CVPIIDEI,1346,27,Male,White,United States,United States,United States,English,No,Full-Time,Not Applicable
6290c6d191ba8fb0309ebfc9,"<b>Usually I?m wrong about simple things, not complicated ones.",Highly disagree,61/94,Highly disagree,1,1708006721155,1708006724276,\Highly disagree\,\Highly disagree\,\1\,1708006723643,1708006723643,2488,2488,3121,buq,qns-item-noham,61,364709,0.0-1.0-0.60,65ce1bb09fcc51092f25ac48,AWAITING REVIEW,2024-02-15T14:12:26.170000Z,2024-02-15T14:22:17.852000Z,,2024-02-15T14:22:18.555549Z,592.0,CVPIIDEI,1346,27,Male,White,United States,United States,United States,English,No,Full-Time,Not Applicable
6290c6d191ba8fb0309ebfc9,<b>Getting all the information I want about important things is hard.,Highly disagree,62/94,Somewhat agree,3,1708006724278,1708006727968,\Somewhat agree\,\Somewhat agree\,\3\,1708006727264,1708006727264,2986,2986,3690,buq,qns-item-noham,62,368401,0.0-1.0-0.61,65ce1bb09fcc51092f25ac48,AWAITING REVIEW,2024-02-15T14:12:26.170000Z,2024-02-15T14:22:17.852000Z,,2024-02-15T14:22:18.555549Z,592.0,CVPIIDEI,1346,27,Male,White,United States,United States,United States,English,No,Full-Time,Not Applicable
6290c6d191ba8fb0309ebfc9,<b>Most false beliefs spread because people try to deceive one another.,Highly disagree,63/94,Highly disagree,1,1708006727970,1708006732239,\Somewhat disagree\,\Highly disagree\,\2\,1708006731257,1708006731876,3287,3906,4269,buq,qns-item-noham,63,372672,0.0-1.0-0.62,65ce1bb09fcc51092f25ac48,AWAITING REVIEW,2024-02-15T14:12:26.170000Z,2024-02-15T14:22:17.852000Z,,2024-02-15T14:22:18.555549Z,592.0,CVPIIDEI,1346,27,Male,White,United States,United States,United States,English,No,Full-Time,Not Applicable
6290c6d191ba8fb0309ebfc9,<b>I can usually find something to agree with in most people?s beliefs.,Highly disagree,64/94,Highly agree,4,1708006732240,1708006737141,\Somewhat agree\,\Highly agree\,\3\,1708006736061,1708006736753,3821,4513,4901,buq,qns-item-noham,64,377574,0.0-1.0-0.63,65ce1bb09fcc51092f25ac48,AWAITING REVIEW,2024-02-15T14:12:26.170000Z,2024-02-15T14:22:17.852000Z,,2024-02-15T14:22:18.555549Z,592.0,CVPIIDEI,1346,27,Male,White,United States,United States,United States,English,No,Full-Time,Not Applicable
6290c6d191ba8fb0309ebfc9,<b>I only form my views of people once I get to know them very well.,Highly disagree,65/94,Highly disagree,1,1708006737142,1708006741134,\Highly disagree\,\Highly disagree\,\1\,1708006740499,1708006740499,3357,3357,3992,buq,qns-item-noham,65,381567,0.0-1.0-0.64,65ce1bb09fcc51092f25ac48,AWAITING REVIEW,2024-02-15T14:12:26.170000Z,2024-02-15T14:22:17.852000Z,,2024-02-15T14:22:18.555549Z,592.0,CVPIIDEI,1346,27,Male,White,United States,United States,United States,English,No,Full-Time,Not Applicable
6290c6d191ba8fb0309ebfc9,"<b>When people tell me important things about the world, I usually believe them.",Highly disagree,66/94,Somewhat agree,3,1708006741135,1708006750739,\Somewhat agree\,\Somewhat agree\,\3\,1708006750211,1708006750211,9076,9076,9604,buq,qns-item-noham,66,391172,0.0-1.0-0.65,65ce1bb09fcc51092f25ac48,AWAITING REVIEW,2024-02-15T14:12:26.170000Z,2024-02-15T14:22:17.852000Z,,2024-02-15T14:22:18.555549Z,592.0,CVPIIDEI,1346,27,Male,White,United States,United States,United States,English,No,Full-Time,Not Applicable
6290c6d191ba8fb0309ebfc9,"<b>If a friend does something that upsets me, it reminds me what an unpredictable place the world is.",Highly disagree,67/94,Somewhat disagree,2,1708006750740,1708006754548,\Somewhat disagree\,\Somewhat disagree\,\2\,1708006754237,1708006754237,3497,3497,3808,buq,qns-item-noham,67,394981,0.0-1.0-0.66,65ce1bb09fcc51092f25ac48,AWAITING REVIEW,2024-02-15T14:12:26.170000Z,2024-02-15T14:22:17.852000Z,,2024-02-15T14:22:18.555549Z,592.0,CVPIIDEI,1346,27,Male,White,United States,United States,United States,English,No,Full-Time,Not Applicable
6290c6d191ba8fb0309ebfc9,<b>People tend to believe whatever is good for their friends.,Highly disagree,68/94,Somewhat agree,3,1708006754549,1708006758064,\Somewhat agree\,\Somewhat agree\,\3\,1708006757633,1708006757633,3084,3084,3515,buq,qns-item-noham,68,398497,0.0-1.0-0.67,65ce1bb09fcc51092f25ac48,AWAITING REVIEW,2024-02-15T14:12:26.170000Z,2024-02-15T14:22:17.852000Z,,2024-02-15T14:22:18.555549Z,592.0,CVPIIDEI,1346,27,Male,White,United States,United States,United States,English,No,Full-Time,Not Applicable
6290c6d191ba8fb0309ebfc9,<b>I used to be more certain my beliefs were true.,Highly disagree,69/94,Highly disagree,1,1708006758065,1708006760876,\Highly disagree\,\Highly disagree\,\1\,1708006760504,1708006760504,2439,2439,2811,buq,qns-item-noham,69,401309,0.0-1.0-0.68,65ce1bb09fcc51092f25ac48,AWAITING REVIEW,2024-02-15T14:12:26.170000Z,2024-02-15T14:22:17.852000Z,,2024-02-15T14:22:18.555549Z,592.0,CVPIIDEI,1346,27,Male,White,United States,United States,United States,English,No,Full-Time,Not Applicable
6290c6d191ba8fb0309ebfc9,<b>It?s often pretty easy to figure out whether something is true based on who said it.,Highly disagree,70/94,Somewhat agree,3,1708006760877,1708006802612,\Somewhat agree\,\Somewhat agree\,\3\,1708006801380,1708006801380,40503,40503,41735,buq,qns-item-noham,70,443045,0.0-1.0-0.69,65ce1bb09fcc51092f25ac48,AWAITING REVIEW,2024-02-15T14:12:26.170000Z,2024-02-15T14:22:17.852000Z,,2024-02-15T14:22:18.555549Z,592.0,CVPIIDEI,1346,27,Male,White,United States,United States,United States,English,No,Full-Time,Not Applicable
6290c6d191ba8fb0309ebfc9,<b>I transform into a hummingbird every day.,Highly disagree,71/94,Highly disagree,1,1708006802614,1708006804726,\Highly disagree\,\Highly disagree\,\1\,1708006804324,1708006804324,1710,1710,2112,buq,qns-item-noham,71,445159,0.0-1.0-0.70,65ce1bb09fcc51092f25ac48,AWAITING REVIEW,2024-02-15T14:12:26.170000Z,2024-02-15T14:22:17.852000Z,,2024-02-15T14:22:18.555549Z,592.0,CVPIIDEI,1346,27,Male,White,United States,United States,United States,English,No,Full-Time,Not Applicable
6290c6d191ba8fb0309ebfc9,<b>I think a lot about arguments against my views.,Highly disagree,72/94,Somewhat agree,3,1708006804727,1708006808078,\Somewhat agree\,\Somewhat agree\,\3\,1708006807692,1708006807692,2965,2965,3351,buq,qns-item-noham,72,448511,0.0-1.0-0.71,65ce1bb09fcc51092f25ac48,AWAITING REVIEW,2024-02-15T14:12:26.170000Z,2024-02-15T14:22:17.852000Z,,2024-02-15T14:22:18.555549Z,592.0,CVPIIDEI,1346,27,Male,White,United States,United States,United States,English,No,Full-Time,Not Applicable
6290c6d191ba8fb0309ebfc9,<b>Personal experience is usually more important than facts and figures.,Highly disagree,73/94,Somewhat disagree,2,1708006808081,1708006813572,\Somewhat disagree\,\Somewhat disagree\,\2\,1708006812758,1708006812758,4677,4677,5491,buq,qns-item-noham,73,454005,0.0-1.0-0.72,65ce1bb09fcc51092f25ac48,AWAITING REVIEW,2024-02-15T14:12:26.170000Z,2024-02-15T14:22:17.852000Z,,2024-02-15T14:22:18.555549Z,592.0,CVPIIDEI,1346,27,Male,White,United States,United States,United States,English,No,Full-Time,Not Applicable
6290c6d191ba8fb0309ebfc9,<b>I?ve been tricked before about important matters.,Highly disagree,74/94,Somewhat agree,3,1708006813573,1708006820650,\Highly agree\,\Somewhat agree\,\4\,1708006819844,1708006820310,6271,6737,7077,buq,qns-item-noham,74,461083,0.0-1.0-0.73,65ce1bb09fcc51092f25ac48,AWAITING REVIEW,2024-02-15T14:12:26.170000Z,2024-02-15T14:22:17.852000Z,,2024-02-15T14:22:18.555549Z,592.0,CVPIIDEI,1346,27,Male,White,United States,United States,United States,English,No,Full-Time,Not Applicable
6290c6d191ba8fb0309ebfc9,<b>I would need to be totally wowed if I were to change my opinion of a restaurant I don?t like.,Highly disagree,75/94,Somewhat agree,3,1708006820652,1708006825998,\Somewhat agree\,\Somewhat agree\,\3\,1708006825626,1708006825626,4974,4974,5346,buq,qns-item-noham,75,466431,0.0-1.0-0.74,65ce1bb09fcc51092f25ac48,AWAITING REVIEW,2024-02-15T14:12:26.170000Z,2024-02-15T14:22:17.852000Z,,2024-02-15T14:22:18.555549Z,592.0,CVPIIDEI,1346,27,Male,White,United States,United States,United States,English,No,Full-Time,Not Applicable
6290c6d191ba8fb0309ebfc9,<b>I care a lot about politics.,Highly disagree,76/94,Highly agree,4,1708006825999,1708006827918,\Highly agree\,\Highly agree\,\4\,1708006827504,1708006827504,1505,1505,1919,buq,qns-item-noham,76,468351,0.0-1.0-0.75,65ce1bb09fcc51092f25ac48,AWAITING REVIEW,2024-02-15T14:12:26.170000Z,2024-02-15T14:22:17.852000Z,,2024-02-15T14:22:18.555549Z,592.0,CVPIIDEI,1346,27,Male,White,United States,United States,United States,English,No,Full-Time,Not Applicable
6290c6d191ba8fb0309ebfc9,<b>There are some topics I?ve been really wrong about.,Highly disagree,77/94,Somewhat agree,3,1708006827919,1708006830750,\Somewhat agree\,\Somewhat agree\,\3\,1708006830396,1708006830396,2477,2477,2831,buq,qns-item-noham,77,471183,0.0-1.0-0.76,65ce1bb09fcc51092f25ac48,AWAITING REVIEW,2024-02-15T14:12:26.170000Z,2024-02-15T14:22:17.852000Z,,2024-02-15T14:22:18.555549Z,592.0,CVPIIDEI,1346,27,Male,White,United States,United States,United States,English,No,Full-Time,Not Applicable
6290c6d191ba8fb0309ebfc9,<b>Most beliefs can be supported with at least some evidence.,Highly disagree,78/94,Somewhat agree,3,1708006830751,1708006835654,\Somewhat agree\,\Somewhat agree\,\3\,1708006835292,1708006835292,4541,4541,4903,buq,qns-item-noham,78,476087,0.0-1.0-0.77,65ce1bb09fcc51092f25ac48,AWAITING REVIEW,2024-02-15T14:12:26.170000Z,2024-02-15T14:22:17.852000Z,,2024-02-15T14:22:18.555549Z,592.0,CVPIIDEI,1346,27,Male,White,United States,United States,United States,English,No,Full-Time,Not Applicable
6290c6d191ba8fb0309ebfc9,<b>Other people make life out to be more complicated than it really is.,Highly disagree,79/94,Somewhat disagree,2,1708006835655,1708006838876,\Somewhat disagree\,\Somewhat disagree\,\2\,1708006838400,1708006838400,2745,2745,3221,buq,qns-item-noham,79,479309,0.0-1.0-0.78,65ce1bb09fcc51092f25ac48,AWAITING REVIEW,2024-02-15T14:12:26.170000Z,2024-02-15T14:22:17.852000Z,,2024-02-15T14:22:18.555549Z,592.0,CVPIIDEI,1346,27,Male,White,United States,United States,United States,English,No,Full-Time,Not Applicable
6290c6d191ba8fb0309ebfc9,"<b>Policy details don?t matter much, just the big picture.",Highly disagree,80/94,Highly disagree,1,1708006838878,1708006843366,\Highly disagree\,\Highly disagree\,\1\,1708006843008,1708006843008,4130,4130,4488,buq,qns-item-noham,80,483799,0.0-1.0-0.79,65ce1bb09fcc51092f25ac48,AWAITING REVIEW,2024-02-15T14:12:26.170000Z,2024-02-15T14:22:17.852000Z,,2024-02-15T14:22:18.555549Z,592.0,CVPIIDEI,1346,27,Male,White,United States,United States,United States,English,No,Full-Time,Not Applicable
6290c6d191ba8fb0309ebfc9,<b>I know my friends so well they can hardly ever surprise me.,Highly disagree,81/94,Somewhat agree,3,1708006843367,1708006846697,\Somewhat agree\,\Somewhat agree\,\3\,1708006846108,1708006846108,2741,2741,3330,buq,qns-item-noham,81,487130,0.0-1.0-0.80,65ce1bb09fcc51092f25ac48,AWAITING REVIEW,2024-02-15T14:12:26.170000Z,2024-02-15T14:22:17.852000Z,,2024-02-15T14:22:18.555549Z,592.0,CVPIIDEI,1346,27,Male,White,United States,United States,United States,English,No,Full-Time,Not Applicable
6290c6d191ba8fb0309ebfc9,<b>I do not often change my views on people.,Highly disagree,82/94,Somewhat agree,3,1708006846698,1708006851768,\Somewhat agree\,\Somewhat agree\,\3\,1708006850470,1708006850470,3772,3772,5070,buq,qns-item-noham,82,492201,0.0-1.0-0.81,65ce1bb09fcc51092f25ac48,AWAITING REVIEW,2024-02-15T14:12:26.170000Z,2024-02-15T14:22:17.852000Z,,2024-02-15T14:22:18.555549Z,592.0,CVPIIDEI,1346,27,Male,White,United States,United States,United States,English,No,Full-Time,Not Applicable
6290c6d191ba8fb0309ebfc9,<b>I?m more certain about my beliefs than I used to be.,Highly disagree,83/94,Highly agree,4,1708006851769,1708006855082,\Highly agree\,\Highly agree\,\4\,1708006854692,1708006854692,2923,2923,3313,buq,qns-item-noham,83,495515,0.0-1.0-0.82,65ce1bb09fcc51092f25ac48,AWAITING REVIEW,2024-02-15T14:12:26.170000Z,2024-02-15T14:22:17.852000Z,,2024-02-15T14:22:18.555549Z,592.0,CVPIIDEI,1346,27,Male,White,United States,United States,United States,English,No,Full-Time,Not Applicable
6290c6d191ba8fb0309ebfc9,<b>People often tell falsehoods unintentionally.,Highly disagree,84/94,Highly agree,4,1708006855083,1708006858132,\Highly agree\,\Highly agree\,\4\,1708006857657,1708006857657,2574,2574,3049,buq,qns-item-noham,84,498565,0.0-1.0-0.83,65ce1bb09fcc51092f25ac48,AWAITING REVIEW,2024-02-15T14:12:26.170000Z,2024-02-15T14:22:17.852000Z,,2024-02-15T14:22:18.555549Z,592.0,CVPIIDEI,1346,27,Male,White,United States,United States,United States,English,No,Full-Time,Not Applicable
6290c6d191ba8fb0309ebfc9,<b>Most people don?t know much about most things.,Highly disagree,85/94,Somewhat agree,3,1708006858133,1708006861284,\Somewhat agree\,\Somewhat agree\,\3\,1708006860676,1708006860676,2543,2543,3151,buq,qns-item-noham,85,501717,0.0-1.0-0.84,65ce1bb09fcc51092f25ac48,AWAITING REVIEW,2024-02-15T14:12:26.170000Z,2024-02-15T14:22:17.852000Z,,2024-02-15T14:22:18.555549Z,592.0,CVPIIDEI,1346,27,Male,White,United States,United States,United States,English,No,Full-Time,Not Applicable
6290c6d191ba8fb0309ebfc9,"<b>If I find out something new about someone, I easily change my views about them.",Highly disagree,86/94,Somewhat disagree,2,1708006861285,1708006879651,\Somewhat disagree\,\Somewhat disagree\,\2\,1708006879196,1708006879196,17911,17911,18366,buq,qns-item-noham,86,520084,0.0-1.0-0.85,65ce1bb09fcc51092f25ac48,AWAITING REVIEW,2024-02-15T14:12:26.170000Z,2024-02-15T14:22:17.852000Z,,2024-02-15T14:22:18.555549Z,592.0,CVPIIDEI,1346,27,Male,White,United States,United States,United States,English,No,Full-Time,Not Applicable
6290c6d191ba8fb0309ebfc9,<b>Having true beliefs is difficult.,Highly disagree,87/94,Somewhat agree,3,1708006879653,1708006882270,\Somewhat agree\,\Somewhat agree\,\3\,1708006881834,1708006881834,2181,2181,2617,buq,qns-item-noham,87,522703,0.0-1.0-0.86,65ce1bb09fcc51092f25ac48,AWAITING REVIEW,2024-02-15T14:12:26.170000Z,2024-02-15T14:22:17.852000Z,,2024-02-15T14:22:18.555549Z,592.0,CVPIIDEI,1346,27,Male,White,United States,United States,United States,English,No,Full-Time,Not Applicable
6290c6d191ba8fb0309ebfc9,<b>I don?t try new foods since I know I won?t like them.,Highly disagree,88/94,Highly disagree,1,1708006882271,1708006886330,\Highly disagree\,\Highly disagree\,\1\,1708006885428,1708006885428,3157,3157,4059,buq,qns-item-noham,88,526763,0.0-1.0-0.87,65ce1bb09fcc51092f25ac48,AWAITING REVIEW,2024-02-15T14:12:26.170000Z,2024-02-15T14:22:17.852000Z,,2024-02-15T14:22:18.555549Z,592.0,CVPIIDEI,1346,27,Male,White,United States,United States,United States,English,No,Full-Time,Not Applicable
6290c6d191ba8fb0309ebfc9,<b>Other people trick each other a lot.,Highly disagree,89/94,Somewhat agree,3,1708006886332,1708006888845,\Somewhat agree\,\Somewhat agree\,\3\,1708006888480,1708006888480,2148,2148,2513,buq,qns-item-noham,89,529278,0.0-1.0-0.88,65ce1bb09fcc51092f25ac48,AWAITING REVIEW,2024-02-15T14:12:26.170000Z,2024-02-15T14:22:17.852000Z,,2024-02-15T14:22:18.555549Z,592.0,CVPIIDEI,1346,27,Male,White,United States,United States,United States,English,No,Full-Time,Not Applicable
6290c6d191ba8fb0309ebfc9,<b>I would need to learn a lot about a person for my opinion of them to be swayed.,Highly disagree,90/94,Somewhat agree,3,1708006888847,1708006893013,\Somewhat agree\,\Somewhat agree\,\3\,1708006892604,1708006892604,3757,3757,4166,buq,qns-item-noham,90,533446,0.0-1.0-0.89,65ce1bb09fcc51092f25ac48,AWAITING REVIEW,2024-02-15T14:12:26.170000Z,2024-02-15T14:22:17.852000Z,,2024-02-15T14:22:18.555549Z,592.0,CVPIIDEI,1346,27,Male,White,United States,United States,United States,English,No,Full-Time,Not Applicable
6290c6d191ba8fb0309ebfc9,<b>People can?t usually trick me when it comes to topics I care about.,Highly disagree,91/94,Somewhat disagree,2,1708006893015,1708006907896,\Somewhat disagree\,\Somewhat disagree\,\2\,1708006906638,1708006906638,13623,13623,14881,buq,qns-item-noham,91,548329,0.0-1.0-0.90,65ce1bb09fcc51092f25ac48,AWAITING REVIEW,2024-02-15T14:12:26.170000Z,2024-02-15T14:22:17.852000Z,,2024-02-15T14:22:18.555549Z,592.0,CVPIIDEI,1346,27,Male,White,United States,United States,United States,English,No,Full-Time,Not Applicable
6290c6d191ba8fb0309ebfc9,<b>I do not often change my views on food.,Highly disagree,92/94,Somewhat disagree,2,1708006907898,1708006911218,\Somewhat disagree\,\Somewhat disagree\,\2\,1708006910674,1708006910674,2776,2776,3320,buq,qns-item-noham,92,551651,0.0-1.0-0.91,65ce1bb09fcc51092f25ac48,AWAITING REVIEW,2024-02-15T14:12:26.170000Z,2024-02-15T14:22:17.852000Z,,2024-02-15T14:22:18.555549Z,592.0,CVPIIDEI,1346,27,Male,White,United States,United States,United States,English,No,Full-Time,Not Applicable
6290c6d191ba8fb0309ebfc9,<b>Specific policies are often very important to me.,Highly disagree,93/94,Highly agree,4,1708006911219,1708006916164,\Somewhat agree\,\Highly agree\,\3\,1708006915285,1708006915613,4066,4394,4945,buq,qns-item-noham,93,556597,0.0-1.0-0.92,65ce1bb09fcc51092f25ac48,AWAITING REVIEW,2024-02-15T14:12:26.170000Z,2024-02-15T14:22:17.852000Z,,2024-02-15T14:22:18.555549Z,592.0,CVPIIDEI,1346,27,Male,White,United States,United States,United States,English,No,Full-Time,Not Applicable
6290c6d191ba8fb0309ebfc9,<b>Most people are woefully under-informed.,Highly disagree,94/94,Somewhat agree,3,1708006916165,1708006918972,\Somewhat agree\,\Somewhat agree\,\3\,1708006918592,1708006918592,2427,2427,2807,buq,qns-item-noham,94,559405,0.0-1.0-0.93,65ce1bb09fcc51092f25ac48,AWAITING REVIEW,2024-02-15T14:12:26.170000Z,2024-02-15T14:22:17.852000Z,,2024-02-15T14:22:18.555549Z,592.0,CVPIIDEI,1346,27,Male,White,United States,United States,United States,English,No,Full-Time,Not Applicable
6290c6d191ba8fb0309ebfc9,,,,,,,,,,,,,,,,,,,,,65ce1bb09fcc51092f25ac48,AWAITING REVIEW,2024-02-15T14:12:26.170000Z,2024-02-15T14:22:17.852000Z,,2024-02-15T14:22:18.555549Z,592.0,CVPIIDEI,1346,27,Male,White,United States,United States,United States,English,No,Full-Time,Not Applicable
