PROLIFIC_PID,Question,qns_options,quest_num,answer,answer_num,question_load_timestamp,next_btn_timestamp,text_selected,final_text_selected,option_num_selected,preview_timestamps,final_text_selected_time_stamp,rt_first_option_click,rt_final_option_click,rt_submit_click,questionnaire,trial_type,trial_index,time_elapsed,internal_node_id,Demographic_Submission id,Demographic_Status,Demographic_Started at,Demographic_Completed at,Demographic_Reviewed at,Demographic_Archived at,Demographic_Time taken,Demographic_Completion code,Demographic_Total approvals,Demographic_Age,Demographic_Sex,Demographic_Ethnicity simplified,Demographic_Country of birth,Demographic_Country of residence,Demographic_Nationality,Demographic_Language,Demographic_Student status,Demographic_Employment status,Demographic_Custom study tncs accepted at
611431b8dfc10c8bb1393e8c,<b>Knowing what?s true and knowing what to do about it are usually basically the same.,Highly disagree,1/94,Somewhat disagree,2,1708006296597,1708006310793,\Somewhat disagree\,\Somewhat disagree\,\2\,1708006307196,1708006307196,10599,10599,14196,buq,qns-item-noham,1,21099,0.0-1.0-0.0,65ce1b7c012b912a4261fdfb,AWAITING REVIEW,2024-02-15T14:11:15.777000Z,2024-02-15T14:22:21.014000Z,,2024-02-15T14:22:22.047755Z,666.0,CVPIIDEI,705,22,Female,White,United States,United States,United States,English,No,Full-Time,Not Applicable
611431b8dfc10c8bb1393e8c,<b>Most people just believe whatever is convenient for them.,Highly disagree,2/94,Somewhat agree,3,1708006310799,1708006315653,\Somewhat agree\,\Somewhat agree\,\3\,1708006314896,1708006314896,4097,4097,4854,buq,qns-item-noham,2,25959,0.0-1.0-0.1,65ce1b7c012b912a4261fdfb,AWAITING REVIEW,2024-02-15T14:11:15.777000Z,2024-02-15T14:22:21.014000Z,,2024-02-15T14:22:22.047755Z,666.0,CVPIIDEI,705,22,Female,White,United States,United States,United States,English,No,Full-Time,Not Applicable
611431b8dfc10c8bb1393e8c,<b>Having some big beliefs helps me sort out minor ones.,Highly disagree,3/94,Somewhat agree,3,1708006315655,1708006327412,\Somewhat disagree\,\Somewhat agree\,\2\,1708006324100,1708006326812,8445,11157,11757,buq,qns-item-noham,3,37718,0.0-1.0-0.2,65ce1b7c012b912a4261fdfb,AWAITING REVIEW,2024-02-15T14:11:15.777000Z,2024-02-15T14:22:21.014000Z,,2024-02-15T14:22:22.047755Z,666.0,CVPIIDEI,705,22,Female,White,United States,United States,United States,English,No,Full-Time,Not Applicable
611431b8dfc10c8bb1393e8c,<b>Political questions are usually pretty complicated.,Highly disagree,4/94,Highly agree,4,1708006327414,1708006330873,\Highly agree\,\Highly agree\,\4\,1708006330100,1708006330100,2686,2686,3459,buq,qns-item-noham,4,41179,0.0-1.0-0.3,65ce1b7c012b912a4261fdfb,AWAITING REVIEW,2024-02-15T14:11:15.777000Z,2024-02-15T14:22:21.014000Z,,2024-02-15T14:22:22.047755Z,666.0,CVPIIDEI,705,22,Female,White,United States,United States,United States,English,No,Full-Time,Not Applicable
611431b8dfc10c8bb1393e8c,<b>Figuring out what?s important in life requires learning a lot of facts.,Highly disagree,5/94,Somewhat disagree,2,1708006330875,1708006340332,\Somewhat disagree\,\Somewhat disagree\,\2\,1708006336092,1708006336092,5217,5217,9457,buq,qns-item-noham,5,50638,0.0-1.0-0.4,65ce1b7c012b912a4261fdfb,AWAITING REVIEW,2024-02-15T14:11:15.777000Z,2024-02-15T14:22:21.014000Z,,2024-02-15T14:22:22.047755Z,666.0,CVPIIDEI,705,22,Female,White,United States,United States,United States,English,No,Full-Time,Not Applicable
611431b8dfc10c8bb1393e8c,<b>It is difficult for me to remember the last time I was surprised by politics.,Highly disagree,6/94,Somewhat agree,3,1708006340334,1708006349780,\Somewhat agree\,\Somewhat agree\,\3\,1708006349089,1708006349089,8755,8755,9446,buq,qns-item-noham,6,60086,0.0-1.0-0.5,65ce1b7c012b912a4261fdfb,AWAITING REVIEW,2024-02-15T14:11:15.777000Z,2024-02-15T14:22:21.014000Z,,2024-02-15T14:22:22.047755Z,666.0,CVPIIDEI,705,22,Female,White,United States,United States,United States,English,No,Full-Time,Not Applicable
611431b8dfc10c8bb1393e8c,<b>People?s false beliefs are understandable.,Highly disagree,7/94,Somewhat disagree,2,1708006349782,1708006355117,\Somewhat disagree\,\Somewhat disagree\,\2\,1708006354360,1708006354360,4578,4578,5335,buq,qns-item-noham,7,65423,0.0-1.0-0.6,65ce1b7c012b912a4261fdfb,AWAITING REVIEW,2024-02-15T14:11:15.777000Z,2024-02-15T14:22:21.014000Z,,2024-02-15T14:22:22.047755Z,666.0,CVPIIDEI,705,22,Female,White,United States,United States,United States,English,No,Full-Time,Not Applicable
611431b8dfc10c8bb1393e8c,<b>I spend a lot of time trying to be informed about politics.,Highly disagree,8/94,Somewhat disagree,2,1708006355119,1708006359799,\Somewhat disagree\,\Somewhat disagree\,\2\,1708006359141,1708006359141,4022,4022,4680,buq,qns-item-noham,8,70105,0.0-1.0-0.7,65ce1b7c012b912a4261fdfb,AWAITING REVIEW,2024-02-15T14:11:15.777000Z,2024-02-15T14:22:21.014000Z,,2024-02-15T14:22:22.047755Z,666.0,CVPIIDEI,705,22,Female,White,United States,United States,United States,English,No,Full-Time,Not Applicable
611431b8dfc10c8bb1393e8c,<b>I think a lot about whether my beliefs are right.,Highly disagree,9/94,Somewhat agree,3,1708006359800,1708006366670,\Somewhat agree\,\Somewhat agree\,\3\,1708006363261,1708006363261,3461,3461,6870,buq,qns-item-noham,9,76976,0.0-1.0-0.8,65ce1b7c012b912a4261fdfb,AWAITING REVIEW,2024-02-15T14:11:15.777000Z,2024-02-15T14:22:21.014000Z,,2024-02-15T14:22:22.047755Z,666.0,CVPIIDEI,705,22,Female,White,United States,United States,United States,English,No,Full-Time,Not Applicable
611431b8dfc10c8bb1393e8c,<b>Statistics can be pretty misleading sometimes.,Highly disagree,10/94,Highly agree,4,1708006366673,1708006369421,\Highly agree\,\Highly agree\,\4\,1708006368771,1708006368771,2098,2098,2748,buq,qns-item-noham,10,79727,0.0-1.0-0.9,65ce1b7c012b912a4261fdfb,AWAITING REVIEW,2024-02-15T14:11:15.777000Z,2024-02-15T14:22:21.014000Z,,2024-02-15T14:22:22.047755Z,666.0,CVPIIDEI,705,22,Female,White,United States,United States,United States,English,No,Full-Time,Not Applicable
611431b8dfc10c8bb1393e8c,<b>I have lots of beliefs that I?m only sort of sure about.,Highly disagree,11/94,Somewhat disagree,2,1708006369423,1708006376404,\Somewhat disagree\,\Somewhat disagree\,\2\,1708006374981,1708006374981,5558,5558,6981,buq,qns-item-noham,11,86710,0.0-1.0-0.10,65ce1b7c012b912a4261fdfb,AWAITING REVIEW,2024-02-15T14:11:15.777000Z,2024-02-15T14:22:21.014000Z,,2024-02-15T14:22:22.047755Z,666.0,CVPIIDEI,705,22,Female,White,United States,United States,United States,English,No,Full-Time,Not Applicable
611431b8dfc10c8bb1393e8c,"<b>If I go to my favorite restaurant and the food is surprisingly bad, it reminds me there are many disappointments in life.",Highly disagree,12/94,Highly agree,4,1708006376406,1708006383231,\Highly agree\,\Highly agree\,\4\,1708006382305,1708006382305,5899,5899,6825,buq,qns-item-noham,12,93537,0.0-1.0-0.11,65ce1b7c012b912a4261fdfb,AWAITING REVIEW,2024-02-15T14:11:15.777000Z,2024-02-15T14:22:21.014000Z,,2024-02-15T14:22:22.047755Z,666.0,CVPIIDEI,705,22,Female,White,United States,United States,United States,English,No,Full-Time,Not Applicable
611431b8dfc10c8bb1393e8c,"<b>If you are paying attention, please select ?Somewhat agree?",Highly disagree,13/94,Somewhat agree,3,1708006383233,1708006386514,\Somewhat agree\,\Somewhat agree\,\3\,1708006385658,1708006385658,2425,2425,3281,buq,qns-item-noham,13,96820,0.0-1.0-0.12,65ce1b7c012b912a4261fdfb,AWAITING REVIEW,2024-02-15T14:11:15.777000Z,2024-02-15T14:22:21.014000Z,,2024-02-15T14:22:22.047755Z,666.0,CVPIIDEI,705,22,Female,White,United States,United States,United States,English,No,Full-Time,Not Applicable
611431b8dfc10c8bb1393e8c,"<b>When I talk to others, I often worry I?ll convince them of something I didn?t mean to.",Highly disagree,14/94,Somewhat agree,3,1708006386516,1708006394547,\Somewhat agree\,\Somewhat agree\,\3\,1708006393707,1708006393707,7191,7191,8031,buq,qns-item-noham,14,104853,0.0-1.0-0.13,65ce1b7c012b912a4261fdfb,AWAITING REVIEW,2024-02-15T14:11:15.777000Z,2024-02-15T14:22:21.014000Z,,2024-02-15T14:22:22.047755Z,666.0,CVPIIDEI,705,22,Female,White,United States,United States,United States,English,No,Full-Time,Not Applicable
611431b8dfc10c8bb1393e8c,<b>I would need to learn something utterly shocking about my party in order to change my political views.,Highly disagree,15/94,Somewhat disagree,2,1708006394549,1708006404490,\Somewhat disagree\,\Somewhat disagree\,\2\,1708006402544,1708006402544,7995,7995,9941,buq,qns-item-noham,15,114796,0.0-1.0-0.14,65ce1b7c012b912a4261fdfb,AWAITING REVIEW,2024-02-15T14:11:15.777000Z,2024-02-15T14:22:21.014000Z,,2024-02-15T14:22:22.047755Z,666.0,CVPIIDEI,705,22,Female,White,United States,United States,United States,English,No,Full-Time,Not Applicable
611431b8dfc10c8bb1393e8c,"<b>When I have new experiences, I tend to think of them as unique.",Highly disagree,16/94,Somewhat agree,3,1708006404492,1708006413443,\Somewhat agree\,\Somewhat agree\,\3\,1708006411798,1708006411798,7306,7306,8951,buq,qns-item-noham,16,123749,0.0-1.0-0.15,65ce1b7c012b912a4261fdfb,AWAITING REVIEW,2024-02-15T14:11:15.777000Z,2024-02-15T14:22:21.014000Z,,2024-02-15T14:22:22.047755Z,666.0,CVPIIDEI,705,22,Female,White,United States,United States,United States,English,No,Full-Time,Not Applicable
611431b8dfc10c8bb1393e8c,<b>I change my mind about specific policies pretty frequently.,Highly disagree,17/94,Somewhat disagree,2,1708006413445,1708006419061,\Somewhat disagree\,\Somewhat disagree\,\2\,1708006418422,1708006418422,4977,4977,5616,buq,qns-item-noham,17,129367,0.0-1.0-0.16,65ce1b7c012b912a4261fdfb,AWAITING REVIEW,2024-02-15T14:11:15.777000Z,2024-02-15T14:22:21.014000Z,,2024-02-15T14:22:22.047755Z,666.0,CVPIIDEI,705,22,Female,White,United States,United States,United States,English,No,Full-Time,Not Applicable
611431b8dfc10c8bb1393e8c,"<b>If a politician in my political party supports something I disagree with, I give them the benefit of the doubt, as such issues often involve hidden complexities that aren?t obvious.   ",Highly disagree,18/94,Highly disagree,1,1708006419062,1708006430396,\Highly disagree\,\Highly disagree\,\1\,1708006428719,1708006428719,9657,9657,11334,buq,qns-item-noham,18,140702,0.0-1.0-0.17,65ce1b7c012b912a4261fdfb,AWAITING REVIEW,2024-02-15T14:11:15.777000Z,2024-02-15T14:22:21.014000Z,,2024-02-15T14:22:22.047755Z,666.0,CVPIIDEI,705,22,Female,White,United States,United States,United States,English,No,Full-Time,Not Applicable
611431b8dfc10c8bb1393e8c,<b>People?s bad politics are usually motivated by hatefulness.,Highly disagree,19/94,Highly agree,4,1708006430398,1708006434745,\Highly agree\,\Highly agree\,\4\,1708006433803,1708006433803,3405,3405,4347,buq,qns-item-noham,19,145051,0.0-1.0-0.18,65ce1b7c012b912a4261fdfb,AWAITING REVIEW,2024-02-15T14:11:15.777000Z,2024-02-15T14:22:21.014000Z,,2024-02-15T14:22:22.047755Z,666.0,CVPIIDEI,705,22,Female,White,United States,United States,United States,English,No,Full-Time,Not Applicable
611431b8dfc10c8bb1393e8c,<b>I think a lot about how to reconcile my beliefs with one another.,Highly disagree,20/94,Somewhat agree,3,1708006434746,1708006442235,\Somewhat agree\,\Somewhat agree\,\3\,1708006441427,1708006441427,6681,6681,7489,buq,qns-item-noham,20,152541,0.0-1.0-0.19,65ce1b7c012b912a4261fdfb,AWAITING REVIEW,2024-02-15T14:11:15.777000Z,2024-02-15T14:22:21.014000Z,,2024-02-15T14:22:22.047755Z,666.0,CVPIIDEI,705,22,Female,White,United States,United States,United States,English,No,Full-Time,Not Applicable
611431b8dfc10c8bb1393e8c,<b>I might have false beliefs about important topics.,Highly disagree,21/94,Highly agree,4,1708006442237,1708006446932,\Highly agree\,\Highly agree\,\4\,1708006446191,1708006446191,3954,3954,4695,buq,qns-item-noham,21,157238,0.0-1.0-0.20,65ce1b7c012b912a4261fdfb,AWAITING REVIEW,2024-02-15T14:11:15.777000Z,2024-02-15T14:22:21.014000Z,,2024-02-15T14:22:22.047755Z,666.0,CVPIIDEI,705,22,Female,White,United States,United States,United States,English,No,Full-Time,Not Applicable
611431b8dfc10c8bb1393e8c,"<b>If a good friend of mine does something unexpected that upsets me, I feel like I don?t know them anymore.",Highly disagree,22/94,Highly agree,4,1708006446933,1708006453251,\Highly agree\,\Highly agree\,\4\,1708006451726,1708006451726,4793,4793,6318,buq,qns-item-noham,22,163557,0.0-1.0-0.21,65ce1b7c012b912a4261fdfb,AWAITING REVIEW,2024-02-15T14:11:15.777000Z,2024-02-15T14:22:21.014000Z,,2024-02-15T14:22:22.047755Z,666.0,CVPIIDEI,705,22,Female,White,United States,United States,United States,English,No,Full-Time,Not Applicable
611431b8dfc10c8bb1393e8c,<b>Other people?s beliefs are often incoherent.,Highly disagree,23/94,Somewhat agree,3,1708006453253,1708006460023,\Somewhat agree\,\Somewhat agree\,\3\,1708006459232,1708006459232,5979,5979,6770,buq,qns-item-noham,23,170329,0.0-1.0-0.22,65ce1b7c012b912a4261fdfb,AWAITING REVIEW,2024-02-15T14:11:15.777000Z,2024-02-15T14:22:21.014000Z,,2024-02-15T14:22:22.047755Z,666.0,CVPIIDEI,705,22,Female,White,United States,United States,United States,English,No,Full-Time,Not Applicable
611431b8dfc10c8bb1393e8c,"<b>Every now and then, a new experience will unsettle beliefs I?ve had for a while.",Highly disagree,24/94,Somewhat agree,3,1708006460026,1708006468911,\Somewhat agree\,\Somewhat agree\,\3\,1708006468270,1708006468270,8244,8244,8885,buq,qns-item-noham,24,179217,0.0-1.0-0.23,65ce1b7c012b912a4261fdfb,AWAITING REVIEW,2024-02-15T14:11:15.777000Z,2024-02-15T14:22:21.014000Z,,2024-02-15T14:22:22.047755Z,666.0,CVPIIDEI,705,22,Female,White,United States,United States,United States,English,No,Full-Time,Not Applicable
611431b8dfc10c8bb1393e8c,<b>Some policies I agree with in principle are so bad I don?t support them. ,Highly disagree,25/94,Somewhat agree,3,1708006468913,1708006488789,\Somewhat agree\,\Somewhat agree\,\3\,1708006488134,1708006488134,19221,19221,19876,buq,qns-item-noham,25,199095,0.0-1.0-0.24,65ce1b7c012b912a4261fdfb,AWAITING REVIEW,2024-02-15T14:11:15.777000Z,2024-02-15T14:22:21.014000Z,,2024-02-15T14:22:22.047755Z,666.0,CVPIIDEI,705,22,Female,White,United States,United States,United States,English,No,Full-Time,Not Applicable
611431b8dfc10c8bb1393e8c,<b>I?m pretty sure I?ve accidentally spread false information.,Highly disagree,26/94,Highly agree,4,1708006488790,1708006493163,\Somewhat agree\,\Highly agree\,\3\,1708006491516,1708006492539,2726,3749,4373,buq,qns-item-noham,26,203469,0.0-1.0-0.25,65ce1b7c012b912a4261fdfb,AWAITING REVIEW,2024-02-15T14:11:15.777000Z,2024-02-15T14:22:21.014000Z,,2024-02-15T14:22:22.047755Z,666.0,CVPIIDEI,705,22,Female,White,United States,United States,United States,English,No,Full-Time,Not Applicable
611431b8dfc10c8bb1393e8c,"<b>If I go to my favorite restaurant and the food is unexpectedly bad, then they have changed owners.",Highly disagree,27/94,Somewhat disagree,2,1708006493164,1708006501465,\Somewhat disagree\,\Somewhat disagree\,\2\,1708006500457,1708006500457,7293,7293,8301,buq,qns-item-noham,27,211771,0.0-1.0-0.26,65ce1b7c012b912a4261fdfb,AWAITING REVIEW,2024-02-15T14:11:15.777000Z,2024-02-15T14:22:21.014000Z,,2024-02-15T14:22:22.047755Z,666.0,CVPIIDEI,705,22,Female,White,United States,United States,United States,English,No,Full-Time,Not Applicable
611431b8dfc10c8bb1393e8c,"<b>In politics, it?s important to trust your friends and family.",Highly disagree,28/94,Highly disagree,1,1708006501467,1708006506116,\Highly disagree\,\Highly disagree\,\1\,1708006504773,1708006504773,3306,3306,4649,buq,qns-item-noham,28,216422,0.0-1.0-0.27,65ce1b7c012b912a4261fdfb,AWAITING REVIEW,2024-02-15T14:11:15.777000Z,2024-02-15T14:22:21.014000Z,,2024-02-15T14:22:22.047755Z,666.0,CVPIIDEI,705,22,Female,White,United States,United States,United States,English,No,Full-Time,Not Applicable
611431b8dfc10c8bb1393e8c,<b>It?s OK to have some conflicting beliefs.,Highly disagree,29/94,Highly agree,4,1708006506117,1708006509768,\Highly agree\,\Highly agree\,\4\,1708006508964,1708006508964,2847,2847,3651,buq,qns-item-noham,29,220074,0.0-1.0-0.28,65ce1b7c012b912a4261fdfb,AWAITING REVIEW,2024-02-15T14:11:15.777000Z,2024-02-15T14:22:21.014000Z,,2024-02-15T14:22:22.047755Z,666.0,CVPIIDEI,705,22,Female,White,United States,United States,United States,English,No,Full-Time,Not Applicable
611431b8dfc10c8bb1393e8c,<b>Listening to people I disagree with makes my opinions better.,Highly disagree,30/94,Highly agree,4,1708006509770,1708006516329,\Highly agree\,\Highly agree\,\4\,1708006515073,1708006515073,5303,5303,6559,buq,qns-item-noham,30,226635,0.0-1.0-0.29,65ce1b7c012b912a4261fdfb,AWAITING REVIEW,2024-02-15T14:11:15.777000Z,2024-02-15T14:22:21.014000Z,,2024-02-15T14:22:22.047755Z,666.0,CVPIIDEI,705,22,Female,White,United States,United States,United States,English,No,Full-Time,Not Applicable
611431b8dfc10c8bb1393e8c,<b>My moral compass sometimes makes it harder to determine what?s true.,Highly disagree,31/94,Highly agree,4,1708006516330,1708006521586,\Highly agree\,\Highly agree\,\4\,1708006520880,1708006520880,4550,4550,5256,buq,qns-item-noham,31,231892,0.0-1.0-0.30,65ce1b7c012b912a4261fdfb,AWAITING REVIEW,2024-02-15T14:11:15.777000Z,2024-02-15T14:22:21.014000Z,,2024-02-15T14:22:22.047755Z,666.0,CVPIIDEI,705,22,Female,White,United States,United States,United States,English,No,Full-Time,Not Applicable
611431b8dfc10c8bb1393e8c,<b>Evidence pointing in the wrong direction isn?t really evidence at all.,Highly disagree,32/94,Highly agree,4,1708006521587,1708006526580,\Highly agree\,\Highly agree\,\4\,1708006525941,1708006525941,4354,4354,4993,buq,qns-item-noham,32,236886,0.0-1.0-0.31,65ce1b7c012b912a4261fdfb,AWAITING REVIEW,2024-02-15T14:11:15.777000Z,2024-02-15T14:22:21.014000Z,,2024-02-15T14:22:22.047755Z,666.0,CVPIIDEI,705,22,Female,White,United States,United States,United States,English,No,Full-Time,Not Applicable
611431b8dfc10c8bb1393e8c,"<b>If the political party I support messes up, it makes me think politics is rotten.",Highly disagree,33/94,Highly agree,4,1708006526582,1708006532063,\Highly agree\,\Highly agree\,\4\,1708006531090,1708006531090,4508,4508,5481,buq,qns-item-noham,33,242369,0.0-1.0-0.32,65ce1b7c012b912a4261fdfb,AWAITING REVIEW,2024-02-15T14:11:15.777000Z,2024-02-15T14:22:21.014000Z,,2024-02-15T14:22:22.047755Z,666.0,CVPIIDEI,705,22,Female,White,United States,United States,United States,English,No,Full-Time,Not Applicable
611431b8dfc10c8bb1393e8c,<b>Lots of important topics can only really be understood by some groups of people.,Highly disagree,34/94,Highly agree,4,1708006532064,1708006539339,\Somewhat agree\,\Highly agree\,\3\,1708006537475,1708006538664,5411,6600,7275,buq,qns-item-noham,34,249645,0.0-1.0-0.33,65ce1b7c012b912a4261fdfb,AWAITING REVIEW,2024-02-15T14:11:15.777000Z,2024-02-15T14:22:21.014000Z,,2024-02-15T14:22:22.047755Z,666.0,CVPIIDEI,705,22,Female,White,United States,United States,United States,English,No,Full-Time,Not Applicable
611431b8dfc10c8bb1393e8c,<b>Having conflicting beliefs means you haven?t thought about them enough.,Highly disagree,35/94,Somewhat agree,3,1708006539340,1708006546742,\Somewhat agree\,\Somewhat agree\,\3\,1708006546050,1708006546050,6710,6710,7402,buq,qns-item-noham,35,257048,0.0-1.0-0.34,65ce1b7c012b912a4261fdfb,AWAITING REVIEW,2024-02-15T14:11:15.777000Z,2024-02-15T14:22:21.014000Z,,2024-02-15T14:22:22.047755Z,666.0,CVPIIDEI,705,22,Female,White,United States,United States,United States,English,No,Full-Time,Not Applicable
611431b8dfc10c8bb1393e8c,<b>I do not often change my political opinions.,Highly disagree,36/94,Highly agree,4,1708006546745,1708006550442,\Highly agree\,\Highly agree\,\4\,1708006549617,1708006549617,2872,2872,3697,buq,qns-item-noham,36,260748,0.0-1.0-0.35,65ce1b7c012b912a4261fdfb,AWAITING REVIEW,2024-02-15T14:11:15.777000Z,2024-02-15T14:22:21.014000Z,,2024-02-15T14:22:22.047755Z,666.0,CVPIIDEI,705,22,Female,White,United States,United States,United States,English,No,Full-Time,Not Applicable
611431b8dfc10c8bb1393e8c,<b>It?s difficult to not have at least some conflicting beliefs.,Highly disagree,37/94,Somewhat agree,3,1708006550443,1708006560140,\Somewhat disagree\,\Somewhat agree\,\2\,1708006557873,1708006559517,7430,9074,9697,buq,qns-item-noham,37,270446,0.0-1.0-0.36,65ce1b7c012b912a4261fdfb,AWAITING REVIEW,2024-02-15T14:11:15.777000Z,2024-02-15T14:22:21.014000Z,,2024-02-15T14:22:22.047755Z,666.0,CVPIIDEI,705,22,Female,White,United States,United States,United States,English,No,Full-Time,Not Applicable
611431b8dfc10c8bb1393e8c,<b>Wishful thinking causes a lot of problems.,Highly disagree,38/94,Somewhat agree,3,1708006560141,1708006565636,\Somewhat agree\,\Somewhat agree\,\3\,1708006565059,1708006565059,4918,4918,5495,buq,qns-item-noham,38,275943,0.0-1.0-0.37,65ce1b7c012b912a4261fdfb,AWAITING REVIEW,2024-02-15T14:11:15.777000Z,2024-02-15T14:22:21.014000Z,,2024-02-15T14:22:22.047755Z,666.0,CVPIIDEI,705,22,Female,White,United States,United States,United States,English,No,Full-Time,Not Applicable
611431b8dfc10c8bb1393e8c,<b>I judge a food item only once I try it many times.,Highly disagree,39/94,Highly disagree,1,1708006565638,1708006572232,\Highly disagree\,\Highly disagree\,\1\,1708006571240,1708006571240,5602,5602,6594,buq,qns-item-noham,39,282538,0.0-1.0-0.38,65ce1b7c012b912a4261fdfb,AWAITING REVIEW,2024-02-15T14:11:15.777000Z,2024-02-15T14:22:21.014000Z,,2024-02-15T14:22:22.047755Z,666.0,CVPIIDEI,705,22,Female,White,United States,United States,United States,English,No,Full-Time,Not Applicable
611431b8dfc10c8bb1393e8c,"<b>When a person holds conflicting beliefs, they should really try to figure out what?s wrong.",Highly disagree,40/94,Somewhat agree,3,1708006572233,1708006578305,\Somewhat agree\,\Somewhat agree\,\3\,1708006577364,1708006577364,5131,5131,6072,buq,qns-item-noham,40,288611,0.0-1.0-0.39,65ce1b7c012b912a4261fdfb,AWAITING REVIEW,2024-02-15T14:11:15.777000Z,2024-02-15T14:22:21.014000Z,,2024-02-15T14:22:22.047755Z,666.0,CVPIIDEI,705,22,Female,White,United States,United States,United States,English,No,Full-Time,Not Applicable
611431b8dfc10c8bb1393e8c,<b>Knowing what?s important in life is easy.,Highly disagree,41/94,Highly disagree,1,1708006578307,1708006582390,\Highly disagree\,\Highly disagree\,\1\,1708006581668,1708006581668,3361,3361,4083,buq,qns-item-noham,41,292696,0.0-1.0-0.40,65ce1b7c012b912a4261fdfb,AWAITING REVIEW,2024-02-15T14:11:15.777000Z,2024-02-15T14:22:21.014000Z,,2024-02-15T14:22:22.047755Z,666.0,CVPIIDEI,705,22,Female,White,United States,United States,United States,English,No,Full-Time,Not Applicable
611431b8dfc10c8bb1393e8c,<b>I swim across the Atlantic Ocean to get to work every day.,Highly disagree,42/94,Highly disagree,1,1708006582391,1708006585676,\Highly disagree\,\Highly disagree\,\1\,1708006584758,1708006584758,2367,2367,3285,buq,qns-item-noham,42,295982,0.0-1.0-0.41,65ce1b7c012b912a4261fdfb,AWAITING REVIEW,2024-02-15T14:11:15.777000Z,2024-02-15T14:22:21.014000Z,,2024-02-15T14:22:22.047755Z,666.0,CVPIIDEI,705,22,Female,White,United States,United States,United States,English,No,Full-Time,Not Applicable
611431b8dfc10c8bb1393e8c,"<b>Sometimes, you just have to ignore evidence that you know is wrong.",Highly disagree,43/94,Highly agree,4,1708006585677,1708006592056,\Highly agree\,\Highly agree\,\4\,1708006591300,1708006591300,5623,5623,6379,buq,qns-item-noham,43,302362,0.0-1.0-0.42,65ce1b7c012b912a4261fdfb,AWAITING REVIEW,2024-02-15T14:11:15.777000Z,2024-02-15T14:22:21.014000Z,,2024-02-15T14:22:22.047755Z,666.0,CVPIIDEI,705,22,Female,White,United States,United States,United States,English,No,Full-Time,Not Applicable
611431b8dfc10c8bb1393e8c,<b>I have had some false beliefs.,Highly disagree,44/94,Somewhat agree,3,1708006592058,1708006594970,\Somewhat agree\,\Somewhat agree\,\3\,1708006594297,1708006594297,2239,2239,2912,buq,qns-item-noham,44,305276,0.0-1.0-0.43,65ce1b7c012b912a4261fdfb,AWAITING REVIEW,2024-02-15T14:11:15.777000Z,2024-02-15T14:22:21.014000Z,,2024-02-15T14:22:22.047755Z,666.0,CVPIIDEI,705,22,Female,White,United States,United States,United States,English,No,Full-Time,Not Applicable
611431b8dfc10c8bb1393e8c,"<b>If one friend does something that upsets me, I sometimes start to distrust people in general.",Highly disagree,45/94,Highly agree,4,1708006594972,1708006601249,\Highly agree\,\Highly agree\,\4\,1708006600541,1708006600541,5569,5569,6277,buq,qns-item-noham,45,311555,0.0-1.0-0.44,65ce1b7c012b912a4261fdfb,AWAITING REVIEW,2024-02-15T14:11:15.777000Z,2024-02-15T14:22:21.014000Z,,2024-02-15T14:22:22.047755Z,666.0,CVPIIDEI,705,22,Female,White,United States,United States,United States,English,No,Full-Time,Not Applicable
611431b8dfc10c8bb1393e8c,<b>The facts about most important matters are easy to find.,Highly disagree,46/94,Somewhat agree,3,1708006601251,1708006607907,\Somewhat agree\,\Somewhat agree\,\3\,1708006607333,1708006607333,6082,6082,6656,buq,qns-item-noham,46,318213,0.0-1.0-0.45,65ce1b7c012b912a4261fdfb,AWAITING REVIEW,2024-02-15T14:11:15.777000Z,2024-02-15T14:22:21.014000Z,,2024-02-15T14:22:22.047755Z,666.0,CVPIIDEI,705,22,Female,White,United States,United States,United States,English,No,Full-Time,Not Applicable
611431b8dfc10c8bb1393e8c,<b>It?s better to know what?s true than to know what?s moral.,Highly disagree,47/94,Somewhat agree,3,1708006607909,1708006613551,\Somewhat agree\,\Somewhat agree\,\3\,1708006612876,1708006612876,4967,4967,5642,buq,qns-item-noham,47,323857,0.0-1.0-0.46,65ce1b7c012b912a4261fdfb,AWAITING REVIEW,2024-02-15T14:11:15.777000Z,2024-02-15T14:22:21.014000Z,,2024-02-15T14:22:22.047755Z,666.0,CVPIIDEI,705,22,Female,White,United States,United States,United States,English,No,Full-Time,Not Applicable
611431b8dfc10c8bb1393e8c,<b>I used to think the world was less complicated than I do now.,Highly disagree,48/94,Highly agree,4,1708006613552,1708006620674,\Highly agree\,\Highly agree\,\4\,1708006619883,1708006619883,6331,6331,7122,buq,qns-item-noham,48,330980,0.0-1.0-0.47,65ce1b7c012b912a4261fdfb,AWAITING REVIEW,2024-02-15T14:11:15.777000Z,2024-02-15T14:22:21.014000Z,,2024-02-15T14:22:22.047755Z,666.0,CVPIIDEI,705,22,Female,White,United States,United States,United States,English,No,Full-Time,Not Applicable
611431b8dfc10c8bb1393e8c,<b>People are usually completely right or completely wrong.,Highly disagree,49/94,Highly agree,4,1708006620676,1708006628471,\Somewhat agree\,\Highly agree\,\3\,1708006626012,1708006627765,5336,7089,7795,buq,qns-item-noham,49,338777,0.0-1.0-0.48,65ce1b7c012b912a4261fdfb,AWAITING REVIEW,2024-02-15T14:11:15.777000Z,2024-02-15T14:22:21.014000Z,,2024-02-15T14:22:22.047755Z,666.0,CVPIIDEI,705,22,Female,White,United States,United States,United States,English,No,Full-Time,Not Applicable
611431b8dfc10c8bb1393e8c,<b>I spend a lot of time considering alternatives to my beliefs.,Highly disagree,50/94,Somewhat disagree,2,1708006628473,1708006633434,\Somewhat disagree\,\Somewhat disagree\,\2\,1708006632827,1708006632827,4354,4354,4961,buq,qns-item-noham,50,343740,0.0-1.0-0.49,65ce1b7c012b912a4261fdfb,AWAITING REVIEW,2024-02-15T14:11:15.777000Z,2024-02-15T14:22:21.014000Z,,2024-02-15T14:22:22.047755Z,666.0,CVPIIDEI,705,22,Female,White,United States,United States,United States,English,No,Full-Time,Not Applicable
611431b8dfc10c8bb1393e8c,"<b>Political enemies need to be defeated, not convinced.",Highly disagree,51/94,Somewhat disagree,2,1708006633436,1708006651378,\Somewhat disagree\,\Somewhat disagree\,\2\,1708006650338,1708006650338,16902,16902,17942,buq,qns-item-noham,51,361684,0.0-1.0-0.50,65ce1b7c012b912a4261fdfb,AWAITING REVIEW,2024-02-15T14:11:15.777000Z,2024-02-15T14:22:21.014000Z,,2024-02-15T14:22:22.047755Z,666.0,CVPIIDEI,705,22,Female,White,United States,United States,United States,English,No,Full-Time,Not Applicable
611431b8dfc10c8bb1393e8c,<b>I form my political views only after meticulously gathering historical and present information about their policies.,Highly disagree,52/94,Somewhat agree,3,1708006651380,1708006659990,\Somewhat agree\,\Somewhat agree\,\3\,1708006659284,1708006659284,7904,7904,8610,buq,qns-item-noham,52,370296,0.0-1.0-0.51,65ce1b7c012b912a4261fdfb,AWAITING REVIEW,2024-02-15T14:11:15.777000Z,2024-02-15T14:22:21.014000Z,,2024-02-15T14:22:22.047755Z,666.0,CVPIIDEI,705,22,Female,White,United States,United States,United States,English,No,Full-Time,Not Applicable
611431b8dfc10c8bb1393e8c,<b>It is difficult for me to remember the last time I was surprised by politics.,Highly disagree,53/94,Somewhat agree,3,1708006659992,1708006668600,\Somewhat agree\,\Somewhat agree\,\3\,1708006667976,1708006667976,7984,7984,8608,buq,qns-item-noham,53,378906,0.0-1.0-0.52,65ce1b7c012b912a4261fdfb,AWAITING REVIEW,2024-02-15T14:11:15.777000Z,2024-02-15T14:22:21.014000Z,,2024-02-15T14:22:22.047755Z,666.0,CVPIIDEI,705,22,Female,White,United States,United States,United States,English,No,Full-Time,Not Applicable
611431b8dfc10c8bb1393e8c,"<b>When I find out I?m wrong, I think a lot about my related beliefs.",Highly disagree,54/94,Somewhat agree,3,1708006668601,1708006673513,\Somewhat agree\,\Somewhat agree\,\3\,1708006672774,1708006672774,4173,4173,4912,buq,qns-item-noham,54,383819,0.0-1.0-0.53,65ce1b7c012b912a4261fdfb,AWAITING REVIEW,2024-02-15T14:11:15.777000Z,2024-02-15T14:22:21.014000Z,,2024-02-15T14:22:22.047755Z,666.0,CVPIIDEI,705,22,Female,White,United States,United States,United States,English,No,Full-Time,Not Applicable
611431b8dfc10c8bb1393e8c,"<b>If the political party I support messes up, it makes me think you can?t trust anyone these days",Highly disagree,55/94,Somewhat agree,3,1708006673514,1708006678510,\Somewhat agree\,\Somewhat agree\,\3\,1708006677637,1708006677637,4123,4123,4996,buq,qns-item-noham,55,388816,0.0-1.0-0.54,65ce1b7c012b912a4261fdfb,AWAITING REVIEW,2024-02-15T14:11:15.777000Z,2024-02-15T14:22:21.014000Z,,2024-02-15T14:22:22.047755Z,666.0,CVPIIDEI,705,22,Female,White,United States,United States,United States,English,No,Full-Time,Not Applicable
611431b8dfc10c8bb1393e8c,<b>People?s brains turn off when they talk about politics.,Highly disagree,56/94,Somewhat agree,3,1708006678511,1708006682930,\Somewhat agree\,\Somewhat agree\,\3\,1708006682306,1708006682306,3795,3795,4419,buq,qns-item-noham,56,393236,0.0-1.0-0.55,65ce1b7c012b912a4261fdfb,AWAITING REVIEW,2024-02-15T14:11:15.777000Z,2024-02-15T14:22:21.014000Z,,2024-02-15T14:22:22.047755Z,666.0,CVPIIDEI,705,22,Female,White,United States,United States,United States,English,No,Full-Time,Not Applicable
611431b8dfc10c8bb1393e8c,<b>People who are wrong are usually just ignoring the obvious.,Highly disagree,57/94,Somewhat disagree,2,1708006682931,1708006689767,\Somewhat disagree\,\Somewhat disagree\,\2\,1708006689208,1708006689208,6277,6277,6836,buq,qns-item-noham,57,400073,0.0-1.0-0.56,65ce1b7c012b912a4261fdfb,AWAITING REVIEW,2024-02-15T14:11:15.777000Z,2024-02-15T14:22:21.014000Z,,2024-02-15T14:22:22.047755Z,666.0,CVPIIDEI,705,22,Female,White,United States,United States,United States,English,No,Full-Time,Not Applicable
611431b8dfc10c8bb1393e8c,"<b>When forming my views on people, I rely more on what they are like now rather than rely on my past experience with them.",Highly disagree,58/94,Somewhat agree,3,1708006689768,1708006701409,\Highly agree\,\Somewhat agree\,\4\,1708006699610,1708006700633,9842,10865,11641,buq,qns-item-noham,58,411715,0.0-1.0-0.57,65ce1b7c012b912a4261fdfb,AWAITING REVIEW,2024-02-15T14:11:15.777000Z,2024-02-15T14:22:21.014000Z,,2024-02-15T14:22:22.047755Z,666.0,CVPIIDEI,705,22,Female,White,United States,United States,United States,English,No,Full-Time,Not Applicable
611431b8dfc10c8bb1393e8c,"<b>When people contradict my beliefs, I usually know about their evidence already.",Highly disagree,59/94,Somewhat disagree,2,1708006701411,1708006708934,\Somewhat disagree\,\Somewhat disagree\,\2\,1708006708330,1708006708330,6919,6919,7523,buq,qns-item-noham,59,419240,0.0-1.0-0.58,65ce1b7c012b912a4261fdfb,AWAITING REVIEW,2024-02-15T14:11:15.777000Z,2024-02-15T14:22:21.014000Z,,2024-02-15T14:22:22.047755Z,666.0,CVPIIDEI,705,22,Female,White,United States,United States,United States,English,No,Full-Time,Not Applicable
611431b8dfc10c8bb1393e8c,<b>Figuring out what?s true and what?s false mainly requires a strong moral compass.,Highly disagree,60/94,Somewhat disagree,2,1708006708936,1708006718045,\Somewhat disagree\,\Somewhat disagree\,\2\,1708006713593,1708006713593,4657,4657,9109,buq,qns-item-noham,60,428351,0.0-1.0-0.59,65ce1b7c012b912a4261fdfb,AWAITING REVIEW,2024-02-15T14:11:15.777000Z,2024-02-15T14:22:21.014000Z,,2024-02-15T14:22:22.047755Z,666.0,CVPIIDEI,705,22,Female,White,United States,United States,United States,English,No,Full-Time,Not Applicable
611431b8dfc10c8bb1393e8c,"<b>Usually I?m wrong about simple things, not complicated ones.",Highly disagree,61/94,Somewhat disagree,2,1708006718047,1708006725289,\Somewhat disagree\,\Somewhat disagree\,\2\,1708006724316,1708006724316,6269,6269,7242,buq,qns-item-noham,61,435595,0.0-1.0-0.60,65ce1b7c012b912a4261fdfb,AWAITING REVIEW,2024-02-15T14:11:15.777000Z,2024-02-15T14:22:21.014000Z,,2024-02-15T14:22:22.047755Z,666.0,CVPIIDEI,705,22,Female,White,United States,United States,United States,English,No,Full-Time,Not Applicable
611431b8dfc10c8bb1393e8c,<b>Getting all the information I want about important things is hard.,Highly disagree,62/94,Highly agree,4,1708006725291,1708006729063,\Highly agree\,\Highly agree\,\4\,1708006728408,1708006728408,3117,3117,3772,buq,qns-item-noham,62,439369,0.0-1.0-0.61,65ce1b7c012b912a4261fdfb,AWAITING REVIEW,2024-02-15T14:11:15.777000Z,2024-02-15T14:22:21.014000Z,,2024-02-15T14:22:22.047755Z,666.0,CVPIIDEI,705,22,Female,White,United States,United States,United States,English,No,Full-Time,Not Applicable
611431b8dfc10c8bb1393e8c,<b>Most false beliefs spread because people try to deceive one another.,Highly disagree,63/94,Highly agree,4,1708006729065,1708006734098,\Highly agree\,\Highly agree\,\4\,1708006733343,1708006733343,4278,4278,5033,buq,qns-item-noham,63,444404,0.0-1.0-0.62,65ce1b7c012b912a4261fdfb,AWAITING REVIEW,2024-02-15T14:11:15.777000Z,2024-02-15T14:22:21.014000Z,,2024-02-15T14:22:22.047755Z,666.0,CVPIIDEI,705,22,Female,White,United States,United States,United States,English,No,Full-Time,Not Applicable
611431b8dfc10c8bb1393e8c,<b>I can usually find something to agree with in most people?s beliefs.,Highly disagree,64/94,Somewhat agree,3,1708006734100,1708006743238,\Somewhat agree\,\Somewhat agree\,\3\,1708006742165,1708006742165,8065,8065,9138,buq,qns-item-noham,64,453544,0.0-1.0-0.63,65ce1b7c012b912a4261fdfb,AWAITING REVIEW,2024-02-15T14:11:15.777000Z,2024-02-15T14:22:21.014000Z,,2024-02-15T14:22:22.047755Z,666.0,CVPIIDEI,705,22,Female,White,United States,United States,United States,English,No,Full-Time,Not Applicable
611431b8dfc10c8bb1393e8c,<b>I only form my views of people once I get to know them very well.,Highly disagree,65/94,Highly disagree,1,1708006743240,1708006750589,\Highly disagree\,\Highly disagree\,\1\,1708006749863,1708006749863,6623,6623,7349,buq,qns-item-noham,65,460895,0.0-1.0-0.64,65ce1b7c012b912a4261fdfb,AWAITING REVIEW,2024-02-15T14:11:15.777000Z,2024-02-15T14:22:21.014000Z,,2024-02-15T14:22:22.047755Z,666.0,CVPIIDEI,705,22,Female,White,United States,United States,United States,English,No,Full-Time,Not Applicable
611431b8dfc10c8bb1393e8c,"<b>When people tell me important things about the world, I usually believe them.",Highly disagree,66/94,Somewhat agree,3,1708006750591,1708006754931,\Somewhat agree\,\Somewhat agree\,\3\,1708006754324,1708006754324,3733,3733,4340,buq,qns-item-noham,66,465237,0.0-1.0-0.65,65ce1b7c012b912a4261fdfb,AWAITING REVIEW,2024-02-15T14:11:15.777000Z,2024-02-15T14:22:21.014000Z,,2024-02-15T14:22:22.047755Z,666.0,CVPIIDEI,705,22,Female,White,United States,United States,United States,English,No,Full-Time,Not Applicable
611431b8dfc10c8bb1393e8c,"<b>If a friend does something that upsets me, it reminds me what an unpredictable place the world is.",Highly disagree,67/94,Highly agree,4,1708006754933,1708006758953,\Highly agree\,\Highly agree\,\4\,1708006757899,1708006757899,2966,2966,4020,buq,qns-item-noham,67,469259,0.0-1.0-0.66,65ce1b7c012b912a4261fdfb,AWAITING REVIEW,2024-02-15T14:11:15.777000Z,2024-02-15T14:22:21.014000Z,,2024-02-15T14:22:22.047755Z,666.0,CVPIIDEI,705,22,Female,White,United States,United States,United States,English,No,Full-Time,Not Applicable
611431b8dfc10c8bb1393e8c,<b>People tend to believe whatever is good for their friends.,Highly disagree,68/94,Somewhat agree,3,1708006758955,1708006765101,\Somewhat agree\,\Somewhat agree\,\3\,1708006764461,1708006764461,5506,5506,6146,buq,qns-item-noham,68,475407,0.0-1.0-0.67,65ce1b7c012b912a4261fdfb,AWAITING REVIEW,2024-02-15T14:11:15.777000Z,2024-02-15T14:22:21.014000Z,,2024-02-15T14:22:22.047755Z,666.0,CVPIIDEI,705,22,Female,White,United States,United States,United States,English,No,Full-Time,Not Applicable
611431b8dfc10c8bb1393e8c,<b>I used to be more certain my beliefs were true.,Highly disagree,69/94,Highly agree,4,1708006765102,1708006771849,\Somewhat agree\,\Highly agree\,\3\,1708006769599,1708006770986,4497,5884,6747,buq,qns-item-noham,69,482155,0.0-1.0-0.68,65ce1b7c012b912a4261fdfb,AWAITING REVIEW,2024-02-15T14:11:15.777000Z,2024-02-15T14:22:21.014000Z,,2024-02-15T14:22:22.047755Z,666.0,CVPIIDEI,705,22,Female,White,United States,United States,United States,English,No,Full-Time,Not Applicable
611431b8dfc10c8bb1393e8c,<b>It?s often pretty easy to figure out whether something is true based on who said it.,Highly disagree,70/94,Somewhat disagree,2,1708006771850,1708006779018,\Somewhat disagree\,\Somewhat disagree\,\2\,1708006778227,1708006778227,6377,6377,7168,buq,qns-item-noham,70,489324,0.0-1.0-0.69,65ce1b7c012b912a4261fdfb,AWAITING REVIEW,2024-02-15T14:11:15.777000Z,2024-02-15T14:22:21.014000Z,,2024-02-15T14:22:22.047755Z,666.0,CVPIIDEI,705,22,Female,White,United States,United States,United States,English,No,Full-Time,Not Applicable
611431b8dfc10c8bb1393e8c,<b>I transform into a hummingbird every day.,Highly disagree,71/94,Highly disagree,1,1708006779019,1708006782079,\Highly disagree\,\Highly disagree\,\1\,1708006781306,1708006781306,2287,2287,3060,buq,qns-item-noham,71,492385,0.0-1.0-0.70,65ce1b7c012b912a4261fdfb,AWAITING REVIEW,2024-02-15T14:11:15.777000Z,2024-02-15T14:22:21.014000Z,,2024-02-15T14:22:22.047755Z,666.0,CVPIIDEI,705,22,Female,White,United States,United States,United States,English,No,Full-Time,Not Applicable
611431b8dfc10c8bb1393e8c,<b>I think a lot about arguments against my views.,Highly disagree,72/94,Somewhat disagree,2,1708006782080,1708006789676,\Somewhat disagree\,\Somewhat disagree\,\2\,1708006788299,1708006788299,6219,6219,7596,buq,qns-item-noham,72,499982,0.0-1.0-0.71,65ce1b7c012b912a4261fdfb,AWAITING REVIEW,2024-02-15T14:11:15.777000Z,2024-02-15T14:22:21.014000Z,,2024-02-15T14:22:22.047755Z,666.0,CVPIIDEI,705,22,Female,White,United States,United States,United States,English,No,Full-Time,Not Applicable
611431b8dfc10c8bb1393e8c,<b>Personal experience is usually more important than facts and figures.,Highly disagree,73/94,Somewhat disagree,2,1708006789677,1708006800121,\Somewhat disagree\,\Somewhat disagree\,\2\,1708006799274,1708006799274,9597,9597,10444,buq,qns-item-noham,73,510427,0.0-1.0-0.72,65ce1b7c012b912a4261fdfb,AWAITING REVIEW,2024-02-15T14:11:15.777000Z,2024-02-15T14:22:21.014000Z,,2024-02-15T14:22:22.047755Z,666.0,CVPIIDEI,705,22,Female,White,United States,United States,United States,English,No,Full-Time,Not Applicable
611431b8dfc10c8bb1393e8c,<b>I?ve been tricked before about important matters.,Highly disagree,74/94,Highly agree,4,1708006800122,1708006804026,\Highly agree\,\Highly agree\,\4\,1708006803286,1708006803286,3164,3164,3904,buq,qns-item-noham,74,514332,0.0-1.0-0.73,65ce1b7c012b912a4261fdfb,AWAITING REVIEW,2024-02-15T14:11:15.777000Z,2024-02-15T14:22:21.014000Z,,2024-02-15T14:22:22.047755Z,666.0,CVPIIDEI,705,22,Female,White,United States,United States,United States,English,No,Full-Time,Not Applicable
611431b8dfc10c8bb1393e8c,<b>I would need to be totally wowed if I were to change my opinion of a restaurant I don?t like.,Highly disagree,75/94,Highly agree,4,1708006804028,1708006811280,\Highly agree\,\Highly agree\,\4\,1708006810654,1708006810654,6626,6626,7252,buq,qns-item-noham,75,521586,0.0-1.0-0.74,65ce1b7c012b912a4261fdfb,AWAITING REVIEW,2024-02-15T14:11:15.777000Z,2024-02-15T14:22:21.014000Z,,2024-02-15T14:22:22.047755Z,666.0,CVPIIDEI,705,22,Female,White,United States,United States,United States,English,No,Full-Time,Not Applicable
611431b8dfc10c8bb1393e8c,<b>I care a lot about politics.,Highly disagree,76/94,Somewhat disagree,2,1708006811282,1708006815141,\Somewhat disagree\,\Somewhat disagree\,\2\,1708006814501,1708006814501,3219,3219,3859,buq,qns-item-noham,76,525447,0.0-1.0-0.75,65ce1b7c012b912a4261fdfb,AWAITING REVIEW,2024-02-15T14:11:15.777000Z,2024-02-15T14:22:21.014000Z,,2024-02-15T14:22:22.047755Z,666.0,CVPIIDEI,705,22,Female,White,United States,United States,United States,English,No,Full-Time,Not Applicable
611431b8dfc10c8bb1393e8c,<b>There are some topics I?ve been really wrong about.,Highly disagree,77/94,Highly agree,4,1708006815142,1708006819954,\Highly agree\,\Highly agree\,\4\,1708006819397,1708006819397,4255,4255,4812,buq,qns-item-noham,77,530260,0.0-1.0-0.76,65ce1b7c012b912a4261fdfb,AWAITING REVIEW,2024-02-15T14:11:15.777000Z,2024-02-15T14:22:21.014000Z,,2024-02-15T14:22:22.047755Z,666.0,CVPIIDEI,705,22,Female,White,United States,United States,United States,English,No,Full-Time,Not Applicable
611431b8dfc10c8bb1393e8c,<b>Most beliefs can be supported with at least some evidence.,Highly disagree,78/94,Highly agree,4,1708006819956,1708006830226,\Highly agree\,\Highly agree\,\4\,1708006829452,1708006829452,9496,9496,10270,buq,qns-item-noham,78,540532,0.0-1.0-0.77,65ce1b7c012b912a4261fdfb,AWAITING REVIEW,2024-02-15T14:11:15.777000Z,2024-02-15T14:22:21.014000Z,,2024-02-15T14:22:22.047755Z,666.0,CVPIIDEI,705,22,Female,White,United States,United States,United States,English,No,Full-Time,Not Applicable
611431b8dfc10c8bb1393e8c,<b>Other people make life out to be more complicated than it really is.,Highly disagree,79/94,Somewhat agree,3,1708006830227,1708006836481,\Somewhat agree\,\Somewhat agree\,\3\,1708006835706,1708006835706,5479,5479,6254,buq,qns-item-noham,79,546787,0.0-1.0-0.78,65ce1b7c012b912a4261fdfb,AWAITING REVIEW,2024-02-15T14:11:15.777000Z,2024-02-15T14:22:21.014000Z,,2024-02-15T14:22:22.047755Z,666.0,CVPIIDEI,705,22,Female,White,United States,United States,United States,English,No,Full-Time,Not Applicable
611431b8dfc10c8bb1393e8c,"<b>Policy details don?t matter much, just the big picture.",Highly disagree,80/94,Highly disagree,1,1708006836482,1708006844250,\Highly disagree\,\Highly disagree\,\1\,1708006843578,1708006843578,7096,7096,7768,buq,qns-item-noham,80,554556,0.0-1.0-0.79,65ce1b7c012b912a4261fdfb,AWAITING REVIEW,2024-02-15T14:11:15.777000Z,2024-02-15T14:22:21.014000Z,,2024-02-15T14:22:22.047755Z,666.0,CVPIIDEI,705,22,Female,White,United States,United States,United States,English,No,Full-Time,Not Applicable
611431b8dfc10c8bb1393e8c,<b>I know my friends so well they can hardly ever surprise me.,Highly disagree,81/94,Somewhat agree,3,1708006844251,1708006849459,\Somewhat agree\,\Somewhat agree\,\3\,1708006848836,1708006848836,4585,4585,5208,buq,qns-item-noham,81,559765,0.0-1.0-0.80,65ce1b7c012b912a4261fdfb,AWAITING REVIEW,2024-02-15T14:11:15.777000Z,2024-02-15T14:22:21.014000Z,,2024-02-15T14:22:22.047755Z,666.0,CVPIIDEI,705,22,Female,White,United States,United States,United States,English,No,Full-Time,Not Applicable
611431b8dfc10c8bb1393e8c,<b>I do not often change my views on people.,Highly disagree,82/94,Somewhat agree,3,1708006849461,1708006854453,\Somewhat agree\,\Somewhat agree\,\3\,1708006853829,1708006853829,4368,4368,4992,buq,qns-item-noham,82,564759,0.0-1.0-0.81,65ce1b7c012b912a4261fdfb,AWAITING REVIEW,2024-02-15T14:11:15.777000Z,2024-02-15T14:22:21.014000Z,,2024-02-15T14:22:22.047755Z,666.0,CVPIIDEI,705,22,Female,White,United States,United States,United States,English,No,Full-Time,Not Applicable
611431b8dfc10c8bb1393e8c,<b>I?m more certain about my beliefs than I used to be.,Highly disagree,83/94,Somewhat disagree,2,1708006854455,1708006860745,\Somewhat disagree\,\Somewhat disagree\,\2\,1708006858768,1708006858768,4313,4313,6290,buq,qns-item-noham,83,571051,0.0-1.0-0.82,65ce1b7c012b912a4261fdfb,AWAITING REVIEW,2024-02-15T14:11:15.777000Z,2024-02-15T14:22:21.014000Z,,2024-02-15T14:22:22.047755Z,666.0,CVPIIDEI,705,22,Female,White,United States,United States,United States,English,No,Full-Time,Not Applicable
611431b8dfc10c8bb1393e8c,<b>People often tell falsehoods unintentionally.,Highly disagree,84/94,Highly agree,4,1708006860746,1708006864936,\Highly agree\,\Highly agree\,\4\,1708006864244,1708006864244,3498,3498,4190,buq,qns-item-noham,84,575242,0.0-1.0-0.83,65ce1b7c012b912a4261fdfb,AWAITING REVIEW,2024-02-15T14:11:15.777000Z,2024-02-15T14:22:21.014000Z,,2024-02-15T14:22:22.047755Z,666.0,CVPIIDEI,705,22,Female,White,United States,United States,United States,English,No,Full-Time,Not Applicable
611431b8dfc10c8bb1393e8c,<b>Most people don?t know much about most things.,Highly disagree,85/94,Highly agree,4,1708006864937,1708006868050,\Highly agree\,\Highly agree\,\4\,1708006867276,1708006867276,2339,2339,3113,buq,qns-item-noham,85,578356,0.0-1.0-0.84,65ce1b7c012b912a4261fdfb,AWAITING REVIEW,2024-02-15T14:11:15.777000Z,2024-02-15T14:22:21.014000Z,,2024-02-15T14:22:22.047755Z,666.0,CVPIIDEI,705,22,Female,White,United States,United States,United States,English,No,Full-Time,Not Applicable
611431b8dfc10c8bb1393e8c,"<b>If I find out something new about someone, I easily change my views about them.",Highly disagree,86/94,Somewhat disagree,2,1708006868052,1708006878921,\Somewhat disagree\,\Somewhat disagree\,\2\,1708006875154,1708006875154,7102,7102,10869,buq,qns-item-noham,86,589227,0.0-1.0-0.85,65ce1b7c012b912a4261fdfb,AWAITING REVIEW,2024-02-15T14:11:15.777000Z,2024-02-15T14:22:21.014000Z,,2024-02-15T14:22:22.047755Z,666.0,CVPIIDEI,705,22,Female,White,United States,United States,United States,English,No,Full-Time,Not Applicable
611431b8dfc10c8bb1393e8c,<b>Having true beliefs is difficult.,Highly disagree,87/94,Somewhat agree,3,1708006878922,1708006881749,\Somewhat agree\,\Somewhat agree\,\3\,1708006881175,1708006881175,2253,2253,2827,buq,qns-item-noham,87,592055,0.0-1.0-0.86,65ce1b7c012b912a4261fdfb,AWAITING REVIEW,2024-02-15T14:11:15.777000Z,2024-02-15T14:22:21.014000Z,,2024-02-15T14:22:22.047755Z,666.0,CVPIIDEI,705,22,Female,White,United States,United States,United States,English,No,Full-Time,Not Applicable
611431b8dfc10c8bb1393e8c,<b>I don?t try new foods since I know I won?t like them.,Highly disagree,88/94,Highly agree,4,1708006881750,1708006885574,\Highly agree\,\Highly agree\,\4\,1708006884967,1708006884967,3217,3217,3824,buq,qns-item-noham,88,595880,0.0-1.0-0.87,65ce1b7c012b912a4261fdfb,AWAITING REVIEW,2024-02-15T14:11:15.777000Z,2024-02-15T14:22:21.014000Z,,2024-02-15T14:22:22.047755Z,666.0,CVPIIDEI,705,22,Female,White,United States,United States,United States,English,No,Full-Time,Not Applicable
611431b8dfc10c8bb1393e8c,<b>Other people trick each other a lot.,Highly disagree,89/94,Highly agree,4,1708006885576,1708006888936,\Highly agree\,\Highly agree\,\4\,1708006888398,1708006888398,2822,2822,3360,buq,qns-item-noham,89,599242,0.0-1.0-0.88,65ce1b7c012b912a4261fdfb,AWAITING REVIEW,2024-02-15T14:11:15.777000Z,2024-02-15T14:22:21.014000Z,,2024-02-15T14:22:22.047755Z,666.0,CVPIIDEI,705,22,Female,White,United States,United States,United States,English,No,Full-Time,Not Applicable
611431b8dfc10c8bb1393e8c,<b>I would need to learn a lot about a person for my opinion of them to be swayed.,Highly disagree,90/94,Somewhat agree,3,1708006888937,1708006896101,\Somewhat agree\,\Somewhat agree\,\3\,1708006895409,1708006895409,6472,6472,7164,buq,qns-item-noham,90,606407,0.0-1.0-0.89,65ce1b7c012b912a4261fdfb,AWAITING REVIEW,2024-02-15T14:11:15.777000Z,2024-02-15T14:22:21.014000Z,,2024-02-15T14:22:22.047755Z,666.0,CVPIIDEI,705,22,Female,White,United States,United States,United States,English,No,Full-Time,Not Applicable
611431b8dfc10c8bb1393e8c,<b>People can?t usually trick me when it comes to topics I care about.,Highly disagree,91/94,Highly agree,4,1708006896104,1708006901932,\Highly agree\,\Highly agree\,\4\,1708006901241,1708006901241,5137,5137,5828,buq,qns-item-noham,91,612238,0.0-1.0-0.90,65ce1b7c012b912a4261fdfb,AWAITING REVIEW,2024-02-15T14:11:15.777000Z,2024-02-15T14:22:21.014000Z,,2024-02-15T14:22:22.047755Z,666.0,CVPIIDEI,705,22,Female,White,United States,United States,United States,English,No,Full-Time,Not Applicable
611431b8dfc10c8bb1393e8c,<b>I do not often change my views on food.,Highly disagree,92/94,Highly agree,4,1708006901934,1708006904300,\Highly agree\,\Highly agree\,\4\,1708006903591,1708006903591,1657,1657,2366,buq,qns-item-noham,92,614606,0.0-1.0-0.91,65ce1b7c012b912a4261fdfb,AWAITING REVIEW,2024-02-15T14:11:15.777000Z,2024-02-15T14:22:21.014000Z,,2024-02-15T14:22:22.047755Z,666.0,CVPIIDEI,705,22,Female,White,United States,United States,United States,English,No,Full-Time,Not Applicable
611431b8dfc10c8bb1393e8c,<b>Specific policies are often very important to me.,Highly disagree,93/94,Highly agree,4,1708006904301,1708006907722,\Highly agree\,\Highly agree\,\4\,1708006906984,1708006906984,2683,2683,3421,buq,qns-item-noham,93,618028,0.0-1.0-0.92,65ce1b7c012b912a4261fdfb,AWAITING REVIEW,2024-02-15T14:11:15.777000Z,2024-02-15T14:22:21.014000Z,,2024-02-15T14:22:22.047755Z,666.0,CVPIIDEI,705,22,Female,White,United States,United States,United States,English,No,Full-Time,Not Applicable
611431b8dfc10c8bb1393e8c,<b>Most people are woefully under-informed.,Highly disagree,94/94,Highly agree,4,1708006907723,1708006911229,\Highly agree\,\Highly agree\,\4\,1708006910505,1708006910505,2782,2782,3506,buq,qns-item-noham,94,621535,0.0-1.0-0.93,65ce1b7c012b912a4261fdfb,AWAITING REVIEW,2024-02-15T14:11:15.777000Z,2024-02-15T14:22:21.014000Z,,2024-02-15T14:22:22.047755Z,666.0,CVPIIDEI,705,22,Female,White,United States,United States,United States,English,No,Full-Time,Not Applicable
611431b8dfc10c8bb1393e8c,,,,,,,,,,,,,,,,,,,,,65ce1b7c012b912a4261fdfb,AWAITING REVIEW,2024-02-15T14:11:15.777000Z,2024-02-15T14:22:21.014000Z,,2024-02-15T14:22:22.047755Z,666.0,CVPIIDEI,705,22,Female,White,United States,United States,United States,English,No,Full-Time,Not Applicable
