PROLIFIC_PID,Question,qns_options,quest_num,answer,answer_num,question_load_timestamp,next_btn_timestamp,text_selected,final_text_selected,option_num_selected,preview_timestamps,final_text_selected_time_stamp,rt_first_option_click,rt_final_option_click,rt_submit_click,questionnaire,trial_type,trial_index,time_elapsed,internal_node_id,Demographic_Submission id,Demographic_Status,Demographic_Started at,Demographic_Completed at,Demographic_Reviewed at,Demographic_Archived at,Demographic_Time taken,Demographic_Completion code,Demographic_Total approvals,Demographic_Age,Demographic_Sex,Demographic_Ethnicity simplified,Demographic_Country of birth,Demographic_Country of residence,Demographic_Nationality,Demographic_Language,Demographic_Student status,Demographic_Employment status,Demographic_Custom study tncs accepted at
6109cbe82b017714005d9a07,<b>Knowing what?s true and knowing what to do about it are usually basically the same.,Highly disagree,1/94,Somewhat disagree,2,1708006343772,1708006360741,\Somewhat disagree\,\Somewhat disagree\,\2\,1708006359772,1708006359772,16000,16000,16969,buq,qns-item-noham,1,27123,0.0-1.0-0.0,65ce1b807fba858c567148be,AWAITING REVIEW,2024-02-15T14:11:16.264000Z,2024-02-15T14:24:03.040000Z,,2024-02-15T14:24:03.558325Z,767.0,CVPIIDEI,466,22,Female,Mixed,United States,United States,United States,English,DATA_EXPIRED,DATA_EXPIRED,Not Applicable
6109cbe82b017714005d9a07,<b>Most people just believe whatever is convenient for them.,Highly disagree,2/94,Somewhat disagree,2,1708006360742,1708006366073,\Somewhat disagree\,\Somewhat disagree\,\2\,1708006365483,1708006365483,4741,4741,5331,buq,qns-item-noham,2,32455,0.0-1.0-0.1,65ce1b807fba858c567148be,AWAITING REVIEW,2024-02-15T14:11:16.264000Z,2024-02-15T14:24:03.040000Z,,2024-02-15T14:24:03.558325Z,767.0,CVPIIDEI,466,22,Female,Mixed,United States,United States,United States,English,DATA_EXPIRED,DATA_EXPIRED,Not Applicable
6109cbe82b017714005d9a07,<b>Having some big beliefs helps me sort out minor ones.,Highly disagree,3/94,Highly agree,4,1708006366078,1708006371835,\Highly agree\,\Highly agree\,\4\,1708006371352,1708006371352,5274,5274,5757,buq,qns-item-noham,3,38217,0.0-1.0-0.2,65ce1b807fba858c567148be,AWAITING REVIEW,2024-02-15T14:11:16.264000Z,2024-02-15T14:24:03.040000Z,,2024-02-15T14:24:03.558325Z,767.0,CVPIIDEI,466,22,Female,Mixed,United States,United States,United States,English,DATA_EXPIRED,DATA_EXPIRED,Not Applicable
6109cbe82b017714005d9a07,<b>Political questions are usually pretty complicated.,Highly disagree,4/94,Highly agree,4,1708006371837,1708006375427,\Highly agree\,\Highly agree\,\4\,1708006375038,1708006375038,3201,3201,3590,buq,qns-item-noham,4,41809,0.0-1.0-0.3,65ce1b807fba858c567148be,AWAITING REVIEW,2024-02-15T14:11:16.264000Z,2024-02-15T14:24:03.040000Z,,2024-02-15T14:24:03.558325Z,767.0,CVPIIDEI,466,22,Female,Mixed,United States,United States,United States,English,DATA_EXPIRED,DATA_EXPIRED,Not Applicable
6109cbe82b017714005d9a07,<b>Figuring out what?s important in life requires learning a lot of facts.,Highly disagree,5/94,Somewhat agree,3,1708006375428,1708006383249,\Somewhat agree\,\Somewhat agree\,\3\,1708006382892,1708006382892,7464,7464,7821,buq,qns-item-noham,5,49631,0.0-1.0-0.4,65ce1b807fba858c567148be,AWAITING REVIEW,2024-02-15T14:11:16.264000Z,2024-02-15T14:24:03.040000Z,,2024-02-15T14:24:03.558325Z,767.0,CVPIIDEI,466,22,Female,Mixed,United States,United States,United States,English,DATA_EXPIRED,DATA_EXPIRED,Not Applicable
6109cbe82b017714005d9a07,<b>It is difficult for me to remember the last time I was surprised by politics.,Highly disagree,6/94,Somewhat agree,3,1708006383250,1708006388906,\Somewhat agree\,\Somewhat agree\,\3\,1708006387783,1708006387783,4533,4533,5656,buq,qns-item-noham,6,55288,0.0-1.0-0.5,65ce1b807fba858c567148be,AWAITING REVIEW,2024-02-15T14:11:16.264000Z,2024-02-15T14:24:03.040000Z,,2024-02-15T14:24:03.558325Z,767.0,CVPIIDEI,466,22,Female,Mixed,United States,United States,United States,English,DATA_EXPIRED,DATA_EXPIRED,Not Applicable
6109cbe82b017714005d9a07,<b>People?s false beliefs are understandable.,Highly disagree,7/94,Somewhat disagree,2,1708006388908,1708006394574,\Somewhat disagree\,\Somewhat disagree\,\2\,1708006393874,1708006393874,4966,4966,5666,buq,qns-item-noham,7,60956,0.0-1.0-0.6,65ce1b807fba858c567148be,AWAITING REVIEW,2024-02-15T14:11:16.264000Z,2024-02-15T14:24:03.040000Z,,2024-02-15T14:24:03.558325Z,767.0,CVPIIDEI,466,22,Female,Mixed,United States,United States,United States,English,DATA_EXPIRED,DATA_EXPIRED,Not Applicable
6109cbe82b017714005d9a07,<b>I spend a lot of time trying to be informed about politics.,Highly disagree,8/94,Highly disagree,1,1708006394576,1708006398052,\Highly disagree\,\Highly disagree\,\1\,1708006397625,1708006397625,3049,3049,3476,buq,qns-item-noham,8,64434,0.0-1.0-0.7,65ce1b807fba858c567148be,AWAITING REVIEW,2024-02-15T14:11:16.264000Z,2024-02-15T14:24:03.040000Z,,2024-02-15T14:24:03.558325Z,767.0,CVPIIDEI,466,22,Female,Mixed,United States,United States,United States,English,DATA_EXPIRED,DATA_EXPIRED,Not Applicable
6109cbe82b017714005d9a07,<b>I think a lot about whether my beliefs are right.,Highly disagree,9/94,Somewhat agree,3,1708006398054,1708006400600,\Somewhat agree\,\Somewhat agree\,\3\,1708006400211,1708006400211,2157,2157,2546,buq,qns-item-noham,9,66983,0.0-1.0-0.8,65ce1b807fba858c567148be,AWAITING REVIEW,2024-02-15T14:11:16.264000Z,2024-02-15T14:24:03.040000Z,,2024-02-15T14:24:03.558325Z,767.0,CVPIIDEI,466,22,Female,Mixed,United States,United States,United States,English,DATA_EXPIRED,DATA_EXPIRED,Not Applicable
6109cbe82b017714005d9a07,<b>Statistics can be pretty misleading sometimes.,Highly disagree,10/94,Highly agree,4,1708006400602,1708006404363,\Highly agree\,\Highly agree\,\4\,1708006404049,1708006404049,3447,3447,3761,buq,qns-item-noham,10,70745,0.0-1.0-0.9,65ce1b807fba858c567148be,AWAITING REVIEW,2024-02-15T14:11:16.264000Z,2024-02-15T14:24:03.040000Z,,2024-02-15T14:24:03.558325Z,767.0,CVPIIDEI,466,22,Female,Mixed,United States,United States,United States,English,DATA_EXPIRED,DATA_EXPIRED,Not Applicable
6109cbe82b017714005d9a07,<b>I have lots of beliefs that I?m only sort of sure about.,Highly disagree,11/94,Somewhat disagree,2,1708006404365,1708006410076,\Somewhat disagree\,\Somewhat disagree\,\2\,1708006409346,1708006409346,4981,4981,5711,buq,qns-item-noham,11,76458,0.0-1.0-0.10,65ce1b807fba858c567148be,AWAITING REVIEW,2024-02-15T14:11:16.264000Z,2024-02-15T14:24:03.040000Z,,2024-02-15T14:24:03.558325Z,767.0,CVPIIDEI,466,22,Female,Mixed,United States,United States,United States,English,DATA_EXPIRED,DATA_EXPIRED,Not Applicable
6109cbe82b017714005d9a07,"<b>If I go to my favorite restaurant and the food is surprisingly bad, it reminds me there are many disappointments in life.",Highly disagree,12/94,Highly disagree,1,1708006410078,1708006418323,\Highly disagree\,\Highly disagree\,\1\,1708006417749,1708006417749,7671,7671,8245,buq,qns-item-noham,12,84705,0.0-1.0-0.11,65ce1b807fba858c567148be,AWAITING REVIEW,2024-02-15T14:11:16.264000Z,2024-02-15T14:24:03.040000Z,,2024-02-15T14:24:03.558325Z,767.0,CVPIIDEI,466,22,Female,Mixed,United States,United States,United States,English,DATA_EXPIRED,DATA_EXPIRED,Not Applicable
6109cbe82b017714005d9a07,"<b>If you are paying attention, please select ?Somewhat agree?",Highly disagree,13/94,Somewhat agree,3,1708006418324,1708006420944,\Somewhat agree\,\Somewhat agree\,\3\,1708006420551,1708006420551,2227,2227,2620,buq,qns-item-noham,13,87326,0.0-1.0-0.12,65ce1b807fba858c567148be,AWAITING REVIEW,2024-02-15T14:11:16.264000Z,2024-02-15T14:24:03.040000Z,,2024-02-15T14:24:03.558325Z,767.0,CVPIIDEI,466,22,Female,Mixed,United States,United States,United States,English,DATA_EXPIRED,DATA_EXPIRED,Not Applicable
6109cbe82b017714005d9a07,"<b>When I talk to others, I often worry I?ll convince them of something I didn?t mean to.",Highly disagree,14/94,Highly disagree,1,1708006420946,1708006434628,\Highly disagree\,\Highly disagree\,\1\,1708006434122,1708006434122,13176,13176,13682,buq,qns-item-noham,14,101010,0.0-1.0-0.13,65ce1b807fba858c567148be,AWAITING REVIEW,2024-02-15T14:11:16.264000Z,2024-02-15T14:24:03.040000Z,,2024-02-15T14:24:03.558325Z,767.0,CVPIIDEI,466,22,Female,Mixed,United States,United States,United States,English,DATA_EXPIRED,DATA_EXPIRED,Not Applicable
6109cbe82b017714005d9a07,<b>I would need to learn something utterly shocking about my party in order to change my political views.,Highly disagree,15/94,Somewhat disagree,2,1708006434630,1708006443684,\Somewhat disagree\,\Somewhat disagree\,\2\,1708006442527,1708006442527,7897,7897,9054,buq,qns-item-noham,15,110066,0.0-1.0-0.14,65ce1b807fba858c567148be,AWAITING REVIEW,2024-02-15T14:11:16.264000Z,2024-02-15T14:24:03.040000Z,,2024-02-15T14:24:03.558325Z,767.0,CVPIIDEI,466,22,Female,Mixed,United States,United States,United States,English,DATA_EXPIRED,DATA_EXPIRED,Not Applicable
6109cbe82b017714005d9a07,"<b>When I have new experiences, I tend to think of them as unique.",Highly disagree,16/94,Somewhat agree,3,1708006443686,1708006449691,\Somewhat agree\,\Somewhat agree\,\3\,1708006448902,1708006448902,5216,5216,6005,buq,qns-item-noham,16,116073,0.0-1.0-0.15,65ce1b807fba858c567148be,AWAITING REVIEW,2024-02-15T14:11:16.264000Z,2024-02-15T14:24:03.040000Z,,2024-02-15T14:24:03.558325Z,767.0,CVPIIDEI,466,22,Female,Mixed,United States,United States,United States,English,DATA_EXPIRED,DATA_EXPIRED,Not Applicable
6109cbe82b017714005d9a07,<b>I change my mind about specific policies pretty frequently.,Highly disagree,17/94,Highly disagree,1,1708006449692,1708006454051,\Highly disagree\,\Highly disagree\,\1\,1708006453676,1708006453676,3984,3984,4359,buq,qns-item-noham,17,120433,0.0-1.0-0.16,65ce1b807fba858c567148be,AWAITING REVIEW,2024-02-15T14:11:16.264000Z,2024-02-15T14:24:03.040000Z,,2024-02-15T14:24:03.558325Z,767.0,CVPIIDEI,466,22,Female,Mixed,United States,United States,United States,English,DATA_EXPIRED,DATA_EXPIRED,Not Applicable
6109cbe82b017714005d9a07,"<b>If a politician in my political party supports something I disagree with, I give them the benefit of the doubt, as such issues often involve hidden complexities that aren?t obvious.   ",Highly disagree,18/94,Somewhat agree,3,1708006454053,1708006462350,\Somewhat agree\,\Somewhat agree\,\3\,1708006461978,1708006461978,7925,7925,8297,buq,qns-item-noham,18,128732,0.0-1.0-0.17,65ce1b807fba858c567148be,AWAITING REVIEW,2024-02-15T14:11:16.264000Z,2024-02-15T14:24:03.040000Z,,2024-02-15T14:24:03.558325Z,767.0,CVPIIDEI,466,22,Female,Mixed,United States,United States,United States,English,DATA_EXPIRED,DATA_EXPIRED,Not Applicable
6109cbe82b017714005d9a07,<b>People?s bad politics are usually motivated by hatefulness.,Highly disagree,19/94,Somewhat disagree,2,1708006462352,1708006468294,\Somewhat disagree\,\Somewhat disagree\,\2\,1708006467729,1708006467729,5377,5377,5942,buq,qns-item-noham,19,134676,0.0-1.0-0.18,65ce1b807fba858c567148be,AWAITING REVIEW,2024-02-15T14:11:16.264000Z,2024-02-15T14:24:03.040000Z,,2024-02-15T14:24:03.558325Z,767.0,CVPIIDEI,466,22,Female,Mixed,United States,United States,United States,English,DATA_EXPIRED,DATA_EXPIRED,Not Applicable
6109cbe82b017714005d9a07,<b>I think a lot about how to reconcile my beliefs with one another.,Highly disagree,20/94,Somewhat disagree,2,1708006468296,1708006475821,\Somewhat disagree\,\Somewhat disagree\,\2\,1708006474996,1708006474996,6700,6700,7525,buq,qns-item-noham,20,142203,0.0-1.0-0.19,65ce1b807fba858c567148be,AWAITING REVIEW,2024-02-15T14:11:16.264000Z,2024-02-15T14:24:03.040000Z,,2024-02-15T14:24:03.558325Z,767.0,CVPIIDEI,466,22,Female,Mixed,United States,United States,United States,English,DATA_EXPIRED,DATA_EXPIRED,Not Applicable
6109cbe82b017714005d9a07,<b>I might have false beliefs about important topics.,Highly disagree,21/94,Somewhat disagree,2,1708006475823,1708006484834,\Somewhat disagree\,\Somewhat disagree\,\2\,1708006480992,1708006480992,5169,5169,9011,buq,qns-item-noham,21,151216,0.0-1.0-0.20,65ce1b807fba858c567148be,AWAITING REVIEW,2024-02-15T14:11:16.264000Z,2024-02-15T14:24:03.040000Z,,2024-02-15T14:24:03.558325Z,767.0,CVPIIDEI,466,22,Female,Mixed,United States,United States,United States,English,DATA_EXPIRED,DATA_EXPIRED,Not Applicable
6109cbe82b017714005d9a07,"<b>If a good friend of mine does something unexpected that upsets me, I feel like I don?t know them anymore.",Highly disagree,22/94,Somewhat agree,3,1708006484835,1708006491174,\Somewhat agree\,\Somewhat agree\,\3\,1708006490745,1708006490745,5910,5910,6339,buq,qns-item-noham,22,157556,0.0-1.0-0.21,65ce1b807fba858c567148be,AWAITING REVIEW,2024-02-15T14:11:16.264000Z,2024-02-15T14:24:03.040000Z,,2024-02-15T14:24:03.558325Z,767.0,CVPIIDEI,466,22,Female,Mixed,United States,United States,United States,English,DATA_EXPIRED,DATA_EXPIRED,Not Applicable
6109cbe82b017714005d9a07,<b>Other people?s beliefs are often incoherent.,Highly disagree,23/94,Somewhat agree,3,1708006491175,1708006496602,\Somewhat agree\,\Somewhat agree\,\3\,1708006495744,1708006495744,4569,4569,5427,buq,qns-item-noham,23,162984,0.0-1.0-0.22,65ce1b807fba858c567148be,AWAITING REVIEW,2024-02-15T14:11:16.264000Z,2024-02-15T14:24:03.040000Z,,2024-02-15T14:24:03.558325Z,767.0,CVPIIDEI,466,22,Female,Mixed,United States,United States,United States,English,DATA_EXPIRED,DATA_EXPIRED,Not Applicable
6109cbe82b017714005d9a07,"<b>Every now and then, a new experience will unsettle beliefs I?ve had for a while.",Highly disagree,24/94,Somewhat agree,3,1708006496604,1708006507565,\Somewhat agree\,\Somewhat agree\,\3\,1708006506984,1708006506984,10380,10380,10961,buq,qns-item-noham,24,173947,0.0-1.0-0.23,65ce1b807fba858c567148be,AWAITING REVIEW,2024-02-15T14:11:16.264000Z,2024-02-15T14:24:03.040000Z,,2024-02-15T14:24:03.558325Z,767.0,CVPIIDEI,466,22,Female,Mixed,United States,United States,United States,English,DATA_EXPIRED,DATA_EXPIRED,Not Applicable
6109cbe82b017714005d9a07,<b>Some policies I agree with in principle are so bad I don?t support them. ,Highly disagree,25/94,Somewhat agree,3,1708006507567,1708006519775,\Somewhat agree\,\Somewhat agree\,\3\,1708006519411,1708006519411,11844,11844,12208,buq,qns-item-noham,25,186157,0.0-1.0-0.24,65ce1b807fba858c567148be,AWAITING REVIEW,2024-02-15T14:11:16.264000Z,2024-02-15T14:24:03.040000Z,,2024-02-15T14:24:03.558325Z,767.0,CVPIIDEI,466,22,Female,Mixed,United States,United States,United States,English,DATA_EXPIRED,DATA_EXPIRED,Not Applicable
6109cbe82b017714005d9a07,<b>I?m pretty sure I?ve accidentally spread false information.,Highly disagree,26/94,Somewhat disagree,2,1708006519777,1708006524249,\Somewhat disagree\,\Somewhat disagree\,\2\,1708006523721,1708006523721,3944,3944,4472,buq,qns-item-noham,26,190631,0.0-1.0-0.25,65ce1b807fba858c567148be,AWAITING REVIEW,2024-02-15T14:11:16.264000Z,2024-02-15T14:24:03.040000Z,,2024-02-15T14:24:03.558325Z,767.0,CVPIIDEI,466,22,Female,Mixed,United States,United States,United States,English,DATA_EXPIRED,DATA_EXPIRED,Not Applicable
6109cbe82b017714005d9a07,"<b>If I go to my favorite restaurant and the food is unexpectedly bad, then they have changed owners.",Highly disagree,27/94,Highly disagree,1,1708006524250,1708006533524,\Highly disagree\,\Highly disagree\,\1\,1708006532751,1708006532751,8501,8501,9274,buq,qns-item-noham,27,199906,0.0-1.0-0.26,65ce1b807fba858c567148be,AWAITING REVIEW,2024-02-15T14:11:16.264000Z,2024-02-15T14:24:03.040000Z,,2024-02-15T14:24:03.558325Z,767.0,CVPIIDEI,466,22,Female,Mixed,United States,United States,United States,English,DATA_EXPIRED,DATA_EXPIRED,Not Applicable
6109cbe82b017714005d9a07,"<b>In politics, it?s important to trust your friends and family.",Highly disagree,28/94,Somewhat agree,3,1708006533526,1708006539289,\Somewhat agree\,\Somewhat agree\,\3\,1708006538599,1708006538599,5073,5073,5763,buq,qns-item-noham,28,205671,0.0-1.0-0.27,65ce1b807fba858c567148be,AWAITING REVIEW,2024-02-15T14:11:16.264000Z,2024-02-15T14:24:03.040000Z,,2024-02-15T14:24:03.558325Z,767.0,CVPIIDEI,466,22,Female,Mixed,United States,United States,United States,English,DATA_EXPIRED,DATA_EXPIRED,Not Applicable
6109cbe82b017714005d9a07,<b>It?s OK to have some conflicting beliefs.,Highly disagree,29/94,Highly agree,4,1708006539291,1708006545378,\Somewhat agree\,\Highly agree\,\3\,1708006543138,1708006544679,3847,5388,6087,buq,qns-item-noham,29,211760,0.0-1.0-0.28,65ce1b807fba858c567148be,AWAITING REVIEW,2024-02-15T14:11:16.264000Z,2024-02-15T14:24:03.040000Z,,2024-02-15T14:24:03.558325Z,767.0,CVPIIDEI,466,22,Female,Mixed,United States,United States,United States,English,DATA_EXPIRED,DATA_EXPIRED,Not Applicable
6109cbe82b017714005d9a07,<b>Listening to people I disagree with makes my opinions better.,Highly disagree,30/94,Somewhat agree,3,1708006545380,1708006551997,\Somewhat agree\,\Somewhat agree\,\3\,1708006551224,1708006551224,5844,5844,6617,buq,qns-item-noham,30,218379,0.0-1.0-0.29,65ce1b807fba858c567148be,AWAITING REVIEW,2024-02-15T14:11:16.264000Z,2024-02-15T14:24:03.040000Z,,2024-02-15T14:24:03.558325Z,767.0,CVPIIDEI,466,22,Female,Mixed,United States,United States,United States,English,DATA_EXPIRED,DATA_EXPIRED,Not Applicable
6109cbe82b017714005d9a07,<b>My moral compass sometimes makes it harder to determine what?s true.,Highly disagree,31/94,Somewhat disagree,2,1708006551999,1708006556946,\Somewhat disagree\,\Somewhat disagree\,\2\,1708006556590,1708006556590,4591,4591,4947,buq,qns-item-noham,31,223328,0.0-1.0-0.30,65ce1b807fba858c567148be,AWAITING REVIEW,2024-02-15T14:11:16.264000Z,2024-02-15T14:24:03.040000Z,,2024-02-15T14:24:03.558325Z,767.0,CVPIIDEI,466,22,Female,Mixed,United States,United States,United States,English,DATA_EXPIRED,DATA_EXPIRED,Not Applicable
6109cbe82b017714005d9a07,<b>Evidence pointing in the wrong direction isn?t really evidence at all.,Highly disagree,32/94,Highly disagree,1,1708006556948,1708006564089,\Highly disagree\,\Highly disagree\,\1\,1708006563232,1708006563232,6284,6284,7141,buq,qns-item-noham,32,230471,0.0-1.0-0.31,65ce1b807fba858c567148be,AWAITING REVIEW,2024-02-15T14:11:16.264000Z,2024-02-15T14:24:03.040000Z,,2024-02-15T14:24:03.558325Z,767.0,CVPIIDEI,466,22,Female,Mixed,United States,United States,United States,English,DATA_EXPIRED,DATA_EXPIRED,Not Applicable
6109cbe82b017714005d9a07,"<b>If the political party I support messes up, it makes me think politics is rotten.",Highly disagree,33/94,Somewhat disagree,2,1708006564091,1708006569656,\Somewhat disagree\,\Somewhat disagree\,\2\,1708006569283,1708006569283,5192,5192,5565,buq,qns-item-noham,33,236038,0.0-1.0-0.32,65ce1b807fba858c567148be,AWAITING REVIEW,2024-02-15T14:11:16.264000Z,2024-02-15T14:24:03.040000Z,,2024-02-15T14:24:03.558325Z,767.0,CVPIIDEI,466,22,Female,Mixed,United States,United States,United States,English,DATA_EXPIRED,DATA_EXPIRED,Not Applicable
6109cbe82b017714005d9a07,<b>Lots of important topics can only really be understood by some groups of people.,Highly disagree,34/94,Somewhat disagree,2,1708006569658,1708006576563,\Somewhat disagree\,\Somewhat disagree\,\2\,1708006576177,1708006576177,6519,6519,6905,buq,qns-item-noham,34,242945,0.0-1.0-0.33,65ce1b807fba858c567148be,AWAITING REVIEW,2024-02-15T14:11:16.264000Z,2024-02-15T14:24:03.040000Z,,2024-02-15T14:24:03.558325Z,767.0,CVPIIDEI,466,22,Female,Mixed,United States,United States,United States,English,DATA_EXPIRED,DATA_EXPIRED,Not Applicable
6109cbe82b017714005d9a07,<b>Having conflicting beliefs means you haven?t thought about them enough.,Highly disagree,35/94,Highly disagree,1,1708006576565,1708006585720,\Somewhat disagree\,\Highly disagree\,\2\,1708006584343,1708006585032,7778,8467,9155,buq,qns-item-noham,35,252102,0.0-1.0-0.34,65ce1b807fba858c567148be,AWAITING REVIEW,2024-02-15T14:11:16.264000Z,2024-02-15T14:24:03.040000Z,,2024-02-15T14:24:03.558325Z,767.0,CVPIIDEI,466,22,Female,Mixed,United States,United States,United States,English,DATA_EXPIRED,DATA_EXPIRED,Not Applicable
6109cbe82b017714005d9a07,<b>I do not often change my political opinions.,Highly disagree,36/94,Highly agree,4,1708006585723,1708006590623,\Highly agree\,\Highly agree\,\4\,1708006589784,1708006589784,4061,4061,4900,buq,qns-item-noham,36,257005,0.0-1.0-0.35,65ce1b807fba858c567148be,AWAITING REVIEW,2024-02-15T14:11:16.264000Z,2024-02-15T14:24:03.040000Z,,2024-02-15T14:24:03.558325Z,767.0,CVPIIDEI,466,22,Female,Mixed,United States,United States,United States,English,DATA_EXPIRED,DATA_EXPIRED,Not Applicable
6109cbe82b017714005d9a07,<b>It?s difficult to not have at least some conflicting beliefs.,Highly disagree,37/94,Somewhat disagree,2,1708006590625,1708006593854,\Somewhat disagree\,\Somewhat disagree\,\2\,1708006593488,1708006593488,2863,2863,3229,buq,qns-item-noham,37,260236,0.0-1.0-0.36,65ce1b807fba858c567148be,AWAITING REVIEW,2024-02-15T14:11:16.264000Z,2024-02-15T14:24:03.040000Z,,2024-02-15T14:24:03.558325Z,767.0,CVPIIDEI,466,22,Female,Mixed,United States,United States,United States,English,DATA_EXPIRED,DATA_EXPIRED,Not Applicable
6109cbe82b017714005d9a07,<b>Wishful thinking causes a lot of problems.,Highly disagree,38/94,Somewhat disagree,2,1708006593855,1708006598802,\Somewhat disagree\,\Somewhat disagree\,\2\,1708006598085,1708006598085,4230,4230,4947,buq,qns-item-noham,38,265184,0.0-1.0-0.37,65ce1b807fba858c567148be,AWAITING REVIEW,2024-02-15T14:11:16.264000Z,2024-02-15T14:24:03.040000Z,,2024-02-15T14:24:03.558325Z,767.0,CVPIIDEI,466,22,Female,Mixed,United States,United States,United States,English,DATA_EXPIRED,DATA_EXPIRED,Not Applicable
6109cbe82b017714005d9a07,<b>I judge a food item only once I try it many times.,Highly disagree,39/94,Somewhat disagree,2,1708006598803,1708006606393,\Somewhat disagree\,\Somewhat disagree\,\2\,1708006605728,1708006605728,6925,6925,7590,buq,qns-item-noham,39,272775,0.0-1.0-0.38,65ce1b807fba858c567148be,AWAITING REVIEW,2024-02-15T14:11:16.264000Z,2024-02-15T14:24:03.040000Z,,2024-02-15T14:24:03.558325Z,767.0,CVPIIDEI,466,22,Female,Mixed,United States,United States,United States,English,DATA_EXPIRED,DATA_EXPIRED,Not Applicable
6109cbe82b017714005d9a07,"<b>When a person holds conflicting beliefs, they should really try to figure out what?s wrong.",Highly disagree,40/94,Somewhat disagree,2,1708006606395,1708006617318,\Somewhat disagree\,\Somewhat disagree\,\2\,1708006616310,1708006616310,9915,9915,10923,buq,qns-item-noham,40,283700,0.0-1.0-0.39,65ce1b807fba858c567148be,AWAITING REVIEW,2024-02-15T14:11:16.264000Z,2024-02-15T14:24:03.040000Z,,2024-02-15T14:24:03.558325Z,767.0,CVPIIDEI,466,22,Female,Mixed,United States,United States,United States,English,DATA_EXPIRED,DATA_EXPIRED,Not Applicable
6109cbe82b017714005d9a07,<b>Knowing what?s important in life is easy.,Highly disagree,41/94,Somewhat disagree,2,1708006617319,1708006623845,\Somewhat disagree\,\Somewhat disagree\,\2\,1708006621635,1708006623477,4316,6158,6526,buq,qns-item-noham,41,290227,0.0-1.0-0.40,65ce1b807fba858c567148be,AWAITING REVIEW,2024-02-15T14:11:16.264000Z,2024-02-15T14:24:03.040000Z,,2024-02-15T14:24:03.558325Z,767.0,CVPIIDEI,466,22,Female,Mixed,United States,United States,United States,English,DATA_EXPIRED,DATA_EXPIRED,Not Applicable
6109cbe82b017714005d9a07,<b>I swim across the Atlantic Ocean to get to work every day.,Highly disagree,42/94,Highly disagree,1,1708006623847,1708006627124,\Highly disagree\,\Highly disagree\,\1\,1708006626526,1708006626526,2679,2679,3277,buq,qns-item-noham,42,293506,0.0-1.0-0.41,65ce1b807fba858c567148be,AWAITING REVIEW,2024-02-15T14:11:16.264000Z,2024-02-15T14:24:03.040000Z,,2024-02-15T14:24:03.558325Z,767.0,CVPIIDEI,466,22,Female,Mixed,United States,United States,United States,English,DATA_EXPIRED,DATA_EXPIRED,Not Applicable
6109cbe82b017714005d9a07,"<b>Sometimes, you just have to ignore evidence that you know is wrong.",Highly disagree,43/94,Highly disagree,1,1708006627125,1708006633974,\Somewhat disagree\,\Highly disagree\,\2\,1708006632719,1708006633520,5594,6395,6849,buq,qns-item-noham,43,300356,0.0-1.0-0.42,65ce1b807fba858c567148be,AWAITING REVIEW,2024-02-15T14:11:16.264000Z,2024-02-15T14:24:03.040000Z,,2024-02-15T14:24:03.558325Z,767.0,CVPIIDEI,466,22,Female,Mixed,United States,United States,United States,English,DATA_EXPIRED,DATA_EXPIRED,Not Applicable
6109cbe82b017714005d9a07,<b>I have had some false beliefs.,Highly disagree,44/94,Somewhat disagree,2,1708006633976,1708006637175,\Somewhat disagree\,\Somewhat disagree\,\2\,1708006636086,1708006636086,2110,2110,3199,buq,qns-item-noham,44,303557,0.0-1.0-0.43,65ce1b807fba858c567148be,AWAITING REVIEW,2024-02-15T14:11:16.264000Z,2024-02-15T14:24:03.040000Z,,2024-02-15T14:24:03.558325Z,767.0,CVPIIDEI,466,22,Female,Mixed,United States,United States,United States,English,DATA_EXPIRED,DATA_EXPIRED,Not Applicable
6109cbe82b017714005d9a07,"<b>If one friend does something that upsets me, I sometimes start to distrust people in general.",Highly disagree,45/94,Somewhat agree,3,1708006637176,1708006647030,\Somewhat agree\,\Somewhat agree\,\3\,1708006644899,1708006644899,7723,7723,9854,buq,qns-item-noham,45,313412,0.0-1.0-0.44,65ce1b807fba858c567148be,AWAITING REVIEW,2024-02-15T14:11:16.264000Z,2024-02-15T14:24:03.040000Z,,2024-02-15T14:24:03.558325Z,767.0,CVPIIDEI,466,22,Female,Mixed,United States,United States,United States,English,DATA_EXPIRED,DATA_EXPIRED,Not Applicable
6109cbe82b017714005d9a07,<b>The facts about most important matters are easy to find.,Highly disagree,46/94,Somewhat disagree,2,1708006647032,1708006654406,\Somewhat disagree\,\Somewhat disagree\,\2\,1708006653988,1708006653988,6956,6956,7374,buq,qns-item-noham,46,320788,0.0-1.0-0.45,65ce1b807fba858c567148be,AWAITING REVIEW,2024-02-15T14:11:16.264000Z,2024-02-15T14:24:03.040000Z,,2024-02-15T14:24:03.558325Z,767.0,CVPIIDEI,466,22,Female,Mixed,United States,United States,United States,English,DATA_EXPIRED,DATA_EXPIRED,Not Applicable
6109cbe82b017714005d9a07,<b>It?s better to know what?s true than to know what?s moral.,Highly disagree,47/94,Somewhat disagree,2,1708006654407,1708006678926,\Somewhat disagree\,\Somewhat disagree\,\2\,1708006678272,1708006678272,23865,23865,24519,buq,qns-item-noham,47,345308,0.0-1.0-0.46,65ce1b807fba858c567148be,AWAITING REVIEW,2024-02-15T14:11:16.264000Z,2024-02-15T14:24:03.040000Z,,2024-02-15T14:24:03.558325Z,767.0,CVPIIDEI,466,22,Female,Mixed,United States,United States,United States,English,DATA_EXPIRED,DATA_EXPIRED,Not Applicable
6109cbe82b017714005d9a07,<b>I used to think the world was less complicated than I do now.,Highly disagree,48/94,Highly agree,4,1708006678928,1708006686460,\Highly agree\,\Highly agree\,\4\,1708006685628,1708006685628,6700,6700,7532,buq,qns-item-noham,48,352842,0.0-1.0-0.47,65ce1b807fba858c567148be,AWAITING REVIEW,2024-02-15T14:11:16.264000Z,2024-02-15T14:24:03.040000Z,,2024-02-15T14:24:03.558325Z,767.0,CVPIIDEI,466,22,Female,Mixed,United States,United States,United States,English,DATA_EXPIRED,DATA_EXPIRED,Not Applicable
6109cbe82b017714005d9a07,<b>People are usually completely right or completely wrong.,Highly disagree,49/94,Highly disagree,1,1708006686462,1708006690431,\Somewhat disagree\,\Highly disagree\,\2\,1708006688979,1708006689980,2517,3518,3969,buq,qns-item-noham,49,356813,0.0-1.0-0.48,65ce1b807fba858c567148be,AWAITING REVIEW,2024-02-15T14:11:16.264000Z,2024-02-15T14:24:03.040000Z,,2024-02-15T14:24:03.558325Z,767.0,CVPIIDEI,466,22,Female,Mixed,United States,United States,United States,English,DATA_EXPIRED,DATA_EXPIRED,Not Applicable
6109cbe82b017714005d9a07,<b>I spend a lot of time considering alternatives to my beliefs.,Highly disagree,50/94,Somewhat agree,3,1708006690433,1708006693680,\Somewhat agree\,\Somewhat agree\,\3\,1708006693307,1708006693307,2874,2874,3247,buq,qns-item-noham,50,360062,0.0-1.0-0.49,65ce1b807fba858c567148be,AWAITING REVIEW,2024-02-15T14:11:16.264000Z,2024-02-15T14:24:03.040000Z,,2024-02-15T14:24:03.558325Z,767.0,CVPIIDEI,466,22,Female,Mixed,United States,United States,United States,English,DATA_EXPIRED,DATA_EXPIRED,Not Applicable
6109cbe82b017714005d9a07,"<b>Political enemies need to be defeated, not convinced.",Highly disagree,51/94,Highly disagree,1,1708006693681,1708006697048,\Highly disagree\,\Highly disagree\,\1\,1708006696549,1708006696549,2868,2868,3367,buq,qns-item-noham,51,363430,0.0-1.0-0.50,65ce1b807fba858c567148be,AWAITING REVIEW,2024-02-15T14:11:16.264000Z,2024-02-15T14:24:03.040000Z,,2024-02-15T14:24:03.558325Z,767.0,CVPIIDEI,466,22,Female,Mixed,United States,United States,United States,English,DATA_EXPIRED,DATA_EXPIRED,Not Applicable
6109cbe82b017714005d9a07,<b>I form my political views only after meticulously gathering historical and present information about their policies.,Highly disagree,52/94,Somewhat disagree,2,1708006697050,1708006702909,\Somewhat disagree\,\Somewhat disagree\,\2\,1708006701820,1708006701820,4770,4770,5859,buq,qns-item-noham,52,369291,0.0-1.0-0.51,65ce1b807fba858c567148be,AWAITING REVIEW,2024-02-15T14:11:16.264000Z,2024-02-15T14:24:03.040000Z,,2024-02-15T14:24:03.558325Z,767.0,CVPIIDEI,466,22,Female,Mixed,United States,United States,United States,English,DATA_EXPIRED,DATA_EXPIRED,Not Applicable
6109cbe82b017714005d9a07,<b>It is difficult for me to remember the last time I was surprised by politics.,Highly disagree,53/94,Somewhat agree,3,1708006702911,1708006706943,\Somewhat agree\,\Somewhat agree\,\3\,1708006706392,1708006706392,3481,3481,4032,buq,qns-item-noham,53,373325,0.0-1.0-0.52,65ce1b807fba858c567148be,AWAITING REVIEW,2024-02-15T14:11:16.264000Z,2024-02-15T14:24:03.040000Z,,2024-02-15T14:24:03.558325Z,767.0,CVPIIDEI,466,22,Female,Mixed,United States,United States,United States,English,DATA_EXPIRED,DATA_EXPIRED,Not Applicable
6109cbe82b017714005d9a07,"<b>When I find out I?m wrong, I think a lot about my related beliefs.",Highly disagree,54/94,Highly disagree,1,1708006706945,1708006712918,\Highly disagree\,\Highly disagree\,\1\,1708006712341,1708006712341,5396,5396,5973,buq,qns-item-noham,54,379300,0.0-1.0-0.53,65ce1b807fba858c567148be,AWAITING REVIEW,2024-02-15T14:11:16.264000Z,2024-02-15T14:24:03.040000Z,,2024-02-15T14:24:03.558325Z,767.0,CVPIIDEI,466,22,Female,Mixed,United States,United States,United States,English,DATA_EXPIRED,DATA_EXPIRED,Not Applicable
6109cbe82b017714005d9a07,"<b>If the political party I support messes up, it makes me think you can?t trust anyone these days",Highly disagree,55/94,Highly disagree,1,1708006712919,1708006720369,\Somewhat disagree\,\Highly disagree\,\2\,1708006717555,1708006719345,4636,6426,7450,buq,qns-item-noham,55,386751,0.0-1.0-0.54,65ce1b807fba858c567148be,AWAITING REVIEW,2024-02-15T14:11:16.264000Z,2024-02-15T14:24:03.040000Z,,2024-02-15T14:24:03.558325Z,767.0,CVPIIDEI,466,22,Female,Mixed,United States,United States,United States,English,DATA_EXPIRED,DATA_EXPIRED,Not Applicable
6109cbe82b017714005d9a07,<b>People?s brains turn off when they talk about politics.,Highly disagree,56/94,Highly disagree,1,1708006720370,1708006724793,\Highly disagree\,\Highly disagree\,\1\,1708006724321,1708006724321,3951,3951,4423,buq,qns-item-noham,56,391176,0.0-1.0-0.55,65ce1b807fba858c567148be,AWAITING REVIEW,2024-02-15T14:11:16.264000Z,2024-02-15T14:24:03.040000Z,,2024-02-15T14:24:03.558325Z,767.0,CVPIIDEI,466,22,Female,Mixed,United States,United States,United States,English,DATA_EXPIRED,DATA_EXPIRED,Not Applicable
6109cbe82b017714005d9a07,<b>People who are wrong are usually just ignoring the obvious.,Highly disagree,57/94,Somewhat disagree,2,1708006724795,1708006729561,\Somewhat disagree\,\Somewhat disagree\,\2\,1708006729106,1708006729106,4311,4311,4766,buq,qns-item-noham,57,395943,0.0-1.0-0.56,65ce1b807fba858c567148be,AWAITING REVIEW,2024-02-15T14:11:16.264000Z,2024-02-15T14:24:03.040000Z,,2024-02-15T14:24:03.558325Z,767.0,CVPIIDEI,466,22,Female,Mixed,United States,United States,United States,English,DATA_EXPIRED,DATA_EXPIRED,Not Applicable
6109cbe82b017714005d9a07,"<b>When forming my views on people, I rely more on what they are like now rather than rely on my past experience with them.",Highly disagree,58/94,Somewhat agree,3,1708006729563,1708006738573,\Somewhat agree\,\Somewhat agree\,\3\,1708006738124,1708006738124,8561,8561,9010,buq,qns-item-noham,58,404955,0.0-1.0-0.57,65ce1b807fba858c567148be,AWAITING REVIEW,2024-02-15T14:11:16.264000Z,2024-02-15T14:24:03.040000Z,,2024-02-15T14:24:03.558325Z,767.0,CVPIIDEI,466,22,Female,Mixed,United States,United States,United States,English,DATA_EXPIRED,DATA_EXPIRED,Not Applicable
6109cbe82b017714005d9a07,"<b>When people contradict my beliefs, I usually know about their evidence already.",Highly disagree,59/94,Highly disagree,1,1708006738574,1708006787040,\Highly disagree\,\Highly disagree\,\1\,1708006786450,1708006786450,47876,47876,48466,buq,qns-item-noham,59,453423,0.0-1.0-0.58,65ce1b807fba858c567148be,AWAITING REVIEW,2024-02-15T14:11:16.264000Z,2024-02-15T14:24:03.040000Z,,2024-02-15T14:24:03.558325Z,767.0,CVPIIDEI,466,22,Female,Mixed,United States,United States,United States,English,DATA_EXPIRED,DATA_EXPIRED,Not Applicable
6109cbe82b017714005d9a07,<b>Figuring out what?s true and what?s false mainly requires a strong moral compass.,Highly disagree,60/94,Somewhat agree,3,1708006787042,1708006793030,\Somewhat disagree\,\Somewhat agree\,\2\,1708006791810,1708006792347,4768,5305,5988,buq,qns-item-noham,60,459412,0.0-1.0-0.59,65ce1b807fba858c567148be,AWAITING REVIEW,2024-02-15T14:11:16.264000Z,2024-02-15T14:24:03.040000Z,,2024-02-15T14:24:03.558325Z,767.0,CVPIIDEI,466,22,Female,Mixed,United States,United States,United States,English,DATA_EXPIRED,DATA_EXPIRED,Not Applicable
6109cbe82b017714005d9a07,"<b>Usually I?m wrong about simple things, not complicated ones.",Highly disagree,61/94,Somewhat disagree,2,1708006793032,1708006796782,\Somewhat disagree\,\Somewhat disagree\,\2\,1708006796376,1708006796376,3344,3344,3750,buq,qns-item-noham,61,463164,0.0-1.0-0.60,65ce1b807fba858c567148be,AWAITING REVIEW,2024-02-15T14:11:16.264000Z,2024-02-15T14:24:03.040000Z,,2024-02-15T14:24:03.558325Z,767.0,CVPIIDEI,466,22,Female,Mixed,United States,United States,United States,English,DATA_EXPIRED,DATA_EXPIRED,Not Applicable
6109cbe82b017714005d9a07,<b>Getting all the information I want about important things is hard.,Highly disagree,62/94,Highly agree,4,1708006796783,1708006800905,\Highly agree\,\Highly agree\,\4\,1708006800529,1708006800529,3746,3746,4122,buq,qns-item-noham,62,467287,0.0-1.0-0.61,65ce1b807fba858c567148be,AWAITING REVIEW,2024-02-15T14:11:16.264000Z,2024-02-15T14:24:03.040000Z,,2024-02-15T14:24:03.558325Z,767.0,CVPIIDEI,466,22,Female,Mixed,United States,United States,United States,English,DATA_EXPIRED,DATA_EXPIRED,Not Applicable
6109cbe82b017714005d9a07,<b>Most false beliefs spread because people try to deceive one another.,Highly disagree,63/94,Somewhat agree,3,1708006800907,1708006808385,\Somewhat agree\,\Somewhat agree\,\3\,1708006807883,1708006807883,6976,6976,7478,buq,qns-item-noham,63,474767,0.0-1.0-0.62,65ce1b807fba858c567148be,AWAITING REVIEW,2024-02-15T14:11:16.264000Z,2024-02-15T14:24:03.040000Z,,2024-02-15T14:24:03.558325Z,767.0,CVPIIDEI,466,22,Female,Mixed,United States,United States,United States,English,DATA_EXPIRED,DATA_EXPIRED,Not Applicable
6109cbe82b017714005d9a07,<b>I can usually find something to agree with in most people?s beliefs.,Highly disagree,64/94,Highly agree,4,1708006808386,1708006812181,\Highly agree\,\Highly agree\,\4\,1708006811387,1708006811387,3001,3001,3795,buq,qns-item-noham,64,478563,0.0-1.0-0.63,65ce1b807fba858c567148be,AWAITING REVIEW,2024-02-15T14:11:16.264000Z,2024-02-15T14:24:03.040000Z,,2024-02-15T14:24:03.558325Z,767.0,CVPIIDEI,466,22,Female,Mixed,United States,United States,United States,English,DATA_EXPIRED,DATA_EXPIRED,Not Applicable
6109cbe82b017714005d9a07,<b>I only form my views of people once I get to know them very well.,Highly disagree,65/94,Somewhat agree,3,1708006812182,1708006818646,\Somewhat agree\,\Somewhat agree\,\3\,1708006817392,1708006817392,5210,5210,6464,buq,qns-item-noham,65,485028,0.0-1.0-0.64,65ce1b807fba858c567148be,AWAITING REVIEW,2024-02-15T14:11:16.264000Z,2024-02-15T14:24:03.040000Z,,2024-02-15T14:24:03.558325Z,767.0,CVPIIDEI,466,22,Female,Mixed,United States,United States,United States,English,DATA_EXPIRED,DATA_EXPIRED,Not Applicable
6109cbe82b017714005d9a07,"<b>When people tell me important things about the world, I usually believe them.",Highly disagree,66/94,Somewhat agree,3,1708006818648,1708006824782,\Somewhat agree\,\Somewhat agree\,\3\,1708006824142,1708006824142,5494,5494,6134,buq,qns-item-noham,66,491164,0.0-1.0-0.65,65ce1b807fba858c567148be,AWAITING REVIEW,2024-02-15T14:11:16.264000Z,2024-02-15T14:24:03.040000Z,,2024-02-15T14:24:03.558325Z,767.0,CVPIIDEI,466,22,Female,Mixed,United States,United States,United States,English,DATA_EXPIRED,DATA_EXPIRED,Not Applicable
6109cbe82b017714005d9a07,"<b>If a friend does something that upsets me, it reminds me what an unpredictable place the world is.",Highly disagree,67/94,Somewhat agree,3,1708006824784,1708006833616,\Somewhat agree\,\Somewhat agree\,\3\,1708006833251,1708006833251,8467,8467,8832,buq,qns-item-noham,67,499998,0.0-1.0-0.66,65ce1b807fba858c567148be,AWAITING REVIEW,2024-02-15T14:11:16.264000Z,2024-02-15T14:24:03.040000Z,,2024-02-15T14:24:03.558325Z,767.0,CVPIIDEI,466,22,Female,Mixed,United States,United States,United States,English,DATA_EXPIRED,DATA_EXPIRED,Not Applicable
6109cbe82b017714005d9a07,<b>People tend to believe whatever is good for their friends.,Highly disagree,68/94,Highly agree,4,1708006833617,1708006838544,\Highly agree\,\Highly agree\,\4\,1708006837672,1708006837672,4055,4055,4927,buq,qns-item-noham,68,504926,0.0-1.0-0.67,65ce1b807fba858c567148be,AWAITING REVIEW,2024-02-15T14:11:16.264000Z,2024-02-15T14:24:03.040000Z,,2024-02-15T14:24:03.558325Z,767.0,CVPIIDEI,466,22,Female,Mixed,United States,United States,United States,English,DATA_EXPIRED,DATA_EXPIRED,Not Applicable
6109cbe82b017714005d9a07,<b>I used to be more certain my beliefs were true.,Highly disagree,69/94,Somewhat disagree,2,1708006838546,1708006842834,\Somewhat disagree\,\Somewhat disagree\,\2\,1708006842329,1708006842329,3783,3783,4288,buq,qns-item-noham,69,509216,0.0-1.0-0.68,65ce1b807fba858c567148be,AWAITING REVIEW,2024-02-15T14:11:16.264000Z,2024-02-15T14:24:03.040000Z,,2024-02-15T14:24:03.558325Z,767.0,CVPIIDEI,466,22,Female,Mixed,United States,United States,United States,English,DATA_EXPIRED,DATA_EXPIRED,Not Applicable
6109cbe82b017714005d9a07,<b>It?s often pretty easy to figure out whether something is true based on who said it.,Highly disagree,70/94,Somewhat agree,3,1708006842836,1708006849271,\Somewhat agree\,\Somewhat agree\,\3\,1708006848876,1708006848876,6040,6040,6435,buq,qns-item-noham,70,515653,0.0-1.0-0.69,65ce1b807fba858c567148be,AWAITING REVIEW,2024-02-15T14:11:16.264000Z,2024-02-15T14:24:03.040000Z,,2024-02-15T14:24:03.558325Z,767.0,CVPIIDEI,466,22,Female,Mixed,United States,United States,United States,English,DATA_EXPIRED,DATA_EXPIRED,Not Applicable
6109cbe82b017714005d9a07,<b>I transform into a hummingbird every day.,Highly disagree,71/94,Highly disagree,1,1708006849272,1708006852256,\Highly disagree\,\Highly disagree\,\1\,1708006851664,1708006851664,2392,2392,2984,buq,qns-item-noham,71,518638,0.0-1.0-0.70,65ce1b807fba858c567148be,AWAITING REVIEW,2024-02-15T14:11:16.264000Z,2024-02-15T14:24:03.040000Z,,2024-02-15T14:24:03.558325Z,767.0,CVPIIDEI,466,22,Female,Mixed,United States,United States,United States,English,DATA_EXPIRED,DATA_EXPIRED,Not Applicable
6109cbe82b017714005d9a07,<b>I think a lot about arguments against my views.,Highly disagree,72/94,Somewhat agree,3,1708006852257,1708006857665,\Somewhat agree\,\Somewhat agree\,\3\,1708006857056,1708006857056,4799,4799,5408,buq,qns-item-noham,72,524047,0.0-1.0-0.71,65ce1b807fba858c567148be,AWAITING REVIEW,2024-02-15T14:11:16.264000Z,2024-02-15T14:24:03.040000Z,,2024-02-15T14:24:03.558325Z,767.0,CVPIIDEI,466,22,Female,Mixed,United States,United States,United States,English,DATA_EXPIRED,DATA_EXPIRED,Not Applicable
6109cbe82b017714005d9a07,<b>Personal experience is usually more important than facts and figures.,Highly disagree,73/94,Somewhat disagree,2,1708006857666,1708006861658,\Somewhat disagree\,\Somewhat disagree\,\2\,1708006860904,1708006860904,3238,3238,3992,buq,qns-item-noham,73,528040,0.0-1.0-0.72,65ce1b807fba858c567148be,AWAITING REVIEW,2024-02-15T14:11:16.264000Z,2024-02-15T14:24:03.040000Z,,2024-02-15T14:24:03.558325Z,767.0,CVPIIDEI,466,22,Female,Mixed,United States,United States,United States,English,DATA_EXPIRED,DATA_EXPIRED,Not Applicable
6109cbe82b017714005d9a07,<b>I?ve been tricked before about important matters.,Highly disagree,74/94,Highly agree,4,1708006861660,1708006865537,\Highly agree\,\Highly agree\,\4\,1708006865161,1708006865161,3501,3501,3877,buq,qns-item-noham,74,531919,0.0-1.0-0.73,65ce1b807fba858c567148be,AWAITING REVIEW,2024-02-15T14:11:16.264000Z,2024-02-15T14:24:03.040000Z,,2024-02-15T14:24:03.558325Z,767.0,CVPIIDEI,466,22,Female,Mixed,United States,United States,United States,English,DATA_EXPIRED,DATA_EXPIRED,Not Applicable
6109cbe82b017714005d9a07,<b>I would need to be totally wowed if I were to change my opinion of a restaurant I don?t like.,Highly disagree,75/94,Somewhat disagree,2,1708006865538,1708006871747,\Somewhat disagree\,\Somewhat disagree\,\2\,1708006870504,1708006870504,4966,4966,6209,buq,qns-item-noham,75,538129,0.0-1.0-0.74,65ce1b807fba858c567148be,AWAITING REVIEW,2024-02-15T14:11:16.264000Z,2024-02-15T14:24:03.040000Z,,2024-02-15T14:24:03.558325Z,767.0,CVPIIDEI,466,22,Female,Mixed,United States,United States,United States,English,DATA_EXPIRED,DATA_EXPIRED,Not Applicable
6109cbe82b017714005d9a07,<b>I care a lot about politics.,Highly disagree,76/94,Highly disagree,1,1708006871748,1708006876034,\Highly disagree\,\Highly disagree\,\1\,1708006875044,1708006875044,3296,3296,4286,buq,qns-item-noham,76,542416,0.0-1.0-0.75,65ce1b807fba858c567148be,AWAITING REVIEW,2024-02-15T14:11:16.264000Z,2024-02-15T14:24:03.040000Z,,2024-02-15T14:24:03.558325Z,767.0,CVPIIDEI,466,22,Female,Mixed,United States,United States,United States,English,DATA_EXPIRED,DATA_EXPIRED,Not Applicable
6109cbe82b017714005d9a07,<b>There are some topics I?ve been really wrong about.,Highly disagree,77/94,Somewhat agree,3,1708006876036,1708006880759,\Somewhat agree\,\Somewhat agree\,\3\,1708006879772,1708006879772,3736,3736,4723,buq,qns-item-noham,77,547141,0.0-1.0-0.76,65ce1b807fba858c567148be,AWAITING REVIEW,2024-02-15T14:11:16.264000Z,2024-02-15T14:24:03.040000Z,,2024-02-15T14:24:03.558325Z,767.0,CVPIIDEI,466,22,Female,Mixed,United States,United States,United States,English,DATA_EXPIRED,DATA_EXPIRED,Not Applicable
6109cbe82b017714005d9a07,<b>Most beliefs can be supported with at least some evidence.,Highly disagree,78/94,Somewhat disagree,2,1708006880761,1708006891683,\Somewhat disagree\,\Somewhat disagree\,\2\,1708006890965,1708006890965,10204,10204,10922,buq,qns-item-noham,78,558065,0.0-1.0-0.77,65ce1b807fba858c567148be,AWAITING REVIEW,2024-02-15T14:11:16.264000Z,2024-02-15T14:24:03.040000Z,,2024-02-15T14:24:03.558325Z,767.0,CVPIIDEI,466,22,Female,Mixed,United States,United States,United States,English,DATA_EXPIRED,DATA_EXPIRED,Not Applicable
6109cbe82b017714005d9a07,<b>Other people make life out to be more complicated than it really is.,Highly disagree,79/94,Somewhat agree,3,1708006891684,1708006895979,\Somewhat agree\,\Somewhat agree\,\3\,1708006895558,1708006895558,3874,3874,4295,buq,qns-item-noham,79,562361,0.0-1.0-0.78,65ce1b807fba858c567148be,AWAITING REVIEW,2024-02-15T14:11:16.264000Z,2024-02-15T14:24:03.040000Z,,2024-02-15T14:24:03.558325Z,767.0,CVPIIDEI,466,22,Female,Mixed,United States,United States,United States,English,DATA_EXPIRED,DATA_EXPIRED,Not Applicable
6109cbe82b017714005d9a07,"<b>Policy details don?t matter much, just the big picture.",Highly disagree,80/94,Somewhat disagree,2,1708006895980,1708006902905,\Somewhat disagree\,\Somewhat disagree\,\2\,1708006902460,1708006902460,6480,6480,6925,buq,qns-item-noham,80,569287,0.0-1.0-0.79,65ce1b807fba858c567148be,AWAITING REVIEW,2024-02-15T14:11:16.264000Z,2024-02-15T14:24:03.040000Z,,2024-02-15T14:24:03.558325Z,767.0,CVPIIDEI,466,22,Female,Mixed,United States,United States,United States,English,DATA_EXPIRED,DATA_EXPIRED,Not Applicable
6109cbe82b017714005d9a07,<b>I know my friends so well they can hardly ever surprise me.,Highly disagree,81/94,Somewhat agree,3,1708006902907,1708006907376,\Somewhat agree\,\Somewhat agree\,\3\,1708006906960,1708006906960,4053,4053,4469,buq,qns-item-noham,81,573758,0.0-1.0-0.80,65ce1b807fba858c567148be,AWAITING REVIEW,2024-02-15T14:11:16.264000Z,2024-02-15T14:24:03.040000Z,,2024-02-15T14:24:03.558325Z,767.0,CVPIIDEI,466,22,Female,Mixed,United States,United States,United States,English,DATA_EXPIRED,DATA_EXPIRED,Not Applicable
6109cbe82b017714005d9a07,<b>I do not often change my views on people.,Highly disagree,82/94,Somewhat disagree,2,1708006907377,1708006911292,\Somewhat disagree\,\Somewhat disagree\,\2\,1708006910822,1708006910822,3445,3445,3915,buq,qns-item-noham,82,577674,0.0-1.0-0.81,65ce1b807fba858c567148be,AWAITING REVIEW,2024-02-15T14:11:16.264000Z,2024-02-15T14:24:03.040000Z,,2024-02-15T14:24:03.558325Z,767.0,CVPIIDEI,466,22,Female,Mixed,United States,United States,United States,English,DATA_EXPIRED,DATA_EXPIRED,Not Applicable
6109cbe82b017714005d9a07,<b>I?m more certain about my beliefs than I used to be.,Highly disagree,83/94,Highly agree,4,1708006911294,1708006915231,\Highly agree\,\Highly agree\,\4\,1708006914807,1708006914807,3513,3513,3937,buq,qns-item-noham,83,581613,0.0-1.0-0.82,65ce1b807fba858c567148be,AWAITING REVIEW,2024-02-15T14:11:16.264000Z,2024-02-15T14:24:03.040000Z,,2024-02-15T14:24:03.558325Z,767.0,CVPIIDEI,466,22,Female,Mixed,United States,United States,United States,English,DATA_EXPIRED,DATA_EXPIRED,Not Applicable
6109cbe82b017714005d9a07,<b>People often tell falsehoods unintentionally.,Highly disagree,84/94,Somewhat agree,3,1708006915232,1708006919172,\Somewhat agree\,\Somewhat agree\,\3\,1708006918758,1708006918758,3526,3526,3940,buq,qns-item-noham,84,585554,0.0-1.0-0.83,65ce1b807fba858c567148be,AWAITING REVIEW,2024-02-15T14:11:16.264000Z,2024-02-15T14:24:03.040000Z,,2024-02-15T14:24:03.558325Z,767.0,CVPIIDEI,466,22,Female,Mixed,United States,United States,United States,English,DATA_EXPIRED,DATA_EXPIRED,Not Applicable
6109cbe82b017714005d9a07,<b>Most people don?t know much about most things.,Highly disagree,85/94,Somewhat agree,3,1708006919173,1708006923360,\Somewhat agree\,\Somewhat agree\,\3\,1708006922736,1708006922736,3563,3563,4187,buq,qns-item-noham,85,589742,0.0-1.0-0.84,65ce1b807fba858c567148be,AWAITING REVIEW,2024-02-15T14:11:16.264000Z,2024-02-15T14:24:03.040000Z,,2024-02-15T14:24:03.558325Z,767.0,CVPIIDEI,466,22,Female,Mixed,United States,United States,United States,English,DATA_EXPIRED,DATA_EXPIRED,Not Applicable
6109cbe82b017714005d9a07,"<b>If I find out something new about someone, I easily change my views about them.",Highly disagree,86/94,Somewhat agree,3,1708006923362,1708006934009,\Somewhat disagree\,\Somewhat agree\,\2\,1708006930875,1708006933234,7513,9872,10647,buq,qns-item-noham,86,600391,0.0-1.0-0.85,65ce1b807fba858c567148be,AWAITING REVIEW,2024-02-15T14:11:16.264000Z,2024-02-15T14:24:03.040000Z,,2024-02-15T14:24:03.558325Z,767.0,CVPIIDEI,466,22,Female,Mixed,United States,United States,United States,English,DATA_EXPIRED,DATA_EXPIRED,Not Applicable
6109cbe82b017714005d9a07,<b>Having true beliefs is difficult.,Highly disagree,87/94,Highly agree,4,1708006934011,1708006937579,\Highly agree\,\Highly agree\,\4\,1708006936798,1708006936798,2787,2787,3568,buq,qns-item-noham,87,603961,0.0-1.0-0.86,65ce1b807fba858c567148be,AWAITING REVIEW,2024-02-15T14:11:16.264000Z,2024-02-15T14:24:03.040000Z,,2024-02-15T14:24:03.558325Z,767.0,CVPIIDEI,466,22,Female,Mixed,United States,United States,United States,English,DATA_EXPIRED,DATA_EXPIRED,Not Applicable
6109cbe82b017714005d9a07,<b>I don?t try new foods since I know I won?t like them.,Highly disagree,88/94,Highly disagree,1,1708006937580,1708006941888,\Highly disagree\,\Highly disagree\,\1\,1708006941015,1708006941015,3435,3435,4308,buq,qns-item-noham,88,608270,0.0-1.0-0.87,65ce1b807fba858c567148be,AWAITING REVIEW,2024-02-15T14:11:16.264000Z,2024-02-15T14:24:03.040000Z,,2024-02-15T14:24:03.558325Z,767.0,CVPIIDEI,466,22,Female,Mixed,United States,United States,United States,English,DATA_EXPIRED,DATA_EXPIRED,Not Applicable
6109cbe82b017714005d9a07,<b>Other people trick each other a lot.,Highly disagree,89/94,Somewhat agree,3,1708006941890,1708006946632,\Somewhat agree\,\Somewhat agree\,\3\,1708006946134,1708006946134,4244,4244,4742,buq,qns-item-noham,89,613014,0.0-1.0-0.88,65ce1b807fba858c567148be,AWAITING REVIEW,2024-02-15T14:11:16.264000Z,2024-02-15T14:24:03.040000Z,,2024-02-15T14:24:03.558325Z,767.0,CVPIIDEI,466,22,Female,Mixed,United States,United States,United States,English,DATA_EXPIRED,DATA_EXPIRED,Not Applicable
6109cbe82b017714005d9a07,<b>I would need to learn a lot about a person for my opinion of them to be swayed.,Highly disagree,90/94,Somewhat disagree,2,1708006946633,1708006952907,\Somewhat disagree\,\Somewhat disagree\,\2\,1708006952492,1708006952492,5859,5859,6274,buq,qns-item-noham,90,619289,0.0-1.0-0.89,65ce1b807fba858c567148be,AWAITING REVIEW,2024-02-15T14:11:16.264000Z,2024-02-15T14:24:03.040000Z,,2024-02-15T14:24:03.558325Z,767.0,CVPIIDEI,466,22,Female,Mixed,United States,United States,United States,English,DATA_EXPIRED,DATA_EXPIRED,Not Applicable
6109cbe82b017714005d9a07,<b>People can?t usually trick me when it comes to topics I care about.,Highly disagree,91/94,Somewhat agree,3,1708006952909,1708006957241,\Somewhat agree\,\Somewhat agree\,\3\,1708006956837,1708006956837,3928,3928,4332,buq,qns-item-noham,91,623623,0.0-1.0-0.90,65ce1b807fba858c567148be,AWAITING REVIEW,2024-02-15T14:11:16.264000Z,2024-02-15T14:24:03.040000Z,,2024-02-15T14:24:03.558325Z,767.0,CVPIIDEI,466,22,Female,Mixed,United States,United States,United States,English,DATA_EXPIRED,DATA_EXPIRED,Not Applicable
6109cbe82b017714005d9a07,<b>I do not often change my views on food.,Highly disagree,92/94,Highly agree,4,1708006957243,1708006961526,\Highly agree\,\Highly agree\,\4\,1708006960494,1708006960494,3251,3251,4283,buq,qns-item-noham,92,627908,0.0-1.0-0.91,65ce1b807fba858c567148be,AWAITING REVIEW,2024-02-15T14:11:16.264000Z,2024-02-15T14:24:03.040000Z,,2024-02-15T14:24:03.558325Z,767.0,CVPIIDEI,466,22,Female,Mixed,United States,United States,United States,English,DATA_EXPIRED,DATA_EXPIRED,Not Applicable
6109cbe82b017714005d9a07,<b>Specific policies are often very important to me.,Highly disagree,93/94,Somewhat disagree,2,1708006961528,1708006967933,\Somewhat disagree\,\Somewhat disagree\,\2\,1708006966968,1708006966968,5440,5440,6405,buq,qns-item-noham,93,634315,0.0-1.0-0.92,65ce1b807fba858c567148be,AWAITING REVIEW,2024-02-15T14:11:16.264000Z,2024-02-15T14:24:03.040000Z,,2024-02-15T14:24:03.558325Z,767.0,CVPIIDEI,466,22,Female,Mixed,United States,United States,United States,English,DATA_EXPIRED,DATA_EXPIRED,Not Applicable
6109cbe82b017714005d9a07,<b>Most people are woefully under-informed.,Highly disagree,94/94,Highly agree,4,1708006967935,1708006971574,\Highly agree\,\Highly agree\,\4\,1708006971142,1708006971142,3207,3207,3639,buq,qns-item-noham,94,637956,0.0-1.0-0.93,65ce1b807fba858c567148be,AWAITING REVIEW,2024-02-15T14:11:16.264000Z,2024-02-15T14:24:03.040000Z,,2024-02-15T14:24:03.558325Z,767.0,CVPIIDEI,466,22,Female,Mixed,United States,United States,United States,English,DATA_EXPIRED,DATA_EXPIRED,Not Applicable
6109cbe82b017714005d9a07,,,,,,,,,,,,,,,,,,,,,65ce1b807fba858c567148be,AWAITING REVIEW,2024-02-15T14:11:16.264000Z,2024-02-15T14:24:03.040000Z,,2024-02-15T14:24:03.558325Z,767.0,CVPIIDEI,466,22,Female,Mixed,United States,United States,United States,English,DATA_EXPIRED,DATA_EXPIRED,Not Applicable
