PROLIFIC_PID,Question,qns_options,quest_num,answer,answer_num,question_load_timestamp,next_btn_timestamp,text_selected,final_text_selected,option_num_selected,preview_timestamps,final_text_selected_time_stamp,rt_first_option_click,rt_final_option_click,rt_submit_click,questionnaire,trial_type,trial_index,time_elapsed,internal_node_id,Demographic_Submission id,Demographic_Status,Demographic_Started at,Demographic_Completed at,Demographic_Reviewed at,Demographic_Archived at,Demographic_Time taken,Demographic_Completion code,Demographic_Total approvals,Demographic_Age,Demographic_Sex,Demographic_Ethnicity simplified,Demographic_Country of birth,Demographic_Country of residence,Demographic_Nationality,Demographic_Language,Demographic_Student status,Demographic_Employment status,Demographic_Custom study tncs accepted at
56213a1aed6e5a0005c7f760,<b>Knowing what?s true and knowing what to do about it are usually basically the same.,Highly disagree,1/94,Somewhat disagree,2,1708007026012,1708007037105,\Somewhat disagree\,\Somewhat disagree\,\2\,1708007034106,1708007034106,8094,8094,11093,buq,qns-item-noham,1,257801,0.0-1.0-0.0,65ce1d3cce2e52ff64afc47d,AWAITING REVIEW,2024-02-15T14:18:45.404000Z,2024-02-15T14:35:37.578000Z,,2024-02-15T14:35:38.066548Z,1013.0,CVPIIDEI,2409,39,Male,White,United States,United States,United States,English,No,Full-Time,Not Applicable
56213a1aed6e5a0005c7f760,<b>Most people just believe whatever is convenient for them.,Highly disagree,2/94,Somewhat agree,3,1708007037124,1708007041296,\Somewhat agree\,\Somewhat agree\,\3\,1708007040259,1708007040259,3135,3135,4172,buq,qns-item-noham,2,261992,0.0-1.0-0.1,65ce1d3cce2e52ff64afc47d,AWAITING REVIEW,2024-02-15T14:18:45.404000Z,2024-02-15T14:35:37.578000Z,,2024-02-15T14:35:38.066548Z,1013.0,CVPIIDEI,2409,39,Male,White,United States,United States,United States,English,No,Full-Time,Not Applicable
56213a1aed6e5a0005c7f760,<b>Having some big beliefs helps me sort out minor ones.,Highly disagree,3/94,Somewhat agree,3,1708007041299,1708007046624,\Somewhat agree\,\Somewhat agree\,\3\,1708007045594,1708007045594,4295,4295,5325,buq,qns-item-noham,3,267320,0.0-1.0-0.2,65ce1d3cce2e52ff64afc47d,AWAITING REVIEW,2024-02-15T14:18:45.404000Z,2024-02-15T14:35:37.578000Z,,2024-02-15T14:35:38.066548Z,1013.0,CVPIIDEI,2409,39,Male,White,United States,United States,United States,English,No,Full-Time,Not Applicable
56213a1aed6e5a0005c7f760,<b>Political questions are usually pretty complicated.,Highly disagree,4/94,Highly agree,4,1708007046628,1708007050484,\Highly agree\,\Highly agree\,\4\,1708007049343,1708007049343,2715,2715,3856,buq,qns-item-noham,4,271180,0.0-1.0-0.3,65ce1d3cce2e52ff64afc47d,AWAITING REVIEW,2024-02-15T14:18:45.404000Z,2024-02-15T14:35:37.578000Z,,2024-02-15T14:35:38.066548Z,1013.0,CVPIIDEI,2409,39,Male,White,United States,United States,United States,English,No,Full-Time,Not Applicable
56213a1aed6e5a0005c7f760,<b>Figuring out what?s important in life requires learning a lot of facts.,Highly disagree,5/94,Somewhat agree,3,1708007050490,1708007055723,\Somewhat agree\,\Somewhat agree\,\3\,1708007053671,1708007053671,3181,3181,5233,buq,qns-item-noham,5,276419,0.0-1.0-0.4,65ce1d3cce2e52ff64afc47d,AWAITING REVIEW,2024-02-15T14:18:45.404000Z,2024-02-15T14:35:37.578000Z,,2024-02-15T14:35:38.066548Z,1013.0,CVPIIDEI,2409,39,Male,White,United States,United States,United States,English,No,Full-Time,Not Applicable
56213a1aed6e5a0005c7f760,<b>It is difficult for me to remember the last time I was surprised by politics.,Highly disagree,6/94,Somewhat disagree,2,1708007055729,1708007064533,\Somewhat disagree\,\Somewhat disagree\,\2\,1708007063667,1708007063667,7938,7938,8804,buq,qns-item-noham,6,285229,0.0-1.0-0.5,65ce1d3cce2e52ff64afc47d,AWAITING REVIEW,2024-02-15T14:18:45.404000Z,2024-02-15T14:35:37.578000Z,,2024-02-15T14:35:38.066548Z,1013.0,CVPIIDEI,2409,39,Male,White,United States,United States,United States,English,No,Full-Time,Not Applicable
56213a1aed6e5a0005c7f760,<b>People?s false beliefs are understandable.,Highly disagree,7/94,Somewhat disagree,2,1708007064540,1708007072020,\Somewhat agree\,\Somewhat disagree\,\3\,1708007069443,1708007071073,4903,6533,7480,buq,qns-item-noham,7,292716,0.0-1.0-0.6,65ce1d3cce2e52ff64afc47d,AWAITING REVIEW,2024-02-15T14:18:45.404000Z,2024-02-15T14:35:37.578000Z,,2024-02-15T14:35:38.066548Z,1013.0,CVPIIDEI,2409,39,Male,White,United States,United States,United States,English,No,Full-Time,Not Applicable
56213a1aed6e5a0005c7f760,<b>I spend a lot of time trying to be informed about politics.,Highly disagree,8/94,Somewhat agree,3,1708007072025,1708007075404,\Somewhat agree\,\Somewhat agree\,\3\,1708007074409,1708007074409,2384,2384,3379,buq,qns-item-noham,8,296100,0.0-1.0-0.7,65ce1d3cce2e52ff64afc47d,AWAITING REVIEW,2024-02-15T14:18:45.404000Z,2024-02-15T14:35:37.578000Z,,2024-02-15T14:35:38.066548Z,1013.0,CVPIIDEI,2409,39,Male,White,United States,United States,United States,English,No,Full-Time,Not Applicable
56213a1aed6e5a0005c7f760,<b>I think a lot about whether my beliefs are right.,Highly disagree,9/94,Somewhat agree,3,1708007075410,1708007081193,\Somewhat agree\,\Somewhat agree\,\3\,1708007078764,1708007078764,3354,3354,5783,buq,qns-item-noham,9,301889,0.0-1.0-0.8,65ce1d3cce2e52ff64afc47d,AWAITING REVIEW,2024-02-15T14:18:45.404000Z,2024-02-15T14:35:37.578000Z,,2024-02-15T14:35:38.066548Z,1013.0,CVPIIDEI,2409,39,Male,White,United States,United States,United States,English,No,Full-Time,Not Applicable
56213a1aed6e5a0005c7f760,<b>Statistics can be pretty misleading sometimes.,Highly disagree,10/94,Somewhat agree,3,1708007081198,1708007084093,\Somewhat agree\,\Somewhat agree\,\3\,1708007083131,1708007083131,1933,1933,2895,buq,qns-item-noham,10,304789,0.0-1.0-0.9,65ce1d3cce2e52ff64afc47d,AWAITING REVIEW,2024-02-15T14:18:45.404000Z,2024-02-15T14:35:37.578000Z,,2024-02-15T14:35:38.066548Z,1013.0,CVPIIDEI,2409,39,Male,White,United States,United States,United States,English,No,Full-Time,Not Applicable
56213a1aed6e5a0005c7f760,<b>I have lots of beliefs that I?m only sort of sure about.,Highly disagree,11/94,Highly agree,4,1708007084097,1708007088132,\Somewhat agree\,\Highly agree\,\3\,1708007086356,1708007087100,2259,3003,4035,buq,qns-item-noham,11,308828,0.0-1.0-0.10,65ce1d3cce2e52ff64afc47d,AWAITING REVIEW,2024-02-15T14:18:45.404000Z,2024-02-15T14:35:37.578000Z,,2024-02-15T14:35:38.066548Z,1013.0,CVPIIDEI,2409,39,Male,White,United States,United States,United States,English,No,Full-Time,Not Applicable
56213a1aed6e5a0005c7f760,"<b>If I go to my favorite restaurant and the food is surprisingly bad, it reminds me there are many disappointments in life.",Highly disagree,12/94,Somewhat disagree,2,1708007088137,1708007093766,\Somewhat disagree\,\Somewhat disagree\,\2\,1708007092218,1708007092218,4081,4081,5629,buq,qns-item-noham,12,314462,0.0-1.0-0.11,65ce1d3cce2e52ff64afc47d,AWAITING REVIEW,2024-02-15T14:18:45.404000Z,2024-02-15T14:35:37.578000Z,,2024-02-15T14:35:38.066548Z,1013.0,CVPIIDEI,2409,39,Male,White,United States,United States,United States,English,No,Full-Time,Not Applicable
56213a1aed6e5a0005c7f760,"<b>If you are paying attention, please select ?Somewhat agree?",Highly disagree,13/94,Somewhat agree,3,1708007093771,1708007096821,\Somewhat agree\,\Somewhat agree\,\3\,1708007095841,1708007095841,2070,2070,3050,buq,qns-item-noham,13,317517,0.0-1.0-0.12,65ce1d3cce2e52ff64afc47d,AWAITING REVIEW,2024-02-15T14:18:45.404000Z,2024-02-15T14:35:37.578000Z,,2024-02-15T14:35:38.066548Z,1013.0,CVPIIDEI,2409,39,Male,White,United States,United States,United States,English,No,Full-Time,Not Applicable
56213a1aed6e5a0005c7f760,"<b>When I talk to others, I often worry I?ll convince them of something I didn?t mean to.",Highly disagree,14/94,Highly disagree,1,1708007096826,1708007106053,\Somewhat disagree\,\Highly disagree\,\2\,1708007103883,1708007104992,7057,8166,9227,buq,qns-item-noham,14,326749,0.0-1.0-0.13,65ce1d3cce2e52ff64afc47d,AWAITING REVIEW,2024-02-15T14:18:45.404000Z,2024-02-15T14:35:37.578000Z,,2024-02-15T14:35:38.066548Z,1013.0,CVPIIDEI,2409,39,Male,White,United States,United States,United States,English,No,Full-Time,Not Applicable
56213a1aed6e5a0005c7f760,<b>I would need to learn something utterly shocking about my party in order to change my political views.,Highly disagree,15/94,Highly agree,4,1708007106058,1708007116349,\Highly agree\,\Highly agree\,\4\,1708007115274,1708007115274,9216,9216,10291,buq,qns-item-noham,15,337045,0.0-1.0-0.14,65ce1d3cce2e52ff64afc47d,AWAITING REVIEW,2024-02-15T14:18:45.404000Z,2024-02-15T14:35:37.578000Z,,2024-02-15T14:35:38.066548Z,1013.0,CVPIIDEI,2409,39,Male,White,United States,United States,United States,English,No,Full-Time,Not Applicable
56213a1aed6e5a0005c7f760,"<b>When I have new experiences, I tend to think of them as unique.",Highly disagree,16/94,Somewhat disagree,2,1708007116352,1708007121935,\Somewhat disagree\,\Somewhat disagree\,\2\,1708007120990,1708007120990,4638,4638,5583,buq,qns-item-noham,16,342631,0.0-1.0-0.15,65ce1d3cce2e52ff64afc47d,AWAITING REVIEW,2024-02-15T14:18:45.404000Z,2024-02-15T14:35:37.578000Z,,2024-02-15T14:35:38.066548Z,1013.0,CVPIIDEI,2409,39,Male,White,United States,United States,United States,English,No,Full-Time,Not Applicable
56213a1aed6e5a0005c7f760,<b>I change my mind about specific policies pretty frequently.,Highly disagree,17/94,Somewhat disagree,2,1708007121937,1708007126449,\Somewhat disagree\,\Somewhat disagree\,\2\,1708007125575,1708007125575,3638,3638,4512,buq,qns-item-noham,17,347145,0.0-1.0-0.16,65ce1d3cce2e52ff64afc47d,AWAITING REVIEW,2024-02-15T14:18:45.404000Z,2024-02-15T14:35:37.578000Z,,2024-02-15T14:35:38.066548Z,1013.0,CVPIIDEI,2409,39,Male,White,United States,United States,United States,English,No,Full-Time,Not Applicable
56213a1aed6e5a0005c7f760,"<b>If a politician in my political party supports something I disagree with, I give them the benefit of the doubt, as such issues often involve hidden complexities that aren?t obvious.   ",Highly disagree,18/94,Somewhat agree,3,1708007126458,1708007135465,\Somewhat agree\,\Somewhat agree\,\3\,1708007134490,1708007134490,8032,8032,9007,buq,qns-item-noham,18,356161,0.0-1.0-0.17,65ce1d3cce2e52ff64afc47d,AWAITING REVIEW,2024-02-15T14:18:45.404000Z,2024-02-15T14:35:37.578000Z,,2024-02-15T14:35:38.066548Z,1013.0,CVPIIDEI,2409,39,Male,White,United States,United States,United States,English,No,Full-Time,Not Applicable
56213a1aed6e5a0005c7f760,<b>People?s bad politics are usually motivated by hatefulness.,Highly disagree,19/94,Highly agree,4,1708007135474,1708007139492,\Highly agree\,\Highly agree\,\4\,1708007138406,1708007138406,2932,2932,4018,buq,qns-item-noham,19,360188,0.0-1.0-0.18,65ce1d3cce2e52ff64afc47d,AWAITING REVIEW,2024-02-15T14:18:45.404000Z,2024-02-15T14:35:37.578000Z,,2024-02-15T14:35:38.066548Z,1013.0,CVPIIDEI,2409,39,Male,White,United States,United States,United States,English,No,Full-Time,Not Applicable
56213a1aed6e5a0005c7f760,<b>I think a lot about how to reconcile my beliefs with one another.,Highly disagree,20/94,Somewhat disagree,2,1708007139508,1708007145441,\Somewhat disagree\,\Somewhat disagree\,\2\,1708007144564,1708007144564,5056,5056,5933,buq,qns-item-noham,20,366137,0.0-1.0-0.19,65ce1d3cce2e52ff64afc47d,AWAITING REVIEW,2024-02-15T14:18:45.404000Z,2024-02-15T14:35:37.578000Z,,2024-02-15T14:35:38.066548Z,1013.0,CVPIIDEI,2409,39,Male,White,United States,United States,United States,English,No,Full-Time,Not Applicable
56213a1aed6e5a0005c7f760,<b>I might have false beliefs about important topics.,Highly disagree,21/94,Somewhat disagree,2,1708007145444,1708007153121,\Somewhat agree\,\Somewhat disagree\,\3\,1708007151081,1708007151826,5637,6382,7677,buq,qns-item-noham,21,373817,0.0-1.0-0.20,65ce1d3cce2e52ff64afc47d,AWAITING REVIEW,2024-02-15T14:18:45.404000Z,2024-02-15T14:35:37.578000Z,,2024-02-15T14:35:38.066548Z,1013.0,CVPIIDEI,2409,39,Male,White,United States,United States,United States,English,No,Full-Time,Not Applicable
56213a1aed6e5a0005c7f760,"<b>If a good friend of mine does something unexpected that upsets me, I feel like I don?t know them anymore.",Highly disagree,22/94,Somewhat agree,3,1708007153126,1708007166983,\Somewhat agree\,\Somewhat agree\,\3\,1708007165879,1708007165879,12753,12753,13857,buq,qns-item-noham,22,387679,0.0-1.0-0.21,65ce1d3cce2e52ff64afc47d,AWAITING REVIEW,2024-02-15T14:18:45.404000Z,2024-02-15T14:35:37.578000Z,,2024-02-15T14:35:38.066548Z,1013.0,CVPIIDEI,2409,39,Male,White,United States,United States,United States,English,No,Full-Time,Not Applicable
56213a1aed6e5a0005c7f760,<b>Other people?s beliefs are often incoherent.,Highly disagree,23/94,Somewhat agree,3,1708007166987,1708007170907,\Somewhat agree\,\Somewhat agree\,\3\,1708007169848,1708007169848,2861,2861,3920,buq,qns-item-noham,23,391603,0.0-1.0-0.22,65ce1d3cce2e52ff64afc47d,AWAITING REVIEW,2024-02-15T14:18:45.404000Z,2024-02-15T14:35:37.578000Z,,2024-02-15T14:35:38.066548Z,1013.0,CVPIIDEI,2409,39,Male,White,United States,United States,United States,English,No,Full-Time,Not Applicable
56213a1aed6e5a0005c7f760,"<b>Every now and then, a new experience will unsettle beliefs I?ve had for a while.",Highly disagree,24/94,Somewhat agree,3,1708007170912,1708007176139,\Somewhat agree\,\Somewhat agree\,\3\,1708007174924,1708007174924,4012,4012,5227,buq,qns-item-noham,24,396836,0.0-1.0-0.23,65ce1d3cce2e52ff64afc47d,AWAITING REVIEW,2024-02-15T14:18:45.404000Z,2024-02-15T14:35:37.578000Z,,2024-02-15T14:35:38.066548Z,1013.0,CVPIIDEI,2409,39,Male,White,United States,United States,United States,English,No,Full-Time,Not Applicable
56213a1aed6e5a0005c7f760,<b>Some policies I agree with in principle are so bad I don?t support them. ,Highly disagree,25/94,Somewhat disagree,2,1708007176144,1708007186159,\Somewhat agree\,\Somewhat disagree\,\3\,1708007182701,1708007185131,6557,8987,10015,buq,qns-item-noham,25,406855,0.0-1.0-0.24,65ce1d3cce2e52ff64afc47d,AWAITING REVIEW,2024-02-15T14:18:45.404000Z,2024-02-15T14:35:37.578000Z,,2024-02-15T14:35:38.066548Z,1013.0,CVPIIDEI,2409,39,Male,White,United States,United States,United States,English,No,Full-Time,Not Applicable
56213a1aed6e5a0005c7f760,<b>I?m pretty sure I?ve accidentally spread false information.,Highly disagree,26/94,Somewhat agree,3,1708007186163,1708007189564,\Somewhat agree\,\Somewhat agree\,\3\,1708007188548,1708007188548,2385,2385,3401,buq,qns-item-noham,26,410260,0.0-1.0-0.25,65ce1d3cce2e52ff64afc47d,AWAITING REVIEW,2024-02-15T14:18:45.404000Z,2024-02-15T14:35:37.578000Z,,2024-02-15T14:35:38.066548Z,1013.0,CVPIIDEI,2409,39,Male,White,United States,United States,United States,English,No,Full-Time,Not Applicable
56213a1aed6e5a0005c7f760,"<b>If I go to my favorite restaurant and the food is unexpectedly bad, then they have changed owners.",Highly disagree,27/94,Somewhat disagree,2,1708007189567,1708007195412,\Somewhat disagree\,\Somewhat disagree\,\2\,1708007194389,1708007194389,4822,4822,5845,buq,qns-item-noham,27,416108,0.0-1.0-0.26,65ce1d3cce2e52ff64afc47d,AWAITING REVIEW,2024-02-15T14:18:45.404000Z,2024-02-15T14:35:37.578000Z,,2024-02-15T14:35:38.066548Z,1013.0,CVPIIDEI,2409,39,Male,White,United States,United States,United States,English,No,Full-Time,Not Applicable
56213a1aed6e5a0005c7f760,"<b>In politics, it?s important to trust your friends and family.",Highly disagree,28/94,Highly disagree,1,1708007195415,1708007202632,\Highly disagree\,\Highly disagree\,\1\,1708007201641,1708007201641,6226,6226,7217,buq,qns-item-noham,28,423328,0.0-1.0-0.27,65ce1d3cce2e52ff64afc47d,AWAITING REVIEW,2024-02-15T14:18:45.404000Z,2024-02-15T14:35:37.578000Z,,2024-02-15T14:35:38.066548Z,1013.0,CVPIIDEI,2409,39,Male,White,United States,United States,United States,English,No,Full-Time,Not Applicable
56213a1aed6e5a0005c7f760,<b>It?s OK to have some conflicting beliefs.,Highly disagree,29/94,Somewhat agree,3,1708007202635,1708007206093,\Somewhat agree\,\Somewhat agree\,\3\,1708007204893,1708007204893,2258,2258,3458,buq,qns-item-noham,29,426789,0.0-1.0-0.28,65ce1d3cce2e52ff64afc47d,AWAITING REVIEW,2024-02-15T14:18:45.404000Z,2024-02-15T14:35:37.578000Z,,2024-02-15T14:35:38.066548Z,1013.0,CVPIIDEI,2409,39,Male,White,United States,United States,United States,English,No,Full-Time,Not Applicable
56213a1aed6e5a0005c7f760,<b>Listening to people I disagree with makes my opinions better.,Highly disagree,30/94,Somewhat disagree,2,1708007206098,1708007210647,\Somewhat disagree\,\Somewhat disagree\,\2\,1708007209549,1708007209549,3451,3451,4549,buq,qns-item-noham,30,431343,0.0-1.0-0.29,65ce1d3cce2e52ff64afc47d,AWAITING REVIEW,2024-02-15T14:18:45.404000Z,2024-02-15T14:35:37.578000Z,,2024-02-15T14:35:38.066548Z,1013.0,CVPIIDEI,2409,39,Male,White,United States,United States,United States,English,No,Full-Time,Not Applicable
56213a1aed6e5a0005c7f760,<b>My moral compass sometimes makes it harder to determine what?s true.,Highly disagree,31/94,Somewhat agree,3,1708007210653,1708007216679,\Somewhat agree\,\Somewhat agree\,\3\,1708007215416,1708007215416,4763,4763,6026,buq,qns-item-noham,31,437376,0.0-1.0-0.30,65ce1d3cce2e52ff64afc47d,AWAITING REVIEW,2024-02-15T14:18:45.404000Z,2024-02-15T14:35:37.578000Z,,2024-02-15T14:35:38.066548Z,1013.0,CVPIIDEI,2409,39,Male,White,United States,United States,United States,English,No,Full-Time,Not Applicable
56213a1aed6e5a0005c7f760,<b>Evidence pointing in the wrong direction isn?t really evidence at all.,Highly disagree,32/94,Somewhat disagree,2,1708007216684,1708007226807,\Somewhat disagree\,\Somewhat disagree\,\2\,1708007225744,1708007225744,9060,9060,10123,buq,qns-item-noham,32,447503,0.0-1.0-0.31,65ce1d3cce2e52ff64afc47d,AWAITING REVIEW,2024-02-15T14:18:45.404000Z,2024-02-15T14:35:37.578000Z,,2024-02-15T14:35:38.066548Z,1013.0,CVPIIDEI,2409,39,Male,White,United States,United States,United States,English,No,Full-Time,Not Applicable
56213a1aed6e5a0005c7f760,"<b>If the political party I support messes up, it makes me think politics is rotten.",Highly disagree,33/94,Somewhat disagree,2,1708007226810,1708007233204,\Somewhat disagree\,\Somewhat disagree\,\2\,1708007232136,1708007232136,5326,5326,6394,buq,qns-item-noham,33,453901,0.0-1.0-0.32,65ce1d3cce2e52ff64afc47d,AWAITING REVIEW,2024-02-15T14:18:45.404000Z,2024-02-15T14:35:37.578000Z,,2024-02-15T14:35:38.066548Z,1013.0,CVPIIDEI,2409,39,Male,White,United States,United States,United States,English,No,Full-Time,Not Applicable
56213a1aed6e5a0005c7f760,<b>Lots of important topics can only really be understood by some groups of people.,Highly disagree,34/94,Somewhat disagree,2,1708007233210,1708007335939,\Somewhat disagree\,\Somewhat disagree\,\2\,1708007334734,1708007334734,101524,101524,102729,buq,qns-item-noham,34,556635,0.0-1.0-0.33,65ce1d3cce2e52ff64afc47d,AWAITING REVIEW,2024-02-15T14:18:45.404000Z,2024-02-15T14:35:37.578000Z,,2024-02-15T14:35:38.066548Z,1013.0,CVPIIDEI,2409,39,Male,White,United States,United States,United States,English,No,Full-Time,Not Applicable
56213a1aed6e5a0005c7f760,<b>Having conflicting beliefs means you haven?t thought about them enough.,Highly disagree,35/94,Somewhat disagree,2,1708007335944,1708007339611,\Somewhat disagree\,\Somewhat disagree\,\2\,1708007338618,1708007338618,2674,2674,3667,buq,qns-item-noham,35,560307,0.0-1.0-0.34,65ce1d3cce2e52ff64afc47d,AWAITING REVIEW,2024-02-15T14:18:45.404000Z,2024-02-15T14:35:37.578000Z,,2024-02-15T14:35:38.066548Z,1013.0,CVPIIDEI,2409,39,Male,White,United States,United States,United States,English,No,Full-Time,Not Applicable
56213a1aed6e5a0005c7f760,<b>I do not often change my political opinions.,Highly disagree,36/94,Highly agree,4,1708007339615,1708007344100,\Somewhat agree\,\Highly agree\,\3\,1708007341253,1708007343119,1638,3504,4485,buq,qns-item-noham,36,564797,0.0-1.0-0.35,65ce1d3cce2e52ff64afc47d,AWAITING REVIEW,2024-02-15T14:18:45.404000Z,2024-02-15T14:35:37.578000Z,,2024-02-15T14:35:38.066548Z,1013.0,CVPIIDEI,2409,39,Male,White,United States,United States,United States,English,No,Full-Time,Not Applicable
56213a1aed6e5a0005c7f760,<b>It?s difficult to not have at least some conflicting beliefs.,Highly disagree,37/94,Somewhat agree,3,1708007344105,1708007347599,\Somewhat agree\,\Somewhat agree\,\3\,1708007346606,1708007346606,2501,2501,3494,buq,qns-item-noham,37,568295,0.0-1.0-0.36,65ce1d3cce2e52ff64afc47d,AWAITING REVIEW,2024-02-15T14:18:45.404000Z,2024-02-15T14:35:37.578000Z,,2024-02-15T14:35:38.066548Z,1013.0,CVPIIDEI,2409,39,Male,White,United States,United States,United States,English,No,Full-Time,Not Applicable
56213a1aed6e5a0005c7f760,<b>Wishful thinking causes a lot of problems.,Highly disagree,38/94,Somewhat disagree,2,1708007347604,1708007353591,\Somewhat agree\,\Somewhat disagree\,\3\,1708007350909,1708007352632,3305,5028,5987,buq,qns-item-noham,38,574288,0.0-1.0-0.37,65ce1d3cce2e52ff64afc47d,AWAITING REVIEW,2024-02-15T14:18:45.404000Z,2024-02-15T14:35:37.578000Z,,2024-02-15T14:35:38.066548Z,1013.0,CVPIIDEI,2409,39,Male,White,United States,United States,United States,English,No,Full-Time,Not Applicable
56213a1aed6e5a0005c7f760,<b>I judge a food item only once I try it many times.,Highly disagree,39/94,Somewhat disagree,2,1708007353596,1708007360024,\Somewhat disagree\,\Somewhat disagree\,\2\,1708007359181,1708007359181,5585,5585,6428,buq,qns-item-noham,39,580720,0.0-1.0-0.38,65ce1d3cce2e52ff64afc47d,AWAITING REVIEW,2024-02-15T14:18:45.404000Z,2024-02-15T14:35:37.578000Z,,2024-02-15T14:35:38.066548Z,1013.0,CVPIIDEI,2409,39,Male,White,United States,United States,United States,English,No,Full-Time,Not Applicable
56213a1aed6e5a0005c7f760,"<b>When a person holds conflicting beliefs, they should really try to figure out what?s wrong.",Highly disagree,40/94,Somewhat agree,3,1708007360028,1708007366012,\Somewhat disagree\,\Somewhat agree\,\2\,1708007364037,1708007365102,4009,5074,5984,buq,qns-item-noham,40,586709,0.0-1.0-0.39,65ce1d3cce2e52ff64afc47d,AWAITING REVIEW,2024-02-15T14:18:45.404000Z,2024-02-15T14:35:37.578000Z,,2024-02-15T14:35:38.066548Z,1013.0,CVPIIDEI,2409,39,Male,White,United States,United States,United States,English,No,Full-Time,Not Applicable
56213a1aed6e5a0005c7f760,<b>Knowing what?s important in life is easy.,Highly disagree,41/94,Somewhat agree,3,1708007366017,1708007371171,\Somewhat agree\,\Somewhat agree\,\3\,1708007370230,1708007370230,4213,4213,5154,buq,qns-item-noham,41,591867,0.0-1.0-0.40,65ce1d3cce2e52ff64afc47d,AWAITING REVIEW,2024-02-15T14:18:45.404000Z,2024-02-15T14:35:37.578000Z,,2024-02-15T14:35:38.066548Z,1013.0,CVPIIDEI,2409,39,Male,White,United States,United States,United States,English,No,Full-Time,Not Applicable
56213a1aed6e5a0005c7f760,<b>I swim across the Atlantic Ocean to get to work every day.,Highly disagree,42/94,Highly disagree,1,1708007371178,1708007379847,\Highly disagree\,\Highly disagree\,\1\,1708007378691,1708007378691,7513,7513,8669,buq,qns-item-noham,42,600543,0.0-1.0-0.41,65ce1d3cce2e52ff64afc47d,AWAITING REVIEW,2024-02-15T14:18:45.404000Z,2024-02-15T14:35:37.578000Z,,2024-02-15T14:35:38.066548Z,1013.0,CVPIIDEI,2409,39,Male,White,United States,United States,United States,English,No,Full-Time,Not Applicable
56213a1aed6e5a0005c7f760,"<b>Sometimes, you just have to ignore evidence that you know is wrong.",Highly disagree,43/94,Somewhat disagree,2,1708007379851,1708007386489,\Somewhat disagree\,\Somewhat disagree\,\2\,1708007385625,1708007385625,5774,5774,6638,buq,qns-item-noham,43,607185,0.0-1.0-0.42,65ce1d3cce2e52ff64afc47d,AWAITING REVIEW,2024-02-15T14:18:45.404000Z,2024-02-15T14:35:37.578000Z,,2024-02-15T14:35:38.066548Z,1013.0,CVPIIDEI,2409,39,Male,White,United States,United States,United States,English,No,Full-Time,Not Applicable
56213a1aed6e5a0005c7f760,<b>I have had some false beliefs.,Highly disagree,44/94,Somewhat agree,3,1708007386492,1708007389213,\Somewhat agree\,\Somewhat agree\,\3\,1708007388333,1708007388333,1841,1841,2721,buq,qns-item-noham,44,609909,0.0-1.0-0.43,65ce1d3cce2e52ff64afc47d,AWAITING REVIEW,2024-02-15T14:18:45.404000Z,2024-02-15T14:35:37.578000Z,,2024-02-15T14:35:38.066548Z,1013.0,CVPIIDEI,2409,39,Male,White,United States,United States,United States,English,No,Full-Time,Not Applicable
56213a1aed6e5a0005c7f760,"<b>If one friend does something that upsets me, I sometimes start to distrust people in general.",Highly disagree,45/94,Somewhat agree,3,1708007389217,1708007397276,\Somewhat agree\,\Somewhat agree\,\3\,1708007395669,1708007395669,6452,6452,8059,buq,qns-item-noham,45,617972,0.0-1.0-0.44,65ce1d3cce2e52ff64afc47d,AWAITING REVIEW,2024-02-15T14:18:45.404000Z,2024-02-15T14:35:37.578000Z,,2024-02-15T14:35:38.066548Z,1013.0,CVPIIDEI,2409,39,Male,White,United States,United States,United States,English,No,Full-Time,Not Applicable
56213a1aed6e5a0005c7f760,<b>The facts about most important matters are easy to find.,Highly disagree,46/94,Somewhat agree,3,1708007397280,1708007401868,\Somewhat agree\,\Somewhat agree\,\3\,1708007399509,1708007399509,2229,2229,4588,buq,qns-item-noham,46,622564,0.0-1.0-0.45,65ce1d3cce2e52ff64afc47d,AWAITING REVIEW,2024-02-15T14:18:45.404000Z,2024-02-15T14:35:37.578000Z,,2024-02-15T14:35:38.066548Z,1013.0,CVPIIDEI,2409,39,Male,White,United States,United States,United States,English,No,Full-Time,Not Applicable
56213a1aed6e5a0005c7f760,<b>It?s better to know what?s true than to know what?s moral.,Highly disagree,47/94,Somewhat disagree,2,1708007401874,1708007407505,\Somewhat agree\,\Somewhat disagree\,\3\,1708007404975,1708007406194,3101,4320,5631,buq,qns-item-noham,47,628201,0.0-1.0-0.46,65ce1d3cce2e52ff64afc47d,AWAITING REVIEW,2024-02-15T14:18:45.404000Z,2024-02-15T14:35:37.578000Z,,2024-02-15T14:35:38.066548Z,1013.0,CVPIIDEI,2409,39,Male,White,United States,United States,United States,English,No,Full-Time,Not Applicable
56213a1aed6e5a0005c7f760,<b>I used to think the world was less complicated than I do now.,Highly disagree,48/94,Highly agree,4,1708007407511,1708007413570,\Highly agree\,\Highly agree\,\4\,1708007412383,1708007412383,4872,4872,6059,buq,qns-item-noham,48,634266,0.0-1.0-0.47,65ce1d3cce2e52ff64afc47d,AWAITING REVIEW,2024-02-15T14:18:45.404000Z,2024-02-15T14:35:37.578000Z,,2024-02-15T14:35:38.066548Z,1013.0,CVPIIDEI,2409,39,Male,White,United States,United States,United States,English,No,Full-Time,Not Applicable
56213a1aed6e5a0005c7f760,<b>People are usually completely right or completely wrong.,Highly disagree,49/94,Highly disagree,1,1708007413574,1708007417605,\Highly disagree\,\Highly disagree\,\1\,1708007416058,1708007416058,2484,2484,4031,buq,qns-item-noham,49,638301,0.0-1.0-0.48,65ce1d3cce2e52ff64afc47d,AWAITING REVIEW,2024-02-15T14:18:45.404000Z,2024-02-15T14:35:37.578000Z,,2024-02-15T14:35:38.066548Z,1013.0,CVPIIDEI,2409,39,Male,White,United States,United States,United States,English,No,Full-Time,Not Applicable
56213a1aed6e5a0005c7f760,<b>I spend a lot of time considering alternatives to my beliefs.,Highly disagree,50/94,Somewhat disagree,2,1708007417609,1708007421051,\Somewhat disagree\,\Somewhat disagree\,\2\,1708007420181,1708007420181,2572,2572,3442,buq,qns-item-noham,50,641747,0.0-1.0-0.49,65ce1d3cce2e52ff64afc47d,AWAITING REVIEW,2024-02-15T14:18:45.404000Z,2024-02-15T14:35:37.578000Z,,2024-02-15T14:35:38.066548Z,1013.0,CVPIIDEI,2409,39,Male,White,United States,United States,United States,English,No,Full-Time,Not Applicable
56213a1aed6e5a0005c7f760,"<b>Political enemies need to be defeated, not convinced.",Highly disagree,51/94,Highly disagree,1,1708007421055,1708007425859,\Somewhat disagree\,\Highly disagree\,\2\,1708007423930,1708007424843,2875,3788,4804,buq,qns-item-noham,51,646555,0.0-1.0-0.50,65ce1d3cce2e52ff64afc47d,AWAITING REVIEW,2024-02-15T14:18:45.404000Z,2024-02-15T14:35:37.578000Z,,2024-02-15T14:35:38.066548Z,1013.0,CVPIIDEI,2409,39,Male,White,United States,United States,United States,English,No,Full-Time,Not Applicable
56213a1aed6e5a0005c7f760,<b>I form my political views only after meticulously gathering historical and present information about their policies.,Highly disagree,52/94,Somewhat agree,3,1708007425865,1708007430838,\Somewhat agree\,\Somewhat agree\,\3\,1708007429168,1708007429168,3303,3303,4973,buq,qns-item-noham,52,651534,0.0-1.0-0.51,65ce1d3cce2e52ff64afc47d,AWAITING REVIEW,2024-02-15T14:18:45.404000Z,2024-02-15T14:35:37.578000Z,,2024-02-15T14:35:38.066548Z,1013.0,CVPIIDEI,2409,39,Male,White,United States,United States,United States,English,No,Full-Time,Not Applicable
56213a1aed6e5a0005c7f760,<b>It is difficult for me to remember the last time I was surprised by politics.,Highly disagree,53/94,Somewhat disagree,2,1708007430843,1708007434810,\Somewhat disagree\,\Somewhat disagree\,\2\,1708007433375,1708007433375,2532,2532,3967,buq,qns-item-noham,53,655506,0.0-1.0-0.52,65ce1d3cce2e52ff64afc47d,AWAITING REVIEW,2024-02-15T14:18:45.404000Z,2024-02-15T14:35:37.578000Z,,2024-02-15T14:35:38.066548Z,1013.0,CVPIIDEI,2409,39,Male,White,United States,United States,United States,English,No,Full-Time,Not Applicable
56213a1aed6e5a0005c7f760,"<b>When I find out I?m wrong, I think a lot about my related beliefs.",Highly disagree,54/94,Somewhat agree,3,1708007434815,1708007446379,\Somewhat agree\,\Somewhat agree\,\3\,1708007436683,1708007445449,1868,10634,11564,buq,qns-item-noham,54,667075,0.0-1.0-0.53,65ce1d3cce2e52ff64afc47d,AWAITING REVIEW,2024-02-15T14:18:45.404000Z,2024-02-15T14:35:37.578000Z,,2024-02-15T14:35:38.066548Z,1013.0,CVPIIDEI,2409,39,Male,White,United States,United States,United States,English,No,Full-Time,Not Applicable
56213a1aed6e5a0005c7f760,"<b>If the political party I support messes up, it makes me think you can?t trust anyone these days",Highly disagree,55/94,Somewhat disagree,2,1708007446384,1708007449973,\Somewhat disagree\,\Somewhat disagree\,\2\,1708007449086,1708007449086,2702,2702,3589,buq,qns-item-noham,55,670670,0.0-1.0-0.54,65ce1d3cce2e52ff64afc47d,AWAITING REVIEW,2024-02-15T14:18:45.404000Z,2024-02-15T14:35:37.578000Z,,2024-02-15T14:35:38.066548Z,1013.0,CVPIIDEI,2409,39,Male,White,United States,United States,United States,English,No,Full-Time,Not Applicable
56213a1aed6e5a0005c7f760,<b>People?s brains turn off when they talk about politics.,Highly disagree,56/94,Highly disagree,1,1708007449978,1708007454233,\Somewhat disagree\,\Highly disagree\,\2\,1708007452522,1708007453279,2544,3301,4255,buq,qns-item-noham,56,674930,0.0-1.0-0.55,65ce1d3cce2e52ff64afc47d,AWAITING REVIEW,2024-02-15T14:18:45.404000Z,2024-02-15T14:35:37.578000Z,,2024-02-15T14:35:38.066548Z,1013.0,CVPIIDEI,2409,39,Male,White,United States,United States,United States,English,No,Full-Time,Not Applicable
56213a1aed6e5a0005c7f760,<b>People who are wrong are usually just ignoring the obvious.,Highly disagree,57/94,Somewhat agree,3,1708007454238,1708007457224,\Somewhat agree\,\Somewhat agree\,\3\,1708007456020,1708007456020,1782,1782,2986,buq,qns-item-noham,57,677920,0.0-1.0-0.56,65ce1d3cce2e52ff64afc47d,AWAITING REVIEW,2024-02-15T14:18:45.404000Z,2024-02-15T14:35:37.578000Z,,2024-02-15T14:35:38.066548Z,1013.0,CVPIIDEI,2409,39,Male,White,United States,United States,United States,English,No,Full-Time,Not Applicable
56213a1aed6e5a0005c7f760,"<b>When forming my views on people, I rely more on what they are like now rather than rely on my past experience with them.",Highly disagree,58/94,Somewhat disagree,2,1708007457230,1708007471143,\Somewhat disagree\,\Somewhat disagree\,\2\,1708007469923,1708007469923,12693,12693,13913,buq,qns-item-noham,58,691839,0.0-1.0-0.57,65ce1d3cce2e52ff64afc47d,AWAITING REVIEW,2024-02-15T14:18:45.404000Z,2024-02-15T14:35:37.578000Z,,2024-02-15T14:35:38.066548Z,1013.0,CVPIIDEI,2409,39,Male,White,United States,United States,United States,English,No,Full-Time,Not Applicable
56213a1aed6e5a0005c7f760,"<b>When people contradict my beliefs, I usually know about their evidence already.",Highly disagree,59/94,Somewhat disagree,2,1708007471148,1708007477119,\Somewhat disagree\,\Somewhat disagree\,\2\,1708007476181,1708007476181,5033,5033,5971,buq,qns-item-noham,59,697815,0.0-1.0-0.58,65ce1d3cce2e52ff64afc47d,AWAITING REVIEW,2024-02-15T14:18:45.404000Z,2024-02-15T14:35:37.578000Z,,2024-02-15T14:35:38.066548Z,1013.0,CVPIIDEI,2409,39,Male,White,United States,United States,United States,English,No,Full-Time,Not Applicable
56213a1aed6e5a0005c7f760,<b>Figuring out what?s true and what?s false mainly requires a strong moral compass.,Highly disagree,60/94,Somewhat agree,3,1708007477125,1708007483638,\Somewhat agree\,\Somewhat agree\,\3\,1708007482292,1708007482292,5167,5167,6513,buq,qns-item-noham,60,704334,0.0-1.0-0.59,65ce1d3cce2e52ff64afc47d,AWAITING REVIEW,2024-02-15T14:18:45.404000Z,2024-02-15T14:35:37.578000Z,,2024-02-15T14:35:38.066548Z,1013.0,CVPIIDEI,2409,39,Male,White,United States,United States,United States,English,No,Full-Time,Not Applicable
56213a1aed6e5a0005c7f760,"<b>Usually I?m wrong about simple things, not complicated ones.",Highly disagree,61/94,Somewhat agree,3,1708007483644,1708007487114,\Somewhat agree\,\Somewhat agree\,\3\,1708007486134,1708007486134,2490,2490,3470,buq,qns-item-noham,61,707810,0.0-1.0-0.60,65ce1d3cce2e52ff64afc47d,AWAITING REVIEW,2024-02-15T14:18:45.404000Z,2024-02-15T14:35:37.578000Z,,2024-02-15T14:35:38.066548Z,1013.0,CVPIIDEI,2409,39,Male,White,United States,United States,United States,English,No,Full-Time,Not Applicable
56213a1aed6e5a0005c7f760,<b>Getting all the information I want about important things is hard.,Highly disagree,62/94,Somewhat agree,3,1708007487118,1708007490885,\Somewhat agree\,\Somewhat agree\,\3\,1708007489697,1708007489697,2579,2579,3767,buq,qns-item-noham,62,711581,0.0-1.0-0.61,65ce1d3cce2e52ff64afc47d,AWAITING REVIEW,2024-02-15T14:18:45.404000Z,2024-02-15T14:35:37.578000Z,,2024-02-15T14:35:38.066548Z,1013.0,CVPIIDEI,2409,39,Male,White,United States,United States,United States,English,No,Full-Time,Not Applicable
56213a1aed6e5a0005c7f760,<b>Most false beliefs spread because people try to deceive one another.,Highly disagree,63/94,Highly agree,4,1708007490890,1708007497485,\Somewhat agree\,\Highly agree\,\3\,1708007495697,1708007496418,4807,5528,6595,buq,qns-item-noham,63,718182,0.0-1.0-0.62,65ce1d3cce2e52ff64afc47d,AWAITING REVIEW,2024-02-15T14:18:45.404000Z,2024-02-15T14:35:37.578000Z,,2024-02-15T14:35:38.066548Z,1013.0,CVPIIDEI,2409,39,Male,White,United States,United States,United States,English,No,Full-Time,Not Applicable
56213a1aed6e5a0005c7f760,<b>I can usually find something to agree with in most people?s beliefs.,Highly disagree,64/94,Somewhat agree,3,1708007497490,1708007501546,\Somewhat agree\,\Somewhat agree\,\3\,1708007500627,1708007500627,3137,3137,4056,buq,qns-item-noham,64,722242,0.0-1.0-0.63,65ce1d3cce2e52ff64afc47d,AWAITING REVIEW,2024-02-15T14:18:45.404000Z,2024-02-15T14:35:37.578000Z,,2024-02-15T14:35:38.066548Z,1013.0,CVPIIDEI,2409,39,Male,White,United States,United States,United States,English,No,Full-Time,Not Applicable
56213a1aed6e5a0005c7f760,<b>I only form my views of people once I get to know them very well.,Highly disagree,65/94,Somewhat disagree,2,1708007501554,1708007506511,\Somewhat disagree\,\Somewhat disagree\,\2\,1708007505590,1708007505590,4036,4036,4957,buq,qns-item-noham,65,727207,0.0-1.0-0.64,65ce1d3cce2e52ff64afc47d,AWAITING REVIEW,2024-02-15T14:18:45.404000Z,2024-02-15T14:35:37.578000Z,,2024-02-15T14:35:38.066548Z,1013.0,CVPIIDEI,2409,39,Male,White,United States,United States,United States,English,No,Full-Time,Not Applicable
56213a1aed6e5a0005c7f760,"<b>When people tell me important things about the world, I usually believe them.",Highly disagree,66/94,Somewhat disagree,2,1708007506514,1708007511158,\Somewhat disagree\,\Somewhat disagree\,\2\,1708007510171,1708007510171,3657,3657,4644,buq,qns-item-noham,66,731855,0.0-1.0-0.65,65ce1d3cce2e52ff64afc47d,AWAITING REVIEW,2024-02-15T14:18:45.404000Z,2024-02-15T14:35:37.578000Z,,2024-02-15T14:35:38.066548Z,1013.0,CVPIIDEI,2409,39,Male,White,United States,United States,United States,English,No,Full-Time,Not Applicable
56213a1aed6e5a0005c7f760,"<b>If a friend does something that upsets me, it reminds me what an unpredictable place the world is.",Highly disagree,67/94,Somewhat disagree,2,1708007511163,1708007522101,\Somewhat agree\,\Somewhat disagree\,\3\,1708007519674,1708007520773,8511,9610,10938,buq,qns-item-noham,67,742797,0.0-1.0-0.66,65ce1d3cce2e52ff64afc47d,AWAITING REVIEW,2024-02-15T14:18:45.404000Z,2024-02-15T14:35:37.578000Z,,2024-02-15T14:35:38.066548Z,1013.0,CVPIIDEI,2409,39,Male,White,United States,United States,United States,English,No,Full-Time,Not Applicable
56213a1aed6e5a0005c7f760,<b>People tend to believe whatever is good for their friends.,Highly disagree,68/94,Somewhat disagree,2,1708007522106,1708007526640,\Somewhat disagree\,\Somewhat disagree\,\2\,1708007525596,1708007525596,3490,3490,4534,buq,qns-item-noham,68,747336,0.0-1.0-0.67,65ce1d3cce2e52ff64afc47d,AWAITING REVIEW,2024-02-15T14:18:45.404000Z,2024-02-15T14:35:37.578000Z,,2024-02-15T14:35:38.066548Z,1013.0,CVPIIDEI,2409,39,Male,White,United States,United States,United States,English,No,Full-Time,Not Applicable
56213a1aed6e5a0005c7f760,<b>I used to be more certain my beliefs were true.,Highly disagree,69/94,Somewhat agree,3,1708007526646,1708007531444,\Somewhat agree\,\Somewhat agree\,\3\,1708007530281,1708007530281,3635,3635,4798,buq,qns-item-noham,69,752140,0.0-1.0-0.68,65ce1d3cce2e52ff64afc47d,AWAITING REVIEW,2024-02-15T14:18:45.404000Z,2024-02-15T14:35:37.578000Z,,2024-02-15T14:35:38.066548Z,1013.0,CVPIIDEI,2409,39,Male,White,United States,United States,United States,English,No,Full-Time,Not Applicable
56213a1aed6e5a0005c7f760,<b>It?s often pretty easy to figure out whether something is true based on who said it.,Highly disagree,70/94,Somewhat agree,3,1708007531449,1708007534909,\Somewhat agree\,\Somewhat agree\,\3\,1708007533932,1708007533932,2483,2483,3460,buq,qns-item-noham,70,755605,0.0-1.0-0.69,65ce1d3cce2e52ff64afc47d,AWAITING REVIEW,2024-02-15T14:18:45.404000Z,2024-02-15T14:35:37.578000Z,,2024-02-15T14:35:38.066548Z,1013.0,CVPIIDEI,2409,39,Male,White,United States,United States,United States,English,No,Full-Time,Not Applicable
56213a1aed6e5a0005c7f760,<b>I transform into a hummingbird every day.,Highly disagree,71/94,Highly disagree,1,1708007534912,1708007537700,\Highly disagree\,\Highly disagree\,\1\,1708007536752,1708007536752,1840,1840,2788,buq,qns-item-noham,71,758396,0.0-1.0-0.70,65ce1d3cce2e52ff64afc47d,AWAITING REVIEW,2024-02-15T14:18:45.404000Z,2024-02-15T14:35:37.578000Z,,2024-02-15T14:35:38.066548Z,1013.0,CVPIIDEI,2409,39,Male,White,United States,United States,United States,English,No,Full-Time,Not Applicable
56213a1aed6e5a0005c7f760,<b>I think a lot about arguments against my views.,Highly disagree,72/94,Somewhat disagree,2,1708007537705,1708007541048,\Somewhat disagree\,\Somewhat disagree\,\2\,1708007539911,1708007539911,2206,2206,3343,buq,qns-item-noham,72,761744,0.0-1.0-0.71,65ce1d3cce2e52ff64afc47d,AWAITING REVIEW,2024-02-15T14:18:45.404000Z,2024-02-15T14:35:37.578000Z,,2024-02-15T14:35:38.066548Z,1013.0,CVPIIDEI,2409,39,Male,White,United States,United States,United States,English,No,Full-Time,Not Applicable
56213a1aed6e5a0005c7f760,<b>Personal experience is usually more important than facts and figures.,Highly disagree,73/94,Somewhat disagree,2,1708007541053,1708007546790,\Somewhat disagree\,\Somewhat disagree\,\2\,1708007545402,1708007545402,4349,4349,5737,buq,qns-item-noham,73,767486,0.0-1.0-0.72,65ce1d3cce2e52ff64afc47d,AWAITING REVIEW,2024-02-15T14:18:45.404000Z,2024-02-15T14:35:37.578000Z,,2024-02-15T14:35:38.066548Z,1013.0,CVPIIDEI,2409,39,Male,White,United States,United States,United States,English,No,Full-Time,Not Applicable
56213a1aed6e5a0005c7f760,<b>I?ve been tricked before about important matters.,Highly disagree,74/94,Somewhat agree,3,1708007546795,1708007550001,\Somewhat agree\,\Somewhat agree\,\3\,1708007548985,1708007548985,2190,2190,3206,buq,qns-item-noham,74,770697,0.0-1.0-0.73,65ce1d3cce2e52ff64afc47d,AWAITING REVIEW,2024-02-15T14:18:45.404000Z,2024-02-15T14:35:37.578000Z,,2024-02-15T14:35:38.066548Z,1013.0,CVPIIDEI,2409,39,Male,White,United States,United States,United States,English,No,Full-Time,Not Applicable
56213a1aed6e5a0005c7f760,<b>I would need to be totally wowed if I were to change my opinion of a restaurant I don?t like.,Highly disagree,75/94,Somewhat agree,3,1708007550005,1708007554402,\Somewhat agree\,\Somewhat agree\,\3\,1708007553451,1708007553451,3446,3446,4397,buq,qns-item-noham,75,775098,0.0-1.0-0.74,65ce1d3cce2e52ff64afc47d,AWAITING REVIEW,2024-02-15T14:18:45.404000Z,2024-02-15T14:35:37.578000Z,,2024-02-15T14:35:38.066548Z,1013.0,CVPIIDEI,2409,39,Male,White,United States,United States,United States,English,No,Full-Time,Not Applicable
56213a1aed6e5a0005c7f760,<b>I care a lot about politics.,Highly disagree,76/94,Somewhat agree,3,1708007554407,1708007557384,\Somewhat agree\,\Somewhat agree\,\3\,1708007556465,1708007556465,2058,2058,2977,buq,qns-item-noham,76,778080,0.0-1.0-0.75,65ce1d3cce2e52ff64afc47d,AWAITING REVIEW,2024-02-15T14:18:45.404000Z,2024-02-15T14:35:37.578000Z,,2024-02-15T14:35:38.066548Z,1013.0,CVPIIDEI,2409,39,Male,White,United States,United States,United States,English,No,Full-Time,Not Applicable
56213a1aed6e5a0005c7f760,<b>There are some topics I?ve been really wrong about.,Highly disagree,77/94,Somewhat agree,3,1708007557387,1708007560034,\Somewhat agree\,\Somewhat agree\,\3\,1708007559113,1708007559113,1726,1726,2647,buq,qns-item-noham,77,780730,0.0-1.0-0.76,65ce1d3cce2e52ff64afc47d,AWAITING REVIEW,2024-02-15T14:18:45.404000Z,2024-02-15T14:35:37.578000Z,,2024-02-15T14:35:38.066548Z,1013.0,CVPIIDEI,2409,39,Male,White,United States,United States,United States,English,No,Full-Time,Not Applicable
56213a1aed6e5a0005c7f760,<b>Most beliefs can be supported with at least some evidence.,Highly disagree,78/94,Somewhat agree,3,1708007560040,1708007563934,\Somewhat agree\,\Somewhat agree\,\3\,1708007561890,1708007561890,1850,1850,3894,buq,qns-item-noham,78,784630,0.0-1.0-0.77,65ce1d3cce2e52ff64afc47d,AWAITING REVIEW,2024-02-15T14:18:45.404000Z,2024-02-15T14:35:37.578000Z,,2024-02-15T14:35:38.066548Z,1013.0,CVPIIDEI,2409,39,Male,White,United States,United States,United States,English,No,Full-Time,Not Applicable
56213a1aed6e5a0005c7f760,<b>Other people make life out to be more complicated than it really is.,Highly disagree,79/94,Somewhat disagree,2,1708007563939,1708007568070,\Somewhat disagree\,\Somewhat disagree\,\2\,1708007566621,1708007566621,2682,2682,4131,buq,qns-item-noham,79,788766,0.0-1.0-0.78,65ce1d3cce2e52ff64afc47d,AWAITING REVIEW,2024-02-15T14:18:45.404000Z,2024-02-15T14:35:37.578000Z,,2024-02-15T14:35:38.066548Z,1013.0,CVPIIDEI,2409,39,Male,White,United States,United States,United States,English,No,Full-Time,Not Applicable
56213a1aed6e5a0005c7f760,"<b>Policy details don?t matter much, just the big picture.",Highly disagree,80/94,Somewhat disagree,2,1708007568075,1708007573926,\Somewhat disagree\,\Somewhat disagree\,\2\,1708007571729,1708007571729,3654,3654,5851,buq,qns-item-noham,80,794622,0.0-1.0-0.79,65ce1d3cce2e52ff64afc47d,AWAITING REVIEW,2024-02-15T14:18:45.404000Z,2024-02-15T14:35:37.578000Z,,2024-02-15T14:35:38.066548Z,1013.0,CVPIIDEI,2409,39,Male,White,United States,United States,United States,English,No,Full-Time,Not Applicable
56213a1aed6e5a0005c7f760,<b>I know my friends so well they can hardly ever surprise me.,Highly disagree,81/94,Somewhat agree,3,1708007573933,1708007581251,\Somewhat agree\,\Somewhat agree\,\3\,1708007580074,1708007580074,6141,6141,7318,buq,qns-item-noham,81,801948,0.0-1.0-0.80,65ce1d3cce2e52ff64afc47d,AWAITING REVIEW,2024-02-15T14:18:45.404000Z,2024-02-15T14:35:37.578000Z,,2024-02-15T14:35:38.066548Z,1013.0,CVPIIDEI,2409,39,Male,White,United States,United States,United States,English,No,Full-Time,Not Applicable
56213a1aed6e5a0005c7f760,<b>I do not often change my views on people.,Highly disagree,82/94,Somewhat agree,3,1708007581257,1708007585556,\Somewhat agree\,\Somewhat agree\,\3\,1708007583953,1708007583953,2696,2696,4299,buq,qns-item-noham,82,806252,0.0-1.0-0.81,65ce1d3cce2e52ff64afc47d,AWAITING REVIEW,2024-02-15T14:18:45.404000Z,2024-02-15T14:35:37.578000Z,,2024-02-15T14:35:38.066548Z,1013.0,CVPIIDEI,2409,39,Male,White,United States,United States,United States,English,No,Full-Time,Not Applicable
56213a1aed6e5a0005c7f760,<b>I?m more certain about my beliefs than I used to be.,Highly disagree,83/94,Somewhat disagree,2,1708007585561,1708007595736,\Somewhat agree\,\Somewhat disagree\,\3\,1708007591652,1708007594893,6091,9332,10175,buq,qns-item-noham,83,816432,0.0-1.0-0.82,65ce1d3cce2e52ff64afc47d,AWAITING REVIEW,2024-02-15T14:18:45.404000Z,2024-02-15T14:35:37.578000Z,,2024-02-15T14:35:38.066548Z,1013.0,CVPIIDEI,2409,39,Male,White,United States,United States,United States,English,No,Full-Time,Not Applicable
56213a1aed6e5a0005c7f760,<b>People often tell falsehoods unintentionally.,Highly disagree,84/94,Highly agree,4,1708007595741,1708007600056,\Highly agree\,\Highly agree\,\4\,1708007598342,1708007598342,2601,2601,4315,buq,qns-item-noham,84,820752,0.0-1.0-0.83,65ce1d3cce2e52ff64afc47d,AWAITING REVIEW,2024-02-15T14:18:45.404000Z,2024-02-15T14:35:37.578000Z,,2024-02-15T14:35:38.066548Z,1013.0,CVPIIDEI,2409,39,Male,White,United States,United States,United States,English,No,Full-Time,Not Applicable
56213a1aed6e5a0005c7f760,<b>Most people don?t know much about most things.,Highly disagree,85/94,Highly agree,4,1708007600061,1708007607125,\Somewhat agree\,\Highly agree\,\3\,1708007603685,1708007605989,3624,5928,7064,buq,qns-item-noham,85,827821,0.0-1.0-0.84,65ce1d3cce2e52ff64afc47d,AWAITING REVIEW,2024-02-15T14:18:45.404000Z,2024-02-15T14:35:37.578000Z,,2024-02-15T14:35:38.066548Z,1013.0,CVPIIDEI,2409,39,Male,White,United States,United States,United States,English,No,Full-Time,Not Applicable
56213a1aed6e5a0005c7f760,"<b>If I find out something new about someone, I easily change my views about them.",Highly disagree,86/94,Somewhat agree,3,1708007607131,1708007612178,\Somewhat disagree\,\Somewhat agree\,\2\,1708007610067,1708007611273,2936,4142,5047,buq,qns-item-noham,86,832874,0.0-1.0-0.85,65ce1d3cce2e52ff64afc47d,AWAITING REVIEW,2024-02-15T14:18:45.404000Z,2024-02-15T14:35:37.578000Z,,2024-02-15T14:35:38.066548Z,1013.0,CVPIIDEI,2409,39,Male,White,United States,United States,United States,English,No,Full-Time,Not Applicable
56213a1aed6e5a0005c7f760,<b>Having true beliefs is difficult.,Highly disagree,87/94,Somewhat disagree,2,1708007612184,1708007615082,\Somewhat disagree\,\Somewhat disagree\,\2\,1708007614150,1708007614150,1966,1966,2898,buq,qns-item-noham,87,835778,0.0-1.0-0.86,65ce1d3cce2e52ff64afc47d,AWAITING REVIEW,2024-02-15T14:18:45.404000Z,2024-02-15T14:35:37.578000Z,,2024-02-15T14:35:38.066548Z,1013.0,CVPIIDEI,2409,39,Male,White,United States,United States,United States,English,No,Full-Time,Not Applicable
56213a1aed6e5a0005c7f760,<b>I don?t try new foods since I know I won?t like them.,Highly disagree,88/94,Somewhat disagree,2,1708007615086,1708007619674,\Somewhat agree\,\Somewhat disagree\,\3\,1708007617356,1708007618706,2270,3620,4588,buq,qns-item-noham,88,840370,0.0-1.0-0.87,65ce1d3cce2e52ff64afc47d,AWAITING REVIEW,2024-02-15T14:18:45.404000Z,2024-02-15T14:35:37.578000Z,,2024-02-15T14:35:38.066548Z,1013.0,CVPIIDEI,2409,39,Male,White,United States,United States,United States,English,No,Full-Time,Not Applicable
56213a1aed6e5a0005c7f760,<b>Other people trick each other a lot.,Highly disagree,89/94,Somewhat disagree,2,1708007619679,1708007626504,\Somewhat disagree\,\Somewhat disagree\,\2\,1708007625447,1708007625447,5768,5768,6825,buq,qns-item-noham,89,847200,0.0-1.0-0.88,65ce1d3cce2e52ff64afc47d,AWAITING REVIEW,2024-02-15T14:18:45.404000Z,2024-02-15T14:35:37.578000Z,,2024-02-15T14:35:38.066548Z,1013.0,CVPIIDEI,2409,39,Male,White,United States,United States,United States,English,No,Full-Time,Not Applicable
56213a1aed6e5a0005c7f760,<b>I would need to learn a lot about a person for my opinion of them to be swayed.,Highly disagree,90/94,Somewhat agree,3,1708007626507,1708007631108,\Somewhat agree\,\Somewhat agree\,\3\,1708007629864,1708007629864,3357,3357,4601,buq,qns-item-noham,90,851804,0.0-1.0-0.89,65ce1d3cce2e52ff64afc47d,AWAITING REVIEW,2024-02-15T14:18:45.404000Z,2024-02-15T14:35:37.578000Z,,2024-02-15T14:35:38.066548Z,1013.0,CVPIIDEI,2409,39,Male,White,United States,United States,United States,English,No,Full-Time,Not Applicable
56213a1aed6e5a0005c7f760,<b>People can?t usually trick me when it comes to topics I care about.,Highly disagree,91/94,Highly agree,4,1708007631112,1708007637033,\Somewhat agree\,\Highly agree\,\3\,1708007634755,1708007636138,3643,5026,5921,buq,qns-item-noham,91,857729,0.0-1.0-0.90,65ce1d3cce2e52ff64afc47d,AWAITING REVIEW,2024-02-15T14:18:45.404000Z,2024-02-15T14:35:37.578000Z,,2024-02-15T14:35:38.066548Z,1013.0,CVPIIDEI,2409,39,Male,White,United States,United States,United States,English,No,Full-Time,Not Applicable
56213a1aed6e5a0005c7f760,<b>I do not often change my views on food.,Highly disagree,92/94,Highly agree,4,1708007637037,1708007649404,\Somewhat agree\,\Highly agree\,\3\,1708007645796,1708007648467,8759,11430,12367,buq,qns-item-noham,92,870100,0.0-1.0-0.91,65ce1d3cce2e52ff64afc47d,AWAITING REVIEW,2024-02-15T14:18:45.404000Z,2024-02-15T14:35:37.578000Z,,2024-02-15T14:35:38.066548Z,1013.0,CVPIIDEI,2409,39,Male,White,United States,United States,United States,English,No,Full-Time,Not Applicable
56213a1aed6e5a0005c7f760,<b>Specific policies are often very important to me.,Highly disagree,93/94,Somewhat disagree,2,1708007649408,1708007669353,\Somewhat agree\,\Somewhat disagree\,\3\,1708007667316,1708007668364,17908,18956,19945,buq,qns-item-noham,93,890049,0.0-1.0-0.92,65ce1d3cce2e52ff64afc47d,AWAITING REVIEW,2024-02-15T14:18:45.404000Z,2024-02-15T14:35:37.578000Z,,2024-02-15T14:35:38.066548Z,1013.0,CVPIIDEI,2409,39,Male,White,United States,United States,United States,English,No,Full-Time,Not Applicable
56213a1aed6e5a0005c7f760,<b>Most people are woefully under-informed.,Highly disagree,94/94,Highly agree,4,1708007669356,1708007689321,\Highly agree\,\Highly agree\,\4\,1708007688281,1708007688281,18925,18925,19965,buq,qns-item-noham,94,910017,0.0-1.0-0.93,65ce1d3cce2e52ff64afc47d,AWAITING REVIEW,2024-02-15T14:18:45.404000Z,2024-02-15T14:35:37.578000Z,,2024-02-15T14:35:38.066548Z,1013.0,CVPIIDEI,2409,39,Male,White,United States,United States,United States,English,No,Full-Time,Not Applicable
56213a1aed6e5a0005c7f760,,,,,,,,,,,,,,,,,,,,,65ce1d3cce2e52ff64afc47d,AWAITING REVIEW,2024-02-15T14:18:45.404000Z,2024-02-15T14:35:37.578000Z,,2024-02-15T14:35:38.066548Z,1013.0,CVPIIDEI,2409,39,Male,White,United States,United States,United States,English,No,Full-Time,Not Applicable
