PROLIFIC_PID,Question,qns_options,quest_num,answer,answer_num,question_load_timestamp,next_btn_timestamp,text_selected,final_text_selected,option_num_selected,preview_timestamps,final_text_selected_time_stamp,rt_first_option_click,rt_final_option_click,rt_submit_click,questionnaire,trial_type,trial_index,time_elapsed,internal_node_id,Demographic_Submission id,Demographic_Status,Demographic_Started at,Demographic_Completed at,Demographic_Reviewed at,Demographic_Archived at,Demographic_Time taken,Demographic_Completion code,Demographic_Total approvals,Demographic_Age,Demographic_Sex,Demographic_Ethnicity simplified,Demographic_Country of birth,Demographic_Country of residence,Demographic_Nationality,Demographic_Language,Demographic_Student status,Demographic_Employment status,Demographic_Custom study tncs accepted at
6119e2fc2605933b16ea87c0,<b>Knowing what?s true and knowing what to do about it are usually basically the same.,Highly disagree,1/94,Highly disagree,1,1708006460839,1708006470330,\Highly disagree\,\Highly disagree\,\1\,1708006468858,1708006468858,8019,8019,9491,buq,qns-item-noham,1,15551,0.0-1.0-0.0,65ce1c245d118e169dcf927a,AWAITING REVIEW,2024-02-15T14:14:01.183000Z,2024-02-15T14:26:08.238000Z,,2024-02-15T14:26:08.837983Z,728.0,CVPIIDEI,1225,23,Female,White,United States,United States,United States,English,Yes,Part-Time,Not Applicable
6119e2fc2605933b16ea87c0,<b>Most people just believe whatever is convenient for them.,Highly disagree,2/94,Somewhat disagree,2,1708006470332,1708006473837,\Somewhat disagree\,\Somewhat disagree\,\2\,1708006473314,1708006473314,2982,2982,3505,buq,qns-item-noham,2,19058,0.0-1.0-0.1,65ce1c245d118e169dcf927a,AWAITING REVIEW,2024-02-15T14:14:01.183000Z,2024-02-15T14:26:08.238000Z,,2024-02-15T14:26:08.837983Z,728.0,CVPIIDEI,1225,23,Female,White,United States,United States,United States,English,Yes,Part-Time,Not Applicable
6119e2fc2605933b16ea87c0,<b>Having some big beliefs helps me sort out minor ones.,Highly disagree,3/94,Highly agree,4,1708006473839,1708006477407,\Highly agree\,\Highly agree\,\4\,1708006476751,1708006476751,2912,2912,3568,buq,qns-item-noham,3,22628,0.0-1.0-0.2,65ce1c245d118e169dcf927a,AWAITING REVIEW,2024-02-15T14:14:01.183000Z,2024-02-15T14:26:08.238000Z,,2024-02-15T14:26:08.837983Z,728.0,CVPIIDEI,1225,23,Female,White,United States,United States,United States,English,Yes,Part-Time,Not Applicable
6119e2fc2605933b16ea87c0,<b>Political questions are usually pretty complicated.,Highly disagree,4/94,Somewhat agree,3,1708006477408,1708006479678,\Somewhat agree\,\Somewhat agree\,\3\,1708006479104,1708006479104,1696,1696,2270,buq,qns-item-noham,4,24900,0.0-1.0-0.3,65ce1c245d118e169dcf927a,AWAITING REVIEW,2024-02-15T14:14:01.183000Z,2024-02-15T14:26:08.238000Z,,2024-02-15T14:26:08.837983Z,728.0,CVPIIDEI,1225,23,Female,White,United States,United States,United States,English,Yes,Part-Time,Not Applicable
6119e2fc2605933b16ea87c0,<b>Figuring out what?s important in life requires learning a lot of facts.,Highly disagree,5/94,Somewhat disagree,2,1708006479680,1708006485061,\Somewhat agree\,\Somewhat disagree\,\3\,1708006483360,1708006484448,3680,4768,5381,buq,qns-item-noham,5,30282,0.0-1.0-0.4,65ce1c245d118e169dcf927a,AWAITING REVIEW,2024-02-15T14:14:01.183000Z,2024-02-15T14:26:08.238000Z,,2024-02-15T14:26:08.837983Z,728.0,CVPIIDEI,1225,23,Female,White,United States,United States,United States,English,Yes,Part-Time,Not Applicable
6119e2fc2605933b16ea87c0,<b>It is difficult for me to remember the last time I was surprised by politics.,Highly disagree,6/94,Somewhat disagree,2,1708006485063,1708006491678,\Somewhat disagree\,\Somewhat disagree\,\2\,1708006491090,1708006491090,6027,6027,6615,buq,qns-item-noham,6,36899,0.0-1.0-0.5,65ce1c245d118e169dcf927a,AWAITING REVIEW,2024-02-15T14:14:01.183000Z,2024-02-15T14:26:08.238000Z,,2024-02-15T14:26:08.837983Z,728.0,CVPIIDEI,1225,23,Female,White,United States,United States,United States,English,Yes,Part-Time,Not Applicable
6119e2fc2605933b16ea87c0,<b>People?s false beliefs are understandable.,Highly disagree,7/94,Highly disagree,1,1708006491680,1708006495521,\Highly disagree\,\Highly disagree\,\1\,1708006494880,1708006494880,3200,3200,3841,buq,qns-item-noham,7,40742,0.0-1.0-0.6,65ce1c245d118e169dcf927a,AWAITING REVIEW,2024-02-15T14:14:01.183000Z,2024-02-15T14:26:08.238000Z,,2024-02-15T14:26:08.837983Z,728.0,CVPIIDEI,1225,23,Female,White,United States,United States,United States,English,Yes,Part-Time,Not Applicable
6119e2fc2605933b16ea87c0,<b>I spend a lot of time trying to be informed about politics.,Highly disagree,8/94,Highly disagree,1,1708006495522,1708006499007,\Somewhat disagree\,\Highly disagree\,\2\,1708006497825,1708006498232,2303,2710,3485,buq,qns-item-noham,8,44228,0.0-1.0-0.7,65ce1c245d118e169dcf927a,AWAITING REVIEW,2024-02-15T14:14:01.183000Z,2024-02-15T14:26:08.238000Z,,2024-02-15T14:26:08.837983Z,728.0,CVPIIDEI,1225,23,Female,White,United States,United States,United States,English,Yes,Part-Time,Not Applicable
6119e2fc2605933b16ea87c0,<b>I think a lot about whether my beliefs are right.,Highly disagree,9/94,Highly disagree,1,1708006499008,1708006520538,\Somewhat disagree\,\Highly disagree\,\2\,1708006518923,1708006519827,19915,20819,21530,buq,qns-item-noham,9,65759,0.0-1.0-0.8,65ce1c245d118e169dcf927a,AWAITING REVIEW,2024-02-15T14:14:01.183000Z,2024-02-15T14:26:08.238000Z,,2024-02-15T14:26:08.837983Z,728.0,CVPIIDEI,1225,23,Female,White,United States,United States,United States,English,Yes,Part-Time,Not Applicable
6119e2fc2605933b16ea87c0,<b>Statistics can be pretty misleading sometimes.,Highly disagree,10/94,Highly disagree,1,1708006520540,1708006523317,\Highly disagree\,\Highly disagree\,\1\,1708006522731,1708006522731,2191,2191,2777,buq,qns-item-noham,10,68538,0.0-1.0-0.9,65ce1c245d118e169dcf927a,AWAITING REVIEW,2024-02-15T14:14:01.183000Z,2024-02-15T14:26:08.238000Z,,2024-02-15T14:26:08.837983Z,728.0,CVPIIDEI,1225,23,Female,White,United States,United States,United States,English,Yes,Part-Time,Not Applicable
6119e2fc2605933b16ea87c0,<b>I have lots of beliefs that I?m only sort of sure about.,Highly disagree,11/94,Somewhat disagree,2,1708006523319,1708006534326,\Somewhat disagree\,\Somewhat disagree\,\2\,1708006532901,1708006532901,9582,9582,11007,buq,qns-item-noham,11,79547,0.0-1.0-0.10,65ce1c245d118e169dcf927a,AWAITING REVIEW,2024-02-15T14:14:01.183000Z,2024-02-15T14:26:08.238000Z,,2024-02-15T14:26:08.837983Z,728.0,CVPIIDEI,1225,23,Female,White,United States,United States,United States,English,Yes,Part-Time,Not Applicable
6119e2fc2605933b16ea87c0,"<b>If I go to my favorite restaurant and the food is surprisingly bad, it reminds me there are many disappointments in life.",Highly disagree,12/94,Highly disagree,1,1708006534328,1708006538591,\Highly disagree\,\Highly disagree\,\1\,1708006538056,1708006538056,3728,3728,4263,buq,qns-item-noham,12,83812,0.0-1.0-0.11,65ce1c245d118e169dcf927a,AWAITING REVIEW,2024-02-15T14:14:01.183000Z,2024-02-15T14:26:08.238000Z,,2024-02-15T14:26:08.837983Z,728.0,CVPIIDEI,1225,23,Female,White,United States,United States,United States,English,Yes,Part-Time,Not Applicable
6119e2fc2605933b16ea87c0,"<b>If you are paying attention, please select ?Somewhat agree?",Highly disagree,13/94,Somewhat agree,3,1708006538593,1708006541972,\Somewhat agree\,\Somewhat agree\,\3\,1708006541352,1708006541352,2759,2759,3379,buq,qns-item-noham,13,87194,0.0-1.0-0.12,65ce1c245d118e169dcf927a,AWAITING REVIEW,2024-02-15T14:14:01.183000Z,2024-02-15T14:26:08.238000Z,,2024-02-15T14:26:08.837983Z,728.0,CVPIIDEI,1225,23,Female,White,United States,United States,United States,English,Yes,Part-Time,Not Applicable
6119e2fc2605933b16ea87c0,"<b>When I talk to others, I often worry I?ll convince them of something I didn?t mean to.",Highly disagree,14/94,Highly agree,4,1708006541975,1708006548024,\Somewhat agree\,\Highly agree\,\3\,1708006546201,1708006547407,4226,5432,6049,buq,qns-item-noham,14,93245,0.0-1.0-0.13,65ce1c245d118e169dcf927a,AWAITING REVIEW,2024-02-15T14:14:01.183000Z,2024-02-15T14:26:08.238000Z,,2024-02-15T14:26:08.837983Z,728.0,CVPIIDEI,1225,23,Female,White,United States,United States,United States,English,Yes,Part-Time,Not Applicable
6119e2fc2605933b16ea87c0,<b>I would need to learn something utterly shocking about my party in order to change my political views.,Highly disagree,15/94,Highly agree,4,1708006548026,1708006553786,\Highly agree\,\Highly agree\,\4\,1708006553113,1708006553113,5087,5087,5760,buq,qns-item-noham,15,99007,0.0-1.0-0.14,65ce1c245d118e169dcf927a,AWAITING REVIEW,2024-02-15T14:14:01.183000Z,2024-02-15T14:26:08.238000Z,,2024-02-15T14:26:08.837983Z,728.0,CVPIIDEI,1225,23,Female,White,United States,United States,United States,English,Yes,Part-Time,Not Applicable
6119e2fc2605933b16ea87c0,"<b>When I have new experiences, I tend to think of them as unique.",Highly disagree,16/94,Somewhat agree,3,1708006553788,1708006559876,\Somewhat disagree\,\Somewhat agree\,\2\,1708006557731,1708006559421,3943,5633,6088,buq,qns-item-noham,16,105097,0.0-1.0-0.15,65ce1c245d118e169dcf927a,AWAITING REVIEW,2024-02-15T14:14:01.183000Z,2024-02-15T14:26:08.238000Z,,2024-02-15T14:26:08.837983Z,728.0,CVPIIDEI,1225,23,Female,White,United States,United States,United States,English,Yes,Part-Time,Not Applicable
6119e2fc2605933b16ea87c0,<b>I change my mind about specific policies pretty frequently.,Highly disagree,17/94,Highly disagree,1,1708006559877,1708006562795,\Highly disagree\,\Highly disagree\,\1\,1708006562025,1708006562025,2148,2148,2918,buq,qns-item-noham,17,108016,0.0-1.0-0.16,65ce1c245d118e169dcf927a,AWAITING REVIEW,2024-02-15T14:14:01.183000Z,2024-02-15T14:26:08.238000Z,,2024-02-15T14:26:08.837983Z,728.0,CVPIIDEI,1225,23,Female,White,United States,United States,United States,English,Yes,Part-Time,Not Applicable
6119e2fc2605933b16ea87c0,"<b>If a politician in my political party supports something I disagree with, I give them the benefit of the doubt, as such issues often involve hidden complexities that aren?t obvious.   ",Highly disagree,18/94,Somewhat agree,3,1708006562797,1708006674452,\Somewhat agree\,\Somewhat agree\,\3\,1708006673745,1708006673745,110948,110948,111655,buq,qns-item-noham,18,219673,0.0-1.0-0.17,65ce1c245d118e169dcf927a,AWAITING REVIEW,2024-02-15T14:14:01.183000Z,2024-02-15T14:26:08.238000Z,,2024-02-15T14:26:08.837983Z,728.0,CVPIIDEI,1225,23,Female,White,United States,United States,United States,English,Yes,Part-Time,Not Applicable
6119e2fc2605933b16ea87c0,<b>People?s bad politics are usually motivated by hatefulness.,Highly disagree,19/94,Highly agree,4,1708006674455,1708006678341,\Highly agree\,\Highly agree\,\4\,1708006677872,1708006677872,3417,3417,3886,buq,qns-item-noham,19,223562,0.0-1.0-0.18,65ce1c245d118e169dcf927a,AWAITING REVIEW,2024-02-15T14:14:01.183000Z,2024-02-15T14:26:08.238000Z,,2024-02-15T14:26:08.837983Z,728.0,CVPIIDEI,1225,23,Female,White,United States,United States,United States,English,Yes,Part-Time,Not Applicable
6119e2fc2605933b16ea87c0,<b>I think a lot about how to reconcile my beliefs with one another.,Highly disagree,20/94,Somewhat agree,3,1708006678343,1708006682111,\Somewhat agree\,\Somewhat agree\,\3\,1708006681174,1708006681174,2831,2831,3768,buq,qns-item-noham,20,227333,0.0-1.0-0.19,65ce1c245d118e169dcf927a,AWAITING REVIEW,2024-02-15T14:14:01.183000Z,2024-02-15T14:26:08.238000Z,,2024-02-15T14:26:08.837983Z,728.0,CVPIIDEI,1225,23,Female,White,United States,United States,United States,English,Yes,Part-Time,Not Applicable
6119e2fc2605933b16ea87c0,<b>I might have false beliefs about important topics.,Highly disagree,21/94,Somewhat disagree,2,1708006682113,1708006685569,\Somewhat disagree\,\Somewhat disagree\,\2\,1708006684898,1708006684898,2785,2785,3456,buq,qns-item-noham,21,230790,0.0-1.0-0.20,65ce1c245d118e169dcf927a,AWAITING REVIEW,2024-02-15T14:14:01.183000Z,2024-02-15T14:26:08.238000Z,,2024-02-15T14:26:08.837983Z,728.0,CVPIIDEI,1225,23,Female,White,United States,United States,United States,English,Yes,Part-Time,Not Applicable
6119e2fc2605933b16ea87c0,"<b>If a good friend of mine does something unexpected that upsets me, I feel like I don?t know them anymore.",Highly disagree,22/94,Highly agree,4,1708006685571,1708006692774,\Highly agree\,\Highly agree\,\4\,1708006691898,1708006691898,6327,6327,7203,buq,qns-item-noham,22,237995,0.0-1.0-0.21,65ce1c245d118e169dcf927a,AWAITING REVIEW,2024-02-15T14:14:01.183000Z,2024-02-15T14:26:08.238000Z,,2024-02-15T14:26:08.837983Z,728.0,CVPIIDEI,1225,23,Female,White,United States,United States,United States,English,Yes,Part-Time,Not Applicable
6119e2fc2605933b16ea87c0,<b>Other people?s beliefs are often incoherent.,Highly disagree,23/94,Highly disagree,1,1708006692776,1708006695804,\Highly disagree\,\Highly disagree\,\1\,1708006695231,1708006695231,2455,2455,3028,buq,qns-item-noham,23,241025,0.0-1.0-0.22,65ce1c245d118e169dcf927a,AWAITING REVIEW,2024-02-15T14:14:01.183000Z,2024-02-15T14:26:08.238000Z,,2024-02-15T14:26:08.837983Z,728.0,CVPIIDEI,1225,23,Female,White,United States,United States,United States,English,Yes,Part-Time,Not Applicable
6119e2fc2605933b16ea87c0,"<b>Every now and then, a new experience will unsettle beliefs I?ve had for a while.",Highly disagree,24/94,Somewhat agree,3,1708006695805,1708006699062,\Somewhat agree\,\Somewhat agree\,\3\,1708006698663,1708006698663,2858,2858,3257,buq,qns-item-noham,24,244283,0.0-1.0-0.23,65ce1c245d118e169dcf927a,AWAITING REVIEW,2024-02-15T14:14:01.183000Z,2024-02-15T14:26:08.238000Z,,2024-02-15T14:26:08.837983Z,728.0,CVPIIDEI,1225,23,Female,White,United States,United States,United States,English,Yes,Part-Time,Not Applicable
6119e2fc2605933b16ea87c0,<b>Some policies I agree with in principle are so bad I don?t support them. ,Highly disagree,25/94,Highly agree,4,1708006699064,1708006704835,\Highly agree\,\Highly agree\,\4\,1708006703426,1708006703426,4362,4362,5771,buq,qns-item-noham,25,250056,0.0-1.0-0.24,65ce1c245d118e169dcf927a,AWAITING REVIEW,2024-02-15T14:14:01.183000Z,2024-02-15T14:26:08.238000Z,,2024-02-15T14:26:08.837983Z,728.0,CVPIIDEI,1225,23,Female,White,United States,United States,United States,English,Yes,Part-Time,Not Applicable
6119e2fc2605933b16ea87c0,<b>I?m pretty sure I?ve accidentally spread false information.,Highly disagree,26/94,Highly agree,4,1708006704836,1708006707478,\Highly agree\,\Highly agree\,\4\,1708006707039,1708006707039,2203,2203,2642,buq,qns-item-noham,26,252699,0.0-1.0-0.25,65ce1c245d118e169dcf927a,AWAITING REVIEW,2024-02-15T14:14:01.183000Z,2024-02-15T14:26:08.238000Z,,2024-02-15T14:26:08.837983Z,728.0,CVPIIDEI,1225,23,Female,White,United States,United States,United States,English,Yes,Part-Time,Not Applicable
6119e2fc2605933b16ea87c0,"<b>If I go to my favorite restaurant and the food is unexpectedly bad, then they have changed owners.",Highly disagree,27/94,Somewhat disagree,2,1708006707479,1708006713182,\Somewhat disagree\,\Somewhat disagree\,\2\,1708006712578,1708006712578,5099,5099,5703,buq,qns-item-noham,27,258404,0.0-1.0-0.26,65ce1c245d118e169dcf927a,AWAITING REVIEW,2024-02-15T14:14:01.183000Z,2024-02-15T14:26:08.238000Z,,2024-02-15T14:26:08.837983Z,728.0,CVPIIDEI,1225,23,Female,White,United States,United States,United States,English,Yes,Part-Time,Not Applicable
6119e2fc2605933b16ea87c0,"<b>In politics, it?s important to trust your friends and family.",Highly disagree,28/94,Highly disagree,1,1708006713184,1708006725704,\Highly disagree\,\Highly disagree\,\1\,1708006725047,1708006725047,11863,11863,12520,buq,qns-item-noham,28,270925,0.0-1.0-0.27,65ce1c245d118e169dcf927a,AWAITING REVIEW,2024-02-15T14:14:01.183000Z,2024-02-15T14:26:08.238000Z,,2024-02-15T14:26:08.837983Z,728.0,CVPIIDEI,1225,23,Female,White,United States,United States,United States,English,Yes,Part-Time,Not Applicable
6119e2fc2605933b16ea87c0,<b>It?s OK to have some conflicting beliefs.,Highly disagree,29/94,Somewhat agree,3,1708006725705,1708006727781,\Somewhat agree\,\Somewhat agree\,\3\,1708006727229,1708006727229,1524,1524,2076,buq,qns-item-noham,29,273002,0.0-1.0-0.28,65ce1c245d118e169dcf927a,AWAITING REVIEW,2024-02-15T14:14:01.183000Z,2024-02-15T14:26:08.238000Z,,2024-02-15T14:26:08.837983Z,728.0,CVPIIDEI,1225,23,Female,White,United States,United States,United States,English,Yes,Part-Time,Not Applicable
6119e2fc2605933b16ea87c0,<b>Listening to people I disagree with makes my opinions better.,Highly disagree,30/94,Somewhat disagree,2,1708006727783,1708006758901,\Somewhat agree\,\Somewhat disagree\,\3\,1708006738365,1708006758371,10582,30588,31118,buq,qns-item-noham,30,304122,0.0-1.0-0.29,65ce1c245d118e169dcf927a,AWAITING REVIEW,2024-02-15T14:14:01.183000Z,2024-02-15T14:26:08.238000Z,,2024-02-15T14:26:08.837983Z,728.0,CVPIIDEI,1225,23,Female,White,United States,United States,United States,English,Yes,Part-Time,Not Applicable
6119e2fc2605933b16ea87c0,<b>My moral compass sometimes makes it harder to determine what?s true.,Highly disagree,31/94,Somewhat agree,3,1708006758903,1708006763786,\Somewhat agree\,\Somewhat agree\,\3\,1708006763130,1708006763130,4227,4227,4883,buq,qns-item-noham,31,309008,0.0-1.0-0.30,65ce1c245d118e169dcf927a,AWAITING REVIEW,2024-02-15T14:14:01.183000Z,2024-02-15T14:26:08.238000Z,,2024-02-15T14:26:08.837983Z,728.0,CVPIIDEI,1225,23,Female,White,United States,United States,United States,English,Yes,Part-Time,Not Applicable
6119e2fc2605933b16ea87c0,<b>Evidence pointing in the wrong direction isn?t really evidence at all.,Highly disagree,32/94,Highly disagree,1,1708006763788,1708006771535,\Highly disagree\,\Highly disagree\,\1\,1708006771075,1708006771075,7287,7287,7747,buq,qns-item-noham,32,316756,0.0-1.0-0.31,65ce1c245d118e169dcf927a,AWAITING REVIEW,2024-02-15T14:14:01.183000Z,2024-02-15T14:26:08.238000Z,,2024-02-15T14:26:08.837983Z,728.0,CVPIIDEI,1225,23,Female,White,United States,United States,United States,English,Yes,Part-Time,Not Applicable
6119e2fc2605933b16ea87c0,"<b>If the political party I support messes up, it makes me think politics is rotten.",Highly disagree,33/94,Somewhat disagree,2,1708006771537,1708006775684,\Somewhat disagree\,\Somewhat disagree\,\2\,1708006774994,1708006774994,3457,3457,4147,buq,qns-item-noham,33,320905,0.0-1.0-0.32,65ce1c245d118e169dcf927a,AWAITING REVIEW,2024-02-15T14:14:01.183000Z,2024-02-15T14:26:08.238000Z,,2024-02-15T14:26:08.837983Z,728.0,CVPIIDEI,1225,23,Female,White,United States,United States,United States,English,Yes,Part-Time,Not Applicable
6119e2fc2605933b16ea87c0,<b>Lots of important topics can only really be understood by some groups of people.,Highly disagree,34/94,Somewhat agree,3,1708006775686,1708006780984,\Somewhat agree\,\Somewhat agree\,\3\,1708006780330,1708006780330,4644,4644,5298,buq,qns-item-noham,34,326208,0.0-1.0-0.33,65ce1c245d118e169dcf927a,AWAITING REVIEW,2024-02-15T14:14:01.183000Z,2024-02-15T14:26:08.238000Z,,2024-02-15T14:26:08.837983Z,728.0,CVPIIDEI,1225,23,Female,White,United States,United States,United States,English,Yes,Part-Time,Not Applicable
6119e2fc2605933b16ea87c0,<b>Having conflicting beliefs means you haven?t thought about them enough.,Highly disagree,35/94,Highly disagree,1,1708006780988,1708006830711,\Highly disagree\,\Highly disagree\,\1\,1708006830001,1708006830001,49013,49013,49723,buq,qns-item-noham,35,375932,0.0-1.0-0.34,65ce1c245d118e169dcf927a,AWAITING REVIEW,2024-02-15T14:14:01.183000Z,2024-02-15T14:26:08.238000Z,,2024-02-15T14:26:08.837983Z,728.0,CVPIIDEI,1225,23,Female,White,United States,United States,United States,English,Yes,Part-Time,Not Applicable
6119e2fc2605933b16ea87c0,<b>I do not often change my political opinions.,Highly disagree,36/94,Highly agree,4,1708006830713,1708006834232,\Highly agree\,\Highly agree\,\4\,1708006833695,1708006833695,2982,2982,3519,buq,qns-item-noham,36,379453,0.0-1.0-0.35,65ce1c245d118e169dcf927a,AWAITING REVIEW,2024-02-15T14:14:01.183000Z,2024-02-15T14:26:08.238000Z,,2024-02-15T14:26:08.837983Z,728.0,CVPIIDEI,1225,23,Female,White,United States,United States,United States,English,Yes,Part-Time,Not Applicable
6119e2fc2605933b16ea87c0,<b>It?s difficult to not have at least some conflicting beliefs.,Highly disagree,37/94,Somewhat disagree,2,1708006834234,1708006838625,\Somewhat disagree\,\Somewhat disagree\,\2\,1708006837446,1708006837446,3212,3212,4391,buq,qns-item-noham,37,383846,0.0-1.0-0.36,65ce1c245d118e169dcf927a,AWAITING REVIEW,2024-02-15T14:14:01.183000Z,2024-02-15T14:26:08.238000Z,,2024-02-15T14:26:08.837983Z,728.0,CVPIIDEI,1225,23,Female,White,United States,United States,United States,English,Yes,Part-Time,Not Applicable
6119e2fc2605933b16ea87c0,<b>Wishful thinking causes a lot of problems.,Highly disagree,38/94,Somewhat agree,3,1708006838626,1708006841983,\Somewhat agree\,\Somewhat agree\,\3\,1708006841465,1708006841465,2839,2839,3357,buq,qns-item-noham,38,387204,0.0-1.0-0.37,65ce1c245d118e169dcf927a,AWAITING REVIEW,2024-02-15T14:14:01.183000Z,2024-02-15T14:26:08.238000Z,,2024-02-15T14:26:08.837983Z,728.0,CVPIIDEI,1225,23,Female,White,United States,United States,United States,English,Yes,Part-Time,Not Applicable
6119e2fc2605933b16ea87c0,<b>I judge a food item only once I try it many times.,Highly disagree,39/94,Somewhat disagree,2,1708006841985,1708006846789,\Somewhat disagree\,\Somewhat disagree\,\2\,1708006846232,1708006846232,4247,4247,4804,buq,qns-item-noham,39,392010,0.0-1.0-0.38,65ce1c245d118e169dcf927a,AWAITING REVIEW,2024-02-15T14:14:01.183000Z,2024-02-15T14:26:08.238000Z,,2024-02-15T14:26:08.837983Z,728.0,CVPIIDEI,1225,23,Female,White,United States,United States,United States,English,Yes,Part-Time,Not Applicable
6119e2fc2605933b16ea87c0,"<b>When a person holds conflicting beliefs, they should really try to figure out what?s wrong.",Highly disagree,40/94,Somewhat disagree,2,1708006846791,1708006852853,\Somewhat disagree\,\Somewhat disagree\,\2\,1708006851935,1708006851935,5144,5144,6062,buq,qns-item-noham,40,398074,0.0-1.0-0.39,65ce1c245d118e169dcf927a,AWAITING REVIEW,2024-02-15T14:14:01.183000Z,2024-02-15T14:26:08.238000Z,,2024-02-15T14:26:08.837983Z,728.0,CVPIIDEI,1225,23,Female,White,United States,United States,United States,English,Yes,Part-Time,Not Applicable
6119e2fc2605933b16ea87c0,<b>Knowing what?s important in life is easy.,Highly disagree,41/94,Somewhat agree,3,1708006852855,1708006856176,\Somewhat agree\,\Somewhat agree\,\3\,1708006855559,1708006855559,2704,2704,3321,buq,qns-item-noham,41,401397,0.0-1.0-0.40,65ce1c245d118e169dcf927a,AWAITING REVIEW,2024-02-15T14:14:01.183000Z,2024-02-15T14:26:08.238000Z,,2024-02-15T14:26:08.837983Z,728.0,CVPIIDEI,1225,23,Female,White,United States,United States,United States,English,Yes,Part-Time,Not Applicable
6119e2fc2605933b16ea87c0,<b>I swim across the Atlantic Ocean to get to work every day.,Highly disagree,42/94,Highly disagree,1,1708006856178,1708006860053,\Highly disagree\,\Highly disagree\,\1\,1708006859470,1708006859470,3292,3292,3875,buq,qns-item-noham,42,405274,0.0-1.0-0.41,65ce1c245d118e169dcf927a,AWAITING REVIEW,2024-02-15T14:14:01.183000Z,2024-02-15T14:26:08.238000Z,,2024-02-15T14:26:08.837983Z,728.0,CVPIIDEI,1225,23,Female,White,United States,United States,United States,English,Yes,Part-Time,Not Applicable
6119e2fc2605933b16ea87c0,"<b>Sometimes, you just have to ignore evidence that you know is wrong.",Highly disagree,43/94,Highly disagree,1,1708006860054,1708006863717,\Highly disagree\,\Highly disagree\,\1\,1708006863143,1708006863143,3089,3089,3663,buq,qns-item-noham,43,408938,0.0-1.0-0.42,65ce1c245d118e169dcf927a,AWAITING REVIEW,2024-02-15T14:14:01.183000Z,2024-02-15T14:26:08.238000Z,,2024-02-15T14:26:08.837983Z,728.0,CVPIIDEI,1225,23,Female,White,United States,United States,United States,English,Yes,Part-Time,Not Applicable
6119e2fc2605933b16ea87c0,<b>I have had some false beliefs.,Highly disagree,44/94,Somewhat agree,3,1708006863718,1708006866013,\Somewhat agree\,\Somewhat agree\,\3\,1708006865076,1708006865076,1358,1358,2295,buq,qns-item-noham,44,411234,0.0-1.0-0.43,65ce1c245d118e169dcf927a,AWAITING REVIEW,2024-02-15T14:14:01.183000Z,2024-02-15T14:26:08.238000Z,,2024-02-15T14:26:08.837983Z,728.0,CVPIIDEI,1225,23,Female,White,United States,United States,United States,English,Yes,Part-Time,Not Applicable
6119e2fc2605933b16ea87c0,"<b>If one friend does something that upsets me, I sometimes start to distrust people in general.",Highly disagree,45/94,Somewhat agree,3,1708006866014,1708006879833,\Somewhat agree\,\Somewhat agree\,\3\,1708006877262,1708006877262,11248,11248,13819,buq,qns-item-noham,45,425054,0.0-1.0-0.44,65ce1c245d118e169dcf927a,AWAITING REVIEW,2024-02-15T14:14:01.183000Z,2024-02-15T14:26:08.238000Z,,2024-02-15T14:26:08.837983Z,728.0,CVPIIDEI,1225,23,Female,White,United States,United States,United States,English,Yes,Part-Time,Not Applicable
6119e2fc2605933b16ea87c0,<b>The facts about most important matters are easy to find.,Highly disagree,46/94,Somewhat disagree,2,1708006879835,1708006887985,\Highly disagree\,\Somewhat disagree\,\1\,1708006885587,1708006887277,5752,7442,8150,buq,qns-item-noham,46,433206,0.0-1.0-0.45,65ce1c245d118e169dcf927a,AWAITING REVIEW,2024-02-15T14:14:01.183000Z,2024-02-15T14:26:08.238000Z,,2024-02-15T14:26:08.837983Z,728.0,CVPIIDEI,1225,23,Female,White,United States,United States,United States,English,Yes,Part-Time,Not Applicable
6119e2fc2605933b16ea87c0,<b>It?s better to know what?s true than to know what?s moral.,Highly disagree,47/94,Highly disagree,1,1708006887986,1708006891754,\Highly disagree\,\Highly disagree\,\1\,1708006891136,1708006891136,3150,3150,3768,buq,qns-item-noham,47,436975,0.0-1.0-0.46,65ce1c245d118e169dcf927a,AWAITING REVIEW,2024-02-15T14:14:01.183000Z,2024-02-15T14:26:08.238000Z,,2024-02-15T14:26:08.837983Z,728.0,CVPIIDEI,1225,23,Female,White,United States,United States,United States,English,Yes,Part-Time,Not Applicable
6119e2fc2605933b16ea87c0,<b>I used to think the world was less complicated than I do now.,Highly disagree,48/94,Highly agree,4,1708006891756,1708006895799,\Highly agree\,\Highly agree\,\4\,1708006895260,1708006895260,3504,3504,4043,buq,qns-item-noham,48,441020,0.0-1.0-0.47,65ce1c245d118e169dcf927a,AWAITING REVIEW,2024-02-15T14:14:01.183000Z,2024-02-15T14:26:08.238000Z,,2024-02-15T14:26:08.837983Z,728.0,CVPIIDEI,1225,23,Female,White,United States,United States,United States,English,Yes,Part-Time,Not Applicable
6119e2fc2605933b16ea87c0,<b>People are usually completely right or completely wrong.,Highly disagree,49/94,Highly disagree,1,1708006895801,1708006898863,\Highly disagree\,\Highly disagree\,\1\,1708006898350,1708006898350,2549,2549,3062,buq,qns-item-noham,49,444084,0.0-1.0-0.48,65ce1c245d118e169dcf927a,AWAITING REVIEW,2024-02-15T14:14:01.183000Z,2024-02-15T14:26:08.238000Z,,2024-02-15T14:26:08.837983Z,728.0,CVPIIDEI,1225,23,Female,White,United States,United States,United States,English,Yes,Part-Time,Not Applicable
6119e2fc2605933b16ea87c0,<b>I spend a lot of time considering alternatives to my beliefs.,Highly disagree,50/94,Highly disagree,1,1708006898864,1708006902416,\Highly disagree\,\Highly disagree\,\1\,1708006901564,1708006901564,2700,2700,3552,buq,qns-item-noham,50,447637,0.0-1.0-0.49,65ce1c245d118e169dcf927a,AWAITING REVIEW,2024-02-15T14:14:01.183000Z,2024-02-15T14:26:08.238000Z,,2024-02-15T14:26:08.837983Z,728.0,CVPIIDEI,1225,23,Female,White,United States,United States,United States,English,Yes,Part-Time,Not Applicable
6119e2fc2605933b16ea87c0,"<b>Political enemies need to be defeated, not convinced.",Highly disagree,51/94,Somewhat agree,3,1708006902417,1708006905657,\Somewhat agree\,\Somewhat agree\,\3\,1708006905172,1708006905172,2755,2755,3240,buq,qns-item-noham,51,450878,0.0-1.0-0.50,65ce1c245d118e169dcf927a,AWAITING REVIEW,2024-02-15T14:14:01.183000Z,2024-02-15T14:26:08.238000Z,,2024-02-15T14:26:08.837983Z,728.0,CVPIIDEI,1225,23,Female,White,United States,United States,United States,English,Yes,Part-Time,Not Applicable
6119e2fc2605933b16ea87c0,<b>I form my political views only after meticulously gathering historical and present information about their policies.,Highly disagree,52/94,Highly disagree,1,1708006905658,1708006938987,\Highly disagree\,\Highly disagree\,\1\,1708006938163,1708006938163,32505,32505,33329,buq,qns-item-noham,52,484208,0.0-1.0-0.51,65ce1c245d118e169dcf927a,AWAITING REVIEW,2024-02-15T14:14:01.183000Z,2024-02-15T14:26:08.238000Z,,2024-02-15T14:26:08.837983Z,728.0,CVPIIDEI,1225,23,Female,White,United States,United States,United States,English,Yes,Part-Time,Not Applicable
6119e2fc2605933b16ea87c0,<b>It is difficult for me to remember the last time I was surprised by politics.,Highly disagree,53/94,Somewhat agree,3,1708006938990,1708006945719,\Somewhat agree\,\Somewhat agree\,\3\,1708006945147,1708006945147,6157,6157,6729,buq,qns-item-noham,53,490940,0.0-1.0-0.52,65ce1c245d118e169dcf927a,AWAITING REVIEW,2024-02-15T14:14:01.183000Z,2024-02-15T14:26:08.238000Z,,2024-02-15T14:26:08.837983Z,728.0,CVPIIDEI,1225,23,Female,White,United States,United States,United States,English,Yes,Part-Time,Not Applicable
6119e2fc2605933b16ea87c0,"<b>When I find out I?m wrong, I think a lot about my related beliefs.",Highly disagree,54/94,Somewhat disagree,2,1708006945720,1708006951339,\Somewhat agree\,\Somewhat disagree\,\3\,1708006950268,1708006950840,4548,5120,5619,buq,qns-item-noham,54,496560,0.0-1.0-0.53,65ce1c245d118e169dcf927a,AWAITING REVIEW,2024-02-15T14:14:01.183000Z,2024-02-15T14:26:08.238000Z,,2024-02-15T14:26:08.837983Z,728.0,CVPIIDEI,1225,23,Female,White,United States,United States,United States,English,Yes,Part-Time,Not Applicable
6119e2fc2605933b16ea87c0,"<b>If the political party I support messes up, it makes me think you can?t trust anyone these days",Highly disagree,55/94,Somewhat agree,3,1708006951340,1708006954584,\Somewhat agree\,\Somewhat agree\,\3\,1708006954030,1708006954030,2690,2690,3244,buq,qns-item-noham,55,499805,0.0-1.0-0.54,65ce1c245d118e169dcf927a,AWAITING REVIEW,2024-02-15T14:14:01.183000Z,2024-02-15T14:26:08.238000Z,,2024-02-15T14:26:08.837983Z,728.0,CVPIIDEI,1225,23,Female,White,United States,United States,United States,English,Yes,Part-Time,Not Applicable
6119e2fc2605933b16ea87c0,<b>People?s brains turn off when they talk about politics.,Highly disagree,56/94,Highly disagree,1,1708006954586,1708006959798,\Highly disagree\,\Highly disagree\,\1\,1708006959160,1708006959160,4574,4574,5212,buq,qns-item-noham,56,505019,0.0-1.0-0.55,65ce1c245d118e169dcf927a,AWAITING REVIEW,2024-02-15T14:14:01.183000Z,2024-02-15T14:26:08.238000Z,,2024-02-15T14:26:08.837983Z,728.0,CVPIIDEI,1225,23,Female,White,United States,United States,United States,English,Yes,Part-Time,Not Applicable
6119e2fc2605933b16ea87c0,<b>People who are wrong are usually just ignoring the obvious.,Highly disagree,57/94,Somewhat agree,3,1708006959800,1708006962664,\Somewhat agree\,\Somewhat agree\,\3\,1708006961857,1708006961857,2057,2057,2864,buq,qns-item-noham,57,507885,0.0-1.0-0.56,65ce1c245d118e169dcf927a,AWAITING REVIEW,2024-02-15T14:14:01.183000Z,2024-02-15T14:26:08.238000Z,,2024-02-15T14:26:08.837983Z,728.0,CVPIIDEI,1225,23,Female,White,United States,United States,United States,English,Yes,Part-Time,Not Applicable
6119e2fc2605933b16ea87c0,"<b>When forming my views on people, I rely more on what they are like now rather than rely on my past experience with them.",Highly disagree,58/94,Highly disagree,1,1708006962666,1708006969078,\Highly disagree\,\Highly disagree\,\1\,1708006968487,1708006968487,5821,5821,6412,buq,qns-item-noham,58,514299,0.0-1.0-0.57,65ce1c245d118e169dcf927a,AWAITING REVIEW,2024-02-15T14:14:01.183000Z,2024-02-15T14:26:08.238000Z,,2024-02-15T14:26:08.837983Z,728.0,CVPIIDEI,1225,23,Female,White,United States,United States,United States,English,Yes,Part-Time,Not Applicable
6119e2fc2605933b16ea87c0,"<b>When people contradict my beliefs, I usually know about their evidence already.",Highly disagree,59/94,Somewhat agree,3,1708006969080,1708006977162,\Somewhat agree\,\Somewhat agree\,\3\,1708006976320,1708006976320,7240,7240,8082,buq,qns-item-noham,59,522383,0.0-1.0-0.58,65ce1c245d118e169dcf927a,AWAITING REVIEW,2024-02-15T14:14:01.183000Z,2024-02-15T14:26:08.238000Z,,2024-02-15T14:26:08.837983Z,728.0,CVPIIDEI,1225,23,Female,White,United States,United States,United States,English,Yes,Part-Time,Not Applicable
6119e2fc2605933b16ea87c0,<b>Figuring out what?s true and what?s false mainly requires a strong moral compass.,Highly disagree,60/94,Somewhat agree,3,1708006977163,1708006985704,\Somewhat agree\,\Somewhat agree\,\3\,1708006985099,1708006985099,7936,7936,8541,buq,qns-item-noham,60,530925,0.0-1.0-0.59,65ce1c245d118e169dcf927a,AWAITING REVIEW,2024-02-15T14:14:01.183000Z,2024-02-15T14:26:08.238000Z,,2024-02-15T14:26:08.837983Z,728.0,CVPIIDEI,1225,23,Female,White,United States,United States,United States,English,Yes,Part-Time,Not Applicable
6119e2fc2605933b16ea87c0,"<b>Usually I?m wrong about simple things, not complicated ones.",Highly disagree,61/94,Highly agree,4,1708006985706,1708006995338,\Highly agree\,\Highly agree\,\4\,1708006994596,1708006994596,8890,8890,9632,buq,qns-item-noham,61,540559,0.0-1.0-0.60,65ce1c245d118e169dcf927a,AWAITING REVIEW,2024-02-15T14:14:01.183000Z,2024-02-15T14:26:08.238000Z,,2024-02-15T14:26:08.837983Z,728.0,CVPIIDEI,1225,23,Female,White,United States,United States,United States,English,Yes,Part-Time,Not Applicable
6119e2fc2605933b16ea87c0,<b>Getting all the information I want about important things is hard.,Highly disagree,62/94,Somewhat agree,3,1708006995340,1708006998431,\Somewhat agree\,\Somewhat agree\,\3\,1708006997128,1708006997128,1788,1788,3091,buq,qns-item-noham,62,543652,0.0-1.0-0.61,65ce1c245d118e169dcf927a,AWAITING REVIEW,2024-02-15T14:14:01.183000Z,2024-02-15T14:26:08.238000Z,,2024-02-15T14:26:08.837983Z,728.0,CVPIIDEI,1225,23,Female,White,United States,United States,United States,English,Yes,Part-Time,Not Applicable
6119e2fc2605933b16ea87c0,<b>Most false beliefs spread because people try to deceive one another.,Highly disagree,63/94,Highly agree,4,1708006998432,1708007001769,\Highly agree\,\Highly agree\,\4\,1708007001167,1708007001167,2735,2735,3337,buq,qns-item-noham,63,546990,0.0-1.0-0.62,65ce1c245d118e169dcf927a,AWAITING REVIEW,2024-02-15T14:14:01.183000Z,2024-02-15T14:26:08.238000Z,,2024-02-15T14:26:08.837983Z,728.0,CVPIIDEI,1225,23,Female,White,United States,United States,United States,English,Yes,Part-Time,Not Applicable
6119e2fc2605933b16ea87c0,<b>I can usually find something to agree with in most people?s beliefs.,Highly disagree,64/94,Somewhat agree,3,1708007001771,1708007011683,\Somewhat agree\,\Somewhat agree\,\3\,1708007011095,1708007011095,9324,9324,9912,buq,qns-item-noham,64,556904,0.0-1.0-0.63,65ce1c245d118e169dcf927a,AWAITING REVIEW,2024-02-15T14:14:01.183000Z,2024-02-15T14:26:08.238000Z,,2024-02-15T14:26:08.837983Z,728.0,CVPIIDEI,1225,23,Female,White,United States,United States,United States,English,Yes,Part-Time,Not Applicable
6119e2fc2605933b16ea87c0,<b>I only form my views of people once I get to know them very well.,Highly disagree,65/94,Somewhat disagree,2,1708007011684,1708007018206,\Somewhat disagree\,\Somewhat disagree\,\2\,1708007017701,1708007017701,6017,6017,6522,buq,qns-item-noham,65,563427,0.0-1.0-0.64,65ce1c245d118e169dcf927a,AWAITING REVIEW,2024-02-15T14:14:01.183000Z,2024-02-15T14:26:08.238000Z,,2024-02-15T14:26:08.837983Z,728.0,CVPIIDEI,1225,23,Female,White,United States,United States,United States,English,Yes,Part-Time,Not Applicable
6119e2fc2605933b16ea87c0,"<b>When people tell me important things about the world, I usually believe them.",Highly disagree,66/94,Somewhat agree,3,1708007018208,1708007021991,\Somewhat agree\,\Somewhat agree\,\3\,1708007021206,1708007021206,2998,2998,3783,buq,qns-item-noham,66,567212,0.0-1.0-0.65,65ce1c245d118e169dcf927a,AWAITING REVIEW,2024-02-15T14:14:01.183000Z,2024-02-15T14:26:08.238000Z,,2024-02-15T14:26:08.837983Z,728.0,CVPIIDEI,1225,23,Female,White,United States,United States,United States,English,Yes,Part-Time,Not Applicable
6119e2fc2605933b16ea87c0,"<b>If a friend does something that upsets me, it reminds me what an unpredictable place the world is.",Highly disagree,67/94,Highly disagree,1,1708007021992,1708007025919,\Highly disagree\,\Highly disagree\,\1\,1708007025282,1708007025282,3290,3290,3927,buq,qns-item-noham,67,571140,0.0-1.0-0.66,65ce1c245d118e169dcf927a,AWAITING REVIEW,2024-02-15T14:14:01.183000Z,2024-02-15T14:26:08.238000Z,,2024-02-15T14:26:08.837983Z,728.0,CVPIIDEI,1225,23,Female,White,United States,United States,United States,English,Yes,Part-Time,Not Applicable
6119e2fc2605933b16ea87c0,<b>People tend to believe whatever is good for their friends.,Highly disagree,68/94,Highly agree,4,1708007025921,1708007031328,\Highly agree\,\Highly agree\,\4\,1708007030759,1708007030759,4838,4838,5407,buq,qns-item-noham,68,576549,0.0-1.0-0.67,65ce1c245d118e169dcf927a,AWAITING REVIEW,2024-02-15T14:14:01.183000Z,2024-02-15T14:26:08.238000Z,,2024-02-15T14:26:08.837983Z,728.0,CVPIIDEI,1225,23,Female,White,United States,United States,United States,English,Yes,Part-Time,Not Applicable
6119e2fc2605933b16ea87c0,<b>I used to be more certain my beliefs were true.,Highly disagree,69/94,Somewhat agree,3,1708007031330,1708007033824,\Somewhat agree\,\Somewhat agree\,\3\,1708007033270,1708007033270,1940,1940,2494,buq,qns-item-noham,69,579045,0.0-1.0-0.68,65ce1c245d118e169dcf927a,AWAITING REVIEW,2024-02-15T14:14:01.183000Z,2024-02-15T14:26:08.238000Z,,2024-02-15T14:26:08.837983Z,728.0,CVPIIDEI,1225,23,Female,White,United States,United States,United States,English,Yes,Part-Time,Not Applicable
6119e2fc2605933b16ea87c0,<b>It?s often pretty easy to figure out whether something is true based on who said it.,Highly disagree,70/94,Somewhat agree,3,1708007033825,1708007041802,\Somewhat agree\,\Somewhat agree\,\3\,1708007040947,1708007040947,7122,7122,7977,buq,qns-item-noham,70,587023,0.0-1.0-0.69,65ce1c245d118e169dcf927a,AWAITING REVIEW,2024-02-15T14:14:01.183000Z,2024-02-15T14:26:08.238000Z,,2024-02-15T14:26:08.837983Z,728.0,CVPIIDEI,1225,23,Female,White,United States,United States,United States,English,Yes,Part-Time,Not Applicable
6119e2fc2605933b16ea87c0,<b>I transform into a hummingbird every day.,Highly disagree,71/94,Highly disagree,1,1708007041803,1708007043979,\Highly disagree\,\Highly disagree\,\1\,1708007043488,1708007043488,1685,1685,2176,buq,qns-item-noham,71,589200,0.0-1.0-0.70,65ce1c245d118e169dcf927a,AWAITING REVIEW,2024-02-15T14:14:01.183000Z,2024-02-15T14:26:08.238000Z,,2024-02-15T14:26:08.837983Z,728.0,CVPIIDEI,1225,23,Female,White,United States,United States,United States,English,Yes,Part-Time,Not Applicable
6119e2fc2605933b16ea87c0,<b>I think a lot about arguments against my views.,Highly disagree,72/94,Highly disagree,1,1708007043981,1708007047846,\Highly disagree\,\Highly disagree\,\1\,1708007047221,1708007047221,3240,3240,3865,buq,qns-item-noham,72,593067,0.0-1.0-0.71,65ce1c245d118e169dcf927a,AWAITING REVIEW,2024-02-15T14:14:01.183000Z,2024-02-15T14:26:08.238000Z,,2024-02-15T14:26:08.837983Z,728.0,CVPIIDEI,1225,23,Female,White,United States,United States,United States,English,Yes,Part-Time,Not Applicable
6119e2fc2605933b16ea87c0,<b>Personal experience is usually more important than facts and figures.,Highly disagree,73/94,Somewhat agree,3,1708007047847,1708007052829,\Somewhat agree\,\Somewhat agree\,\3\,1708007050982,1708007050982,3135,3135,4982,buq,qns-item-noham,73,598050,0.0-1.0-0.72,65ce1c245d118e169dcf927a,AWAITING REVIEW,2024-02-15T14:14:01.183000Z,2024-02-15T14:26:08.238000Z,,2024-02-15T14:26:08.837983Z,728.0,CVPIIDEI,1225,23,Female,White,United States,United States,United States,English,Yes,Part-Time,Not Applicable
6119e2fc2605933b16ea87c0,<b>I?ve been tricked before about important matters.,Highly disagree,74/94,Highly agree,4,1708007052832,1708007055250,\Highly agree\,\Highly agree\,\4\,1708007054731,1708007054731,1899,1899,2418,buq,qns-item-noham,74,600471,0.0-1.0-0.73,65ce1c245d118e169dcf927a,AWAITING REVIEW,2024-02-15T14:14:01.183000Z,2024-02-15T14:26:08.238000Z,,2024-02-15T14:26:08.837983Z,728.0,CVPIIDEI,1225,23,Female,White,United States,United States,United States,English,Yes,Part-Time,Not Applicable
6119e2fc2605933b16ea87c0,<b>I would need to be totally wowed if I were to change my opinion of a restaurant I don?t like.,Highly disagree,75/94,Highly agree,4,1708007055252,1708007060412,\Highly agree\,\Highly agree\,\4\,1708007059908,1708007059908,4656,4656,5160,buq,qns-item-noham,75,605633,0.0-1.0-0.74,65ce1c245d118e169dcf927a,AWAITING REVIEW,2024-02-15T14:14:01.183000Z,2024-02-15T14:26:08.238000Z,,2024-02-15T14:26:08.837983Z,728.0,CVPIIDEI,1225,23,Female,White,United States,United States,United States,English,Yes,Part-Time,Not Applicable
6119e2fc2605933b16ea87c0,<b>I care a lot about politics.,Highly disagree,76/94,Somewhat disagree,2,1708007060414,1708007062940,\Somewhat disagree\,\Somewhat disagree\,\2\,1708007062256,1708007062256,1842,1842,2526,buq,qns-item-noham,76,608161,0.0-1.0-0.75,65ce1c245d118e169dcf927a,AWAITING REVIEW,2024-02-15T14:14:01.183000Z,2024-02-15T14:26:08.238000Z,,2024-02-15T14:26:08.837983Z,728.0,CVPIIDEI,1225,23,Female,White,United States,United States,United States,English,Yes,Part-Time,Not Applicable
6119e2fc2605933b16ea87c0,<b>There are some topics I?ve been really wrong about.,Highly disagree,77/94,Somewhat agree,3,1708007062942,1708007065380,\Somewhat agree\,\Somewhat agree\,\3\,1708007064841,1708007064841,1899,1899,2438,buq,qns-item-noham,77,610601,0.0-1.0-0.76,65ce1c245d118e169dcf927a,AWAITING REVIEW,2024-02-15T14:14:01.183000Z,2024-02-15T14:26:08.238000Z,,2024-02-15T14:26:08.837983Z,728.0,CVPIIDEI,1225,23,Female,White,United States,United States,United States,English,Yes,Part-Time,Not Applicable
6119e2fc2605933b16ea87c0,<b>Most beliefs can be supported with at least some evidence.,Highly disagree,78/94,Highly agree,4,1708007065382,1708007068229,\Highly agree\,\Highly agree\,\4\,1708007067274,1708007067274,1892,1892,2847,buq,qns-item-noham,78,613450,0.0-1.0-0.77,65ce1c245d118e169dcf927a,AWAITING REVIEW,2024-02-15T14:14:01.183000Z,2024-02-15T14:26:08.238000Z,,2024-02-15T14:26:08.837983Z,728.0,CVPIIDEI,1225,23,Female,White,United States,United States,United States,English,Yes,Part-Time,Not Applicable
6119e2fc2605933b16ea87c0,<b>Other people make life out to be more complicated than it really is.,Highly disagree,79/94,Highly agree,4,1708007068231,1708007072529,\Highly agree\,\Highly agree\,\4\,1708007071740,1708007071740,3509,3509,4298,buq,qns-item-noham,79,617750,0.0-1.0-0.78,65ce1c245d118e169dcf927a,AWAITING REVIEW,2024-02-15T14:14:01.183000Z,2024-02-15T14:26:08.238000Z,,2024-02-15T14:26:08.837983Z,728.0,CVPIIDEI,1225,23,Female,White,United States,United States,United States,English,Yes,Part-Time,Not Applicable
6119e2fc2605933b16ea87c0,"<b>Policy details don?t matter much, just the big picture.",Highly disagree,80/94,Somewhat agree,3,1708007072531,1708007076404,\Highly agree\,\Somewhat agree\,\4\,1708007074977,1708007075913,2446,3382,3873,buq,qns-item-noham,80,621625,0.0-1.0-0.79,65ce1c245d118e169dcf927a,AWAITING REVIEW,2024-02-15T14:14:01.183000Z,2024-02-15T14:26:08.238000Z,,2024-02-15T14:26:08.837983Z,728.0,CVPIIDEI,1225,23,Female,White,United States,United States,United States,English,Yes,Part-Time,Not Applicable
6119e2fc2605933b16ea87c0,<b>I know my friends so well they can hardly ever surprise me.,Highly disagree,81/94,Somewhat disagree,2,1708007076405,1708007080374,\Somewhat disagree\,\Somewhat disagree\,\2\,1708007079767,1708007079767,3362,3362,3969,buq,qns-item-noham,81,625595,0.0-1.0-0.80,65ce1c245d118e169dcf927a,AWAITING REVIEW,2024-02-15T14:14:01.183000Z,2024-02-15T14:26:08.238000Z,,2024-02-15T14:26:08.837983Z,728.0,CVPIIDEI,1225,23,Female,White,United States,United States,United States,English,Yes,Part-Time,Not Applicable
6119e2fc2605933b16ea87c0,<b>I do not often change my views on people.,Highly disagree,82/94,Somewhat disagree,2,1708007080376,1708007084024,\Somewhat disagree\,\Somewhat disagree\,\2\,1708007083368,1708007083368,2992,2992,3648,buq,qns-item-noham,82,629245,0.0-1.0-0.81,65ce1c245d118e169dcf927a,AWAITING REVIEW,2024-02-15T14:14:01.183000Z,2024-02-15T14:26:08.238000Z,,2024-02-15T14:26:08.837983Z,728.0,CVPIIDEI,1225,23,Female,White,United States,United States,United States,English,Yes,Part-Time,Not Applicable
6119e2fc2605933b16ea87c0,<b>I?m more certain about my beliefs than I used to be.,Highly disagree,83/94,Somewhat agree,3,1708007084026,1708007093406,\Somewhat agree\,\Somewhat agree\,\3\,1708007092550,1708007092550,8524,8524,9380,buq,qns-item-noham,83,638627,0.0-1.0-0.82,65ce1c245d118e169dcf927a,AWAITING REVIEW,2024-02-15T14:14:01.183000Z,2024-02-15T14:26:08.238000Z,,2024-02-15T14:26:08.837983Z,728.0,CVPIIDEI,1225,23,Female,White,United States,United States,United States,English,Yes,Part-Time,Not Applicable
6119e2fc2605933b16ea87c0,<b>People often tell falsehoods unintentionally.,Highly disagree,84/94,Highly disagree,1,1708007093407,1708007098847,\Highly disagree\,\Highly disagree\,\1\,1708007098058,1708007098058,4651,4651,5440,buq,qns-item-noham,84,644068,0.0-1.0-0.83,65ce1c245d118e169dcf927a,AWAITING REVIEW,2024-02-15T14:14:01.183000Z,2024-02-15T14:26:08.238000Z,,2024-02-15T14:26:08.837983Z,728.0,CVPIIDEI,1225,23,Female,White,United States,United States,United States,English,Yes,Part-Time,Not Applicable
6119e2fc2605933b16ea87c0,<b>Most people don?t know much about most things.,Highly disagree,85/94,Somewhat disagree,2,1708007098848,1708007103530,\Somewhat disagree\,\Somewhat disagree\,\2\,1708007102844,1708007102844,3996,3996,4682,buq,qns-item-noham,85,648752,0.0-1.0-0.84,65ce1c245d118e169dcf927a,AWAITING REVIEW,2024-02-15T14:14:01.183000Z,2024-02-15T14:26:08.238000Z,,2024-02-15T14:26:08.837983Z,728.0,CVPIIDEI,1225,23,Female,White,United States,United States,United States,English,Yes,Part-Time,Not Applicable
6119e2fc2605933b16ea87c0,"<b>If I find out something new about someone, I easily change my views about them.",Highly disagree,86/94,Highly agree,4,1708007103532,1708007114214,\Somewhat agree\,\Highly agree\,\3\,1708007112481,1708007113699,8949,10167,10682,buq,qns-item-noham,86,659435,0.0-1.0-0.85,65ce1c245d118e169dcf927a,AWAITING REVIEW,2024-02-15T14:14:01.183000Z,2024-02-15T14:26:08.238000Z,,2024-02-15T14:26:08.837983Z,728.0,CVPIIDEI,1225,23,Female,White,United States,United States,United States,English,Yes,Part-Time,Not Applicable
6119e2fc2605933b16ea87c0,<b>Having true beliefs is difficult.,Highly disagree,87/94,Somewhat agree,3,1708007114216,1708007116434,\Somewhat agree\,\Somewhat agree\,\3\,1708007115897,1708007115897,1681,1681,2218,buq,qns-item-noham,87,661656,0.0-1.0-0.86,65ce1c245d118e169dcf927a,AWAITING REVIEW,2024-02-15T14:14:01.183000Z,2024-02-15T14:26:08.238000Z,,2024-02-15T14:26:08.837983Z,728.0,CVPIIDEI,1225,23,Female,White,United States,United States,United States,English,Yes,Part-Time,Not Applicable
6119e2fc2605933b16ea87c0,<b>I don?t try new foods since I know I won?t like them.,Highly disagree,88/94,Highly disagree,1,1708007116436,1708007125251,\Highly disagree\,\Highly disagree\,\1\,1708007124585,1708007124585,8149,8149,8815,buq,qns-item-noham,88,670472,0.0-1.0-0.87,65ce1c245d118e169dcf927a,AWAITING REVIEW,2024-02-15T14:14:01.183000Z,2024-02-15T14:26:08.238000Z,,2024-02-15T14:26:08.837983Z,728.0,CVPIIDEI,1225,23,Female,White,United States,United States,United States,English,Yes,Part-Time,Not Applicable
6119e2fc2605933b16ea87c0,<b>Other people trick each other a lot.,Highly disagree,89/94,Somewhat agree,3,1708007125253,1708007127770,\Somewhat agree\,\Somewhat agree\,\3\,1708007127385,1708007127385,2132,2132,2517,buq,qns-item-noham,89,672992,0.0-1.0-0.88,65ce1c245d118e169dcf927a,AWAITING REVIEW,2024-02-15T14:14:01.183000Z,2024-02-15T14:26:08.238000Z,,2024-02-15T14:26:08.837983Z,728.0,CVPIIDEI,1225,23,Female,White,United States,United States,United States,English,Yes,Part-Time,Not Applicable
6119e2fc2605933b16ea87c0,<b>I would need to learn a lot about a person for my opinion of them to be swayed.,Highly disagree,90/94,Somewhat agree,3,1708007127772,1708007134640,\Somewhat agree\,\Somewhat agree\,\3\,1708007130124,1708007130124,2352,2352,6868,buq,qns-item-noham,90,679861,0.0-1.0-0.89,65ce1c245d118e169dcf927a,AWAITING REVIEW,2024-02-15T14:14:01.183000Z,2024-02-15T14:26:08.238000Z,,2024-02-15T14:26:08.837983Z,728.0,CVPIIDEI,1225,23,Female,White,United States,United States,United States,English,Yes,Part-Time,Not Applicable
6119e2fc2605933b16ea87c0,<b>People can?t usually trick me when it comes to topics I care about.,Highly disagree,91/94,Highly disagree,1,1708007134642,1708007137833,\Somewhat disagree\,\Highly disagree\,\2\,1708007136625,1708007137229,1983,2587,3191,buq,qns-item-noham,91,683054,0.0-1.0-0.90,65ce1c245d118e169dcf927a,AWAITING REVIEW,2024-02-15T14:14:01.183000Z,2024-02-15T14:26:08.238000Z,,2024-02-15T14:26:08.837983Z,728.0,CVPIIDEI,1225,23,Female,White,United States,United States,United States,English,Yes,Part-Time,Not Applicable
6119e2fc2605933b16ea87c0,<b>I do not often change my views on food.,Highly disagree,92/94,Somewhat agree,3,1708007137835,1708007141117,\Somewhat agree\,\Somewhat agree\,\3\,1708007140631,1708007140631,2796,2796,3282,buq,qns-item-noham,92,686338,0.0-1.0-0.91,65ce1c245d118e169dcf927a,AWAITING REVIEW,2024-02-15T14:14:01.183000Z,2024-02-15T14:26:08.238000Z,,2024-02-15T14:26:08.837983Z,728.0,CVPIIDEI,1225,23,Female,White,United States,United States,United States,English,Yes,Part-Time,Not Applicable
6119e2fc2605933b16ea87c0,<b>Specific policies are often very important to me.,Highly disagree,93/94,Somewhat disagree,2,1708007141119,1708007144952,\Somewhat disagree\,\Somewhat disagree\,\2\,1708007143261,1708007143261,2142,2142,3833,buq,qns-item-noham,93,690173,0.0-1.0-0.92,65ce1c245d118e169dcf927a,AWAITING REVIEW,2024-02-15T14:14:01.183000Z,2024-02-15T14:26:08.238000Z,,2024-02-15T14:26:08.837983Z,728.0,CVPIIDEI,1225,23,Female,White,United States,United States,United States,English,Yes,Part-Time,Not Applicable
6119e2fc2605933b16ea87c0,<b>Most people are woefully under-informed.,Highly disagree,94/94,Highly agree,4,1708007144953,1708007147154,\Highly agree\,\Highly agree\,\4\,1708007146587,1708007146587,1634,1634,2201,buq,qns-item-noham,94,692375,0.0-1.0-0.93,65ce1c245d118e169dcf927a,AWAITING REVIEW,2024-02-15T14:14:01.183000Z,2024-02-15T14:26:08.238000Z,,2024-02-15T14:26:08.837983Z,728.0,CVPIIDEI,1225,23,Female,White,United States,United States,United States,English,Yes,Part-Time,Not Applicable
6119e2fc2605933b16ea87c0,,,,,,,,,,,,,,,,,,,,,65ce1c245d118e169dcf927a,AWAITING REVIEW,2024-02-15T14:14:01.183000Z,2024-02-15T14:26:08.238000Z,,2024-02-15T14:26:08.837983Z,728.0,CVPIIDEI,1225,23,Female,White,United States,United States,United States,English,Yes,Part-Time,Not Applicable
