PROLIFIC_PID,Question,qns_options,quest_num,answer,answer_num,question_load_timestamp,next_btn_timestamp,text_selected,final_text_selected,option_num_selected,preview_timestamps,final_text_selected_time_stamp,rt_first_option_click,rt_final_option_click,rt_submit_click,questionnaire,trial_type,trial_index,time_elapsed,internal_node_id,Demographic_Submission id,Demographic_Status,Demographic_Started at,Demographic_Completed at,Demographic_Reviewed at,Demographic_Archived at,Demographic_Time taken,Demographic_Completion code,Demographic_Total approvals,Demographic_Age,Demographic_Sex,Demographic_Ethnicity simplified,Demographic_Country of birth,Demographic_Country of residence,Demographic_Nationality,Demographic_Language,Demographic_Student status,Demographic_Employment status,Demographic_Custom study tncs accepted at
65ccbda91469b2dbe8beb9c1,<b>Knowing what?s true and knowing what to do about it are usually basically the same.,Highly disagree,1/94,Somewhat disagree,2,1708006666755,1708006681942,\Somewhat disagree\,\Somewhat disagree\,\2\,1708006680254,1708006680254,13499,13499,15187,buq,qns-item-noham,1,19353,0.0-1.0-0.0,65ce1cf00e109febcd8a1649,AWAITING REVIEW,2024-02-15T14:17:28.281000Z,2024-02-15T14:27:05.506000Z,,2024-02-15T14:27:06.140439Z,578.0,CVPIIDEI,10,20,Female,Asian,United States,United States,United States,English,Yes,DATA_EXPIRED,Not Applicable
65ccbda91469b2dbe8beb9c1,<b>Most people just believe whatever is convenient for them.,Highly disagree,2/94,Somewhat agree,3,1708006681943,1708006690532,\Somewhat agree\,\Somewhat agree\,\3\,1708006689554,1708006689554,7611,7611,8589,buq,qns-item-noham,2,27943,0.0-1.0-0.1,65ce1cf00e109febcd8a1649,AWAITING REVIEW,2024-02-15T14:17:28.281000Z,2024-02-15T14:27:05.506000Z,,2024-02-15T14:27:06.140439Z,578.0,CVPIIDEI,10,20,Female,Asian,United States,United States,United States,English,Yes,DATA_EXPIRED,Not Applicable
65ccbda91469b2dbe8beb9c1,<b>Having some big beliefs helps me sort out minor ones.,Highly disagree,3/94,Somewhat agree,3,1708006690533,1708006699293,\Somewhat agree\,\Somewhat agree\,\3\,1708006698309,1708006698309,7776,7776,8760,buq,qns-item-noham,3,36704,0.0-1.0-0.2,65ce1cf00e109febcd8a1649,AWAITING REVIEW,2024-02-15T14:17:28.281000Z,2024-02-15T14:27:05.506000Z,,2024-02-15T14:27:06.140439Z,578.0,CVPIIDEI,10,20,Female,Asian,United States,United States,United States,English,Yes,DATA_EXPIRED,Not Applicable
65ccbda91469b2dbe8beb9c1,<b>Political questions are usually pretty complicated.,Highly disagree,4/94,Highly agree,4,1708006699296,1708006703846,\Highly agree\,\Highly agree\,\4\,1708006702841,1708006702841,3545,3545,4550,buq,qns-item-noham,4,41258,0.0-1.0-0.3,65ce1cf00e109febcd8a1649,AWAITING REVIEW,2024-02-15T14:17:28.281000Z,2024-02-15T14:27:05.506000Z,,2024-02-15T14:27:06.140439Z,578.0,CVPIIDEI,10,20,Female,Asian,United States,United States,United States,English,Yes,DATA_EXPIRED,Not Applicable
65ccbda91469b2dbe8beb9c1,<b>Figuring out what?s important in life requires learning a lot of facts.,Highly disagree,5/94,Somewhat disagree,2,1708006703848,1708006709097,\Somewhat disagree\,\Somewhat disagree\,\2\,1708006708271,1708006708271,4423,4423,5249,buq,qns-item-noham,5,46508,0.0-1.0-0.4,65ce1cf00e109febcd8a1649,AWAITING REVIEW,2024-02-15T14:17:28.281000Z,2024-02-15T14:27:05.506000Z,,2024-02-15T14:27:06.140439Z,578.0,CVPIIDEI,10,20,Female,Asian,United States,United States,United States,English,Yes,DATA_EXPIRED,Not Applicable
65ccbda91469b2dbe8beb9c1,<b>It is difficult for me to remember the last time I was surprised by politics.,Highly disagree,6/94,Somewhat disagree,2,1708006709098,1708006714044,\Somewhat disagree\,\Somewhat disagree\,\2\,1708006713054,1708006713054,3956,3956,4946,buq,qns-item-noham,6,51456,0.0-1.0-0.5,65ce1cf00e109febcd8a1649,AWAITING REVIEW,2024-02-15T14:17:28.281000Z,2024-02-15T14:27:05.506000Z,,2024-02-15T14:27:06.140439Z,578.0,CVPIIDEI,10,20,Female,Asian,United States,United States,United States,English,Yes,DATA_EXPIRED,Not Applicable
65ccbda91469b2dbe8beb9c1,<b>People?s false beliefs are understandable.,Highly disagree,7/94,Somewhat agree,3,1708006714046,1708006717679,\Somewhat agree\,\Somewhat agree\,\3\,1708006716917,1708006716917,2871,2871,3633,buq,qns-item-noham,7,55090,0.0-1.0-0.6,65ce1cf00e109febcd8a1649,AWAITING REVIEW,2024-02-15T14:17:28.281000Z,2024-02-15T14:27:05.506000Z,,2024-02-15T14:27:06.140439Z,578.0,CVPIIDEI,10,20,Female,Asian,United States,United States,United States,English,Yes,DATA_EXPIRED,Not Applicable
65ccbda91469b2dbe8beb9c1,<b>I spend a lot of time trying to be informed about politics.,Highly disagree,8/94,Highly disagree,1,1708006717680,1708006721672,\Highly disagree\,\Highly disagree\,\1\,1708006720853,1708006720853,3173,3173,3992,buq,qns-item-noham,8,59083,0.0-1.0-0.7,65ce1cf00e109febcd8a1649,AWAITING REVIEW,2024-02-15T14:17:28.281000Z,2024-02-15T14:27:05.506000Z,,2024-02-15T14:27:06.140439Z,578.0,CVPIIDEI,10,20,Female,Asian,United States,United States,United States,English,Yes,DATA_EXPIRED,Not Applicable
65ccbda91469b2dbe8beb9c1,<b>I think a lot about whether my beliefs are right.,Highly disagree,9/94,Somewhat disagree,2,1708006721675,1708006725938,\Somewhat disagree\,\Somewhat disagree\,\2\,1708006724897,1708006724897,3222,3222,4263,buq,qns-item-noham,9,63350,0.0-1.0-0.8,65ce1cf00e109febcd8a1649,AWAITING REVIEW,2024-02-15T14:17:28.281000Z,2024-02-15T14:27:05.506000Z,,2024-02-15T14:27:06.140439Z,578.0,CVPIIDEI,10,20,Female,Asian,United States,United States,United States,English,Yes,DATA_EXPIRED,Not Applicable
65ccbda91469b2dbe8beb9c1,<b>Statistics can be pretty misleading sometimes.,Highly disagree,10/94,Somewhat agree,3,1708006725940,1708006728725,\Somewhat agree\,\Somewhat agree\,\3\,1708006727927,1708006727927,1987,1987,2785,buq,qns-item-noham,10,66136,0.0-1.0-0.9,65ce1cf00e109febcd8a1649,AWAITING REVIEW,2024-02-15T14:17:28.281000Z,2024-02-15T14:27:05.506000Z,,2024-02-15T14:27:06.140439Z,578.0,CVPIIDEI,10,20,Female,Asian,United States,United States,United States,English,Yes,DATA_EXPIRED,Not Applicable
65ccbda91469b2dbe8beb9c1,<b>I have lots of beliefs that I?m only sort of sure about.,Highly disagree,11/94,Somewhat agree,3,1708006728726,1708006733070,\Somewhat agree\,\Somewhat agree\,\3\,1708006731640,1708006731640,2914,2914,4344,buq,qns-item-noham,11,70481,0.0-1.0-0.10,65ce1cf00e109febcd8a1649,AWAITING REVIEW,2024-02-15T14:17:28.281000Z,2024-02-15T14:27:05.506000Z,,2024-02-15T14:27:06.140439Z,578.0,CVPIIDEI,10,20,Female,Asian,United States,United States,United States,English,Yes,DATA_EXPIRED,Not Applicable
65ccbda91469b2dbe8beb9c1,"<b>If I go to my favorite restaurant and the food is surprisingly bad, it reminds me there are many disappointments in life.",Highly disagree,12/94,Highly disagree,1,1708006733071,1708006738600,\Highly disagree\,\Highly disagree\,\1\,1708006737745,1708006737745,4674,4674,5529,buq,qns-item-noham,12,76011,0.0-1.0-0.11,65ce1cf00e109febcd8a1649,AWAITING REVIEW,2024-02-15T14:17:28.281000Z,2024-02-15T14:27:05.506000Z,,2024-02-15T14:27:06.140439Z,578.0,CVPIIDEI,10,20,Female,Asian,United States,United States,United States,English,Yes,DATA_EXPIRED,Not Applicable
65ccbda91469b2dbe8beb9c1,"<b>If you are paying attention, please select ?Somewhat agree?",Highly disagree,13/94,Somewhat agree,3,1708006738601,1708006742184,\Somewhat agree\,\Somewhat agree\,\3\,1708006741272,1708006741272,2671,2671,3583,buq,qns-item-noham,13,79595,0.0-1.0-0.12,65ce1cf00e109febcd8a1649,AWAITING REVIEW,2024-02-15T14:17:28.281000Z,2024-02-15T14:27:05.506000Z,,2024-02-15T14:27:06.140439Z,578.0,CVPIIDEI,10,20,Female,Asian,United States,United States,United States,English,Yes,DATA_EXPIRED,Not Applicable
65ccbda91469b2dbe8beb9c1,"<b>When I talk to others, I often worry I?ll convince them of something I didn?t mean to.",Highly disagree,14/94,Somewhat agree,3,1708006742185,1708006747024,\Somewhat agree\,\Somewhat agree\,\3\,1708006746212,1708006746212,4027,4027,4839,buq,qns-item-noham,14,84435,0.0-1.0-0.13,65ce1cf00e109febcd8a1649,AWAITING REVIEW,2024-02-15T14:17:28.281000Z,2024-02-15T14:27:05.506000Z,,2024-02-15T14:27:06.140439Z,578.0,CVPIIDEI,10,20,Female,Asian,United States,United States,United States,English,Yes,DATA_EXPIRED,Not Applicable
65ccbda91469b2dbe8beb9c1,<b>I would need to learn something utterly shocking about my party in order to change my political views.,Highly disagree,15/94,Somewhat agree,3,1708006747025,1708006752597,\Somewhat agree\,\Somewhat agree\,\3\,1708006751685,1708006751685,4660,4660,5572,buq,qns-item-noham,15,90008,0.0-1.0-0.14,65ce1cf00e109febcd8a1649,AWAITING REVIEW,2024-02-15T14:17:28.281000Z,2024-02-15T14:27:05.506000Z,,2024-02-15T14:27:06.140439Z,578.0,CVPIIDEI,10,20,Female,Asian,United States,United States,United States,English,Yes,DATA_EXPIRED,Not Applicable
65ccbda91469b2dbe8beb9c1,"<b>When I have new experiences, I tend to think of them as unique.",Highly disagree,16/94,Somewhat disagree,2,1708006752598,1708006758967,\Somewhat disagree\,\Somewhat disagree\,\2\,1708006758055,1708006758055,5457,5457,6369,buq,qns-item-noham,16,96379,0.0-1.0-0.15,65ce1cf00e109febcd8a1649,AWAITING REVIEW,2024-02-15T14:17:28.281000Z,2024-02-15T14:27:05.506000Z,,2024-02-15T14:27:06.140439Z,578.0,CVPIIDEI,10,20,Female,Asian,United States,United States,United States,English,Yes,DATA_EXPIRED,Not Applicable
65ccbda91469b2dbe8beb9c1,<b>I change my mind about specific policies pretty frequently.,Highly disagree,17/94,Somewhat disagree,2,1708006758968,1708006763427,\Somewhat disagree\,\Somewhat disagree\,\2\,1708006762407,1708006762407,3439,3439,4459,buq,qns-item-noham,17,100838,0.0-1.0-0.16,65ce1cf00e109febcd8a1649,AWAITING REVIEW,2024-02-15T14:17:28.281000Z,2024-02-15T14:27:05.506000Z,,2024-02-15T14:27:06.140439Z,578.0,CVPIIDEI,10,20,Female,Asian,United States,United States,United States,English,Yes,DATA_EXPIRED,Not Applicable
65ccbda91469b2dbe8beb9c1,"<b>If a politician in my political party supports something I disagree with, I give them the benefit of the doubt, as such issues often involve hidden complexities that aren?t obvious.   ",Highly disagree,18/94,Somewhat disagree,2,1708006763428,1708006771643,\Somewhat disagree\,\Somewhat disagree\,\2\,1708006770213,1708006770213,6785,6785,8215,buq,qns-item-noham,18,109054,0.0-1.0-0.17,65ce1cf00e109febcd8a1649,AWAITING REVIEW,2024-02-15T14:17:28.281000Z,2024-02-15T14:27:05.506000Z,,2024-02-15T14:27:06.140439Z,578.0,CVPIIDEI,10,20,Female,Asian,United States,United States,United States,English,Yes,DATA_EXPIRED,Not Applicable
65ccbda91469b2dbe8beb9c1,<b>People?s bad politics are usually motivated by hatefulness.,Highly disagree,19/94,Somewhat disagree,2,1708006771644,1708006778875,\Somewhat disagree\,\Somewhat disagree\,\2\,1708006777948,1708006777948,6304,6304,7231,buq,qns-item-noham,19,116286,0.0-1.0-0.18,65ce1cf00e109febcd8a1649,AWAITING REVIEW,2024-02-15T14:17:28.281000Z,2024-02-15T14:27:05.506000Z,,2024-02-15T14:27:06.140439Z,578.0,CVPIIDEI,10,20,Female,Asian,United States,United States,United States,English,Yes,DATA_EXPIRED,Not Applicable
65ccbda91469b2dbe8beb9c1,<b>I think a lot about how to reconcile my beliefs with one another.,Highly disagree,20/94,Somewhat disagree,2,1708006778876,1708006785166,\Somewhat disagree\,\Somewhat disagree\,\2\,1708006784225,1708006784225,5349,5349,6290,buq,qns-item-noham,20,122577,0.0-1.0-0.19,65ce1cf00e109febcd8a1649,AWAITING REVIEW,2024-02-15T14:17:28.281000Z,2024-02-15T14:27:05.506000Z,,2024-02-15T14:27:06.140439Z,578.0,CVPIIDEI,10,20,Female,Asian,United States,United States,United States,English,Yes,DATA_EXPIRED,Not Applicable
65ccbda91469b2dbe8beb9c1,<b>I might have false beliefs about important topics.,Highly disagree,21/94,Somewhat agree,3,1708006785167,1708006788736,\Somewhat agree\,\Somewhat agree\,\3\,1708006787981,1708006787981,2814,2814,3569,buq,qns-item-noham,21,126147,0.0-1.0-0.20,65ce1cf00e109febcd8a1649,AWAITING REVIEW,2024-02-15T14:17:28.281000Z,2024-02-15T14:27:05.506000Z,,2024-02-15T14:27:06.140439Z,578.0,CVPIIDEI,10,20,Female,Asian,United States,United States,United States,English,Yes,DATA_EXPIRED,Not Applicable
65ccbda91469b2dbe8beb9c1,"<b>If a good friend of mine does something unexpected that upsets me, I feel like I don?t know them anymore.",Highly disagree,22/94,Somewhat disagree,2,1708006788737,1708006793841,\Somewhat disagree\,\Somewhat disagree\,\2\,1708006792922,1708006792922,4185,4185,5104,buq,qns-item-noham,22,131252,0.0-1.0-0.21,65ce1cf00e109febcd8a1649,AWAITING REVIEW,2024-02-15T14:17:28.281000Z,2024-02-15T14:27:05.506000Z,,2024-02-15T14:27:06.140439Z,578.0,CVPIIDEI,10,20,Female,Asian,United States,United States,United States,English,Yes,DATA_EXPIRED,Not Applicable
65ccbda91469b2dbe8beb9c1,<b>Other people?s beliefs are often incoherent.,Highly disagree,23/94,Highly disagree,1,1708006793842,1708006798438,\Highly disagree\,\Highly disagree\,\1\,1708006797626,1708006797626,3784,3784,4596,buq,qns-item-noham,23,135849,0.0-1.0-0.22,65ce1cf00e109febcd8a1649,AWAITING REVIEW,2024-02-15T14:17:28.281000Z,2024-02-15T14:27:05.506000Z,,2024-02-15T14:27:06.140439Z,578.0,CVPIIDEI,10,20,Female,Asian,United States,United States,United States,English,Yes,DATA_EXPIRED,Not Applicable
65ccbda91469b2dbe8beb9c1,"<b>Every now and then, a new experience will unsettle beliefs I?ve had for a while.",Highly disagree,24/94,Somewhat agree,3,1708006798439,1708006805505,\Somewhat disagree\,\Somewhat agree\,\2\,1708006802517,1708006804837,4078,6398,7066,buq,qns-item-noham,24,142916,0.0-1.0-0.23,65ce1cf00e109febcd8a1649,AWAITING REVIEW,2024-02-15T14:17:28.281000Z,2024-02-15T14:27:05.506000Z,,2024-02-15T14:27:06.140439Z,578.0,CVPIIDEI,10,20,Female,Asian,United States,United States,United States,English,Yes,DATA_EXPIRED,Not Applicable
65ccbda91469b2dbe8beb9c1,<b>Some policies I agree with in principle are so bad I don?t support them. ,Highly disagree,25/94,Somewhat disagree,2,1708006805506,1708006822030,\Somewhat disagree\,\Somewhat disagree\,\2\,1708006820364,1708006820364,14858,14858,16524,buq,qns-item-noham,25,159441,0.0-1.0-0.24,65ce1cf00e109febcd8a1649,AWAITING REVIEW,2024-02-15T14:17:28.281000Z,2024-02-15T14:27:05.506000Z,,2024-02-15T14:27:06.140439Z,578.0,CVPIIDEI,10,20,Female,Asian,United States,United States,United States,English,Yes,DATA_EXPIRED,Not Applicable
65ccbda91469b2dbe8beb9c1,<b>I?m pretty sure I?ve accidentally spread false information.,Highly disagree,26/94,Somewhat disagree,2,1708006822031,1708006826317,\Somewhat disagree\,\Somewhat disagree\,\2\,1708006825441,1708006825441,3410,3410,4286,buq,qns-item-noham,26,163728,0.0-1.0-0.25,65ce1cf00e109febcd8a1649,AWAITING REVIEW,2024-02-15T14:17:28.281000Z,2024-02-15T14:27:05.506000Z,,2024-02-15T14:27:06.140439Z,578.0,CVPIIDEI,10,20,Female,Asian,United States,United States,United States,English,Yes,DATA_EXPIRED,Not Applicable
65ccbda91469b2dbe8beb9c1,"<b>If I go to my favorite restaurant and the food is unexpectedly bad, then they have changed owners.",Highly disagree,27/94,Somewhat disagree,2,1708006826318,1708006833664,\Somewhat disagree\,\Somewhat disagree\,\2\,1708006832300,1708006832300,5982,5982,7346,buq,qns-item-noham,27,171075,0.0-1.0-0.26,65ce1cf00e109febcd8a1649,AWAITING REVIEW,2024-02-15T14:17:28.281000Z,2024-02-15T14:27:05.506000Z,,2024-02-15T14:27:06.140439Z,578.0,CVPIIDEI,10,20,Female,Asian,United States,United States,United States,English,Yes,DATA_EXPIRED,Not Applicable
65ccbda91469b2dbe8beb9c1,"<b>In politics, it?s important to trust your friends and family.",Highly disagree,28/94,Somewhat disagree,2,1708006833665,1708006838498,\Somewhat disagree\,\Somewhat disagree\,\2\,1708006837600,1708006837600,3935,3935,4833,buq,qns-item-noham,28,175909,0.0-1.0-0.27,65ce1cf00e109febcd8a1649,AWAITING REVIEW,2024-02-15T14:17:28.281000Z,2024-02-15T14:27:05.506000Z,,2024-02-15T14:27:06.140439Z,578.0,CVPIIDEI,10,20,Female,Asian,United States,United States,United States,English,Yes,DATA_EXPIRED,Not Applicable
65ccbda91469b2dbe8beb9c1,<b>It?s OK to have some conflicting beliefs.,Highly disagree,29/94,Highly agree,4,1708006838499,1708006841586,\Highly agree\,\Highly agree\,\4\,1708006840717,1708006840717,2218,2218,3087,buq,qns-item-noham,29,178997,0.0-1.0-0.28,65ce1cf00e109febcd8a1649,AWAITING REVIEW,2024-02-15T14:17:28.281000Z,2024-02-15T14:27:05.506000Z,,2024-02-15T14:27:06.140439Z,578.0,CVPIIDEI,10,20,Female,Asian,United States,United States,United States,English,Yes,DATA_EXPIRED,Not Applicable
65ccbda91469b2dbe8beb9c1,<b>Listening to people I disagree with makes my opinions better.,Highly disagree,30/94,Highly disagree,1,1708006841587,1708006849536,\Somewhat disagree\,\Highly disagree\,\2\,1708006846290,1708006848595,4703,7008,7949,buq,qns-item-noham,30,186947,0.0-1.0-0.29,65ce1cf00e109febcd8a1649,AWAITING REVIEW,2024-02-15T14:17:28.281000Z,2024-02-15T14:27:05.506000Z,,2024-02-15T14:27:06.140439Z,578.0,CVPIIDEI,10,20,Female,Asian,United States,United States,United States,English,Yes,DATA_EXPIRED,Not Applicable
65ccbda91469b2dbe8beb9c1,<b>My moral compass sometimes makes it harder to determine what?s true.,Highly disagree,31/94,Somewhat agree,3,1708006849537,1708006855389,\Somewhat agree\,\Somewhat agree\,\3\,1708006854262,1708006854262,4725,4725,5852,buq,qns-item-noham,31,192800,0.0-1.0-0.30,65ce1cf00e109febcd8a1649,AWAITING REVIEW,2024-02-15T14:17:28.281000Z,2024-02-15T14:27:05.506000Z,,2024-02-15T14:27:06.140439Z,578.0,CVPIIDEI,10,20,Female,Asian,United States,United States,United States,English,Yes,DATA_EXPIRED,Not Applicable
65ccbda91469b2dbe8beb9c1,<b>Evidence pointing in the wrong direction isn?t really evidence at all.,Highly disagree,32/94,Highly disagree,1,1708006855390,1708006860610,\Highly disagree\,\Highly disagree\,\1\,1708006859755,1708006859755,4365,4365,5220,buq,qns-item-noham,32,198021,0.0-1.0-0.31,65ce1cf00e109febcd8a1649,AWAITING REVIEW,2024-02-15T14:17:28.281000Z,2024-02-15T14:27:05.506000Z,,2024-02-15T14:27:06.140439Z,578.0,CVPIIDEI,10,20,Female,Asian,United States,United States,United States,English,Yes,DATA_EXPIRED,Not Applicable
65ccbda91469b2dbe8beb9c1,"<b>If the political party I support messes up, it makes me think politics is rotten.",Highly disagree,33/94,Somewhat disagree,2,1708006860611,1708006864991,\Somewhat disagree\,\Somewhat disagree\,\2\,1708006864258,1708006864258,3647,3647,4380,buq,qns-item-noham,33,202402,0.0-1.0-0.32,65ce1cf00e109febcd8a1649,AWAITING REVIEW,2024-02-15T14:17:28.281000Z,2024-02-15T14:27:05.506000Z,,2024-02-15T14:27:06.140439Z,578.0,CVPIIDEI,10,20,Female,Asian,United States,United States,United States,English,Yes,DATA_EXPIRED,Not Applicable
65ccbda91469b2dbe8beb9c1,<b>Lots of important topics can only really be understood by some groups of people.,Highly disagree,34/94,Somewhat disagree,2,1708006864992,1708006873787,\Somewhat disagree\,\Somewhat disagree\,\2\,1708006872603,1708006872603,7611,7611,8795,buq,qns-item-noham,34,211199,0.0-1.0-0.33,65ce1cf00e109febcd8a1649,AWAITING REVIEW,2024-02-15T14:17:28.281000Z,2024-02-15T14:27:05.506000Z,,2024-02-15T14:27:06.140439Z,578.0,CVPIIDEI,10,20,Female,Asian,United States,United States,United States,English,Yes,DATA_EXPIRED,Not Applicable
65ccbda91469b2dbe8beb9c1,<b>Having conflicting beliefs means you haven?t thought about them enough.,Highly disagree,35/94,Somewhat disagree,2,1708006873789,1708006879756,\Somewhat disagree\,\Somewhat disagree\,\2\,1708006878807,1708006878807,5018,5018,5967,buq,qns-item-noham,35,217167,0.0-1.0-0.34,65ce1cf00e109febcd8a1649,AWAITING REVIEW,2024-02-15T14:17:28.281000Z,2024-02-15T14:27:05.506000Z,,2024-02-15T14:27:06.140439Z,578.0,CVPIIDEI,10,20,Female,Asian,United States,United States,United States,English,Yes,DATA_EXPIRED,Not Applicable
65ccbda91469b2dbe8beb9c1,<b>I do not often change my political opinions.,Highly disagree,36/94,Somewhat disagree,2,1708006879757,1708006882994,\Somewhat disagree\,\Somewhat disagree\,\2\,1708006882025,1708006882025,2268,2268,3237,buq,qns-item-noham,36,220405,0.0-1.0-0.35,65ce1cf00e109febcd8a1649,AWAITING REVIEW,2024-02-15T14:17:28.281000Z,2024-02-15T14:27:05.506000Z,,2024-02-15T14:27:06.140439Z,578.0,CVPIIDEI,10,20,Female,Asian,United States,United States,United States,English,Yes,DATA_EXPIRED,Not Applicable
65ccbda91469b2dbe8beb9c1,<b>It?s difficult to not have at least some conflicting beliefs.,Highly disagree,37/94,Somewhat agree,3,1708006882995,1708006887160,\Somewhat agree\,\Somewhat agree\,\3\,1708006886334,1708006886334,3339,3339,4165,buq,qns-item-noham,37,224571,0.0-1.0-0.36,65ce1cf00e109febcd8a1649,AWAITING REVIEW,2024-02-15T14:17:28.281000Z,2024-02-15T14:27:05.506000Z,,2024-02-15T14:27:06.140439Z,578.0,CVPIIDEI,10,20,Female,Asian,United States,United States,United States,English,Yes,DATA_EXPIRED,Not Applicable
65ccbda91469b2dbe8beb9c1,<b>Wishful thinking causes a lot of problems.,Highly disagree,38/94,Somewhat disagree,2,1708006887161,1708006890765,\Somewhat disagree\,\Somewhat disagree\,\2\,1708006889896,1708006889896,2735,2735,3604,buq,qns-item-noham,38,228176,0.0-1.0-0.37,65ce1cf00e109febcd8a1649,AWAITING REVIEW,2024-02-15T14:17:28.281000Z,2024-02-15T14:27:05.506000Z,,2024-02-15T14:27:06.140439Z,578.0,CVPIIDEI,10,20,Female,Asian,United States,United States,United States,English,Yes,DATA_EXPIRED,Not Applicable
65ccbda91469b2dbe8beb9c1,<b>I judge a food item only once I try it many times.,Highly disagree,39/94,Somewhat agree,3,1708006890767,1708006898448,\Somewhat agree\,\Somewhat agree\,\3\,1708006897335,1708006897335,6568,6568,7681,buq,qns-item-noham,39,235860,0.0-1.0-0.38,65ce1cf00e109febcd8a1649,AWAITING REVIEW,2024-02-15T14:17:28.281000Z,2024-02-15T14:27:05.506000Z,,2024-02-15T14:27:06.140439Z,578.0,CVPIIDEI,10,20,Female,Asian,United States,United States,United States,English,Yes,DATA_EXPIRED,Not Applicable
65ccbda91469b2dbe8beb9c1,"<b>When a person holds conflicting beliefs, they should really try to figure out what?s wrong.",Highly disagree,40/94,Somewhat agree,3,1708006898450,1708006910477,\Somewhat agree\,\Somewhat agree\,\3\,1708006906348,1708006909120,7898,10670,12027,buq,qns-item-noham,40,247888,0.0-1.0-0.39,65ce1cf00e109febcd8a1649,AWAITING REVIEW,2024-02-15T14:17:28.281000Z,2024-02-15T14:27:05.506000Z,,2024-02-15T14:27:06.140439Z,578.0,CVPIIDEI,10,20,Female,Asian,United States,United States,United States,English,Yes,DATA_EXPIRED,Not Applicable
65ccbda91469b2dbe8beb9c1,<b>Knowing what?s important in life is easy.,Highly disagree,41/94,Somewhat disagree,2,1708006910478,1708006913982,\Somewhat disagree\,\Somewhat disagree\,\2\,1708006913156,1708006913156,2678,2678,3504,buq,qns-item-noham,41,251393,0.0-1.0-0.40,65ce1cf00e109febcd8a1649,AWAITING REVIEW,2024-02-15T14:17:28.281000Z,2024-02-15T14:27:05.506000Z,,2024-02-15T14:27:06.140439Z,578.0,CVPIIDEI,10,20,Female,Asian,United States,United States,United States,English,Yes,DATA_EXPIRED,Not Applicable
65ccbda91469b2dbe8beb9c1,<b>I swim across the Atlantic Ocean to get to work every day.,Highly disagree,42/94,Highly disagree,1,1708006913983,1708006920266,\Highly disagree\,\Highly disagree\,\1\,1708006918643,1708006918643,4660,4660,6283,buq,qns-item-noham,42,257677,0.0-1.0-0.41,65ce1cf00e109febcd8a1649,AWAITING REVIEW,2024-02-15T14:17:28.281000Z,2024-02-15T14:27:05.506000Z,,2024-02-15T14:27:06.140439Z,578.0,CVPIIDEI,10,20,Female,Asian,United States,United States,United States,English,Yes,DATA_EXPIRED,Not Applicable
65ccbda91469b2dbe8beb9c1,"<b>Sometimes, you just have to ignore evidence that you know is wrong.",Highly disagree,43/94,Somewhat disagree,2,1708006920267,1708006929709,\Somewhat disagree\,\Somewhat disagree\,\2\,1708006929056,1708006929056,8789,8789,9442,buq,qns-item-noham,43,267120,0.0-1.0-0.42,65ce1cf00e109febcd8a1649,AWAITING REVIEW,2024-02-15T14:17:28.281000Z,2024-02-15T14:27:05.506000Z,,2024-02-15T14:27:06.140439Z,578.0,CVPIIDEI,10,20,Female,Asian,United States,United States,United States,English,Yes,DATA_EXPIRED,Not Applicable
65ccbda91469b2dbe8beb9c1,<b>I have had some false beliefs.,Highly disagree,44/94,Somewhat agree,3,1708006929711,1708006932725,\Somewhat agree\,\Somewhat agree\,\3\,1708006931770,1708006931770,2059,2059,3014,buq,qns-item-noham,44,270137,0.0-1.0-0.43,65ce1cf00e109febcd8a1649,AWAITING REVIEW,2024-02-15T14:17:28.281000Z,2024-02-15T14:27:05.506000Z,,2024-02-15T14:27:06.140439Z,578.0,CVPIIDEI,10,20,Female,Asian,United States,United States,United States,English,Yes,DATA_EXPIRED,Not Applicable
65ccbda91469b2dbe8beb9c1,"<b>If one friend does something that upsets me, I sometimes start to distrust people in general.",Highly disagree,45/94,Highly disagree,1,1708006932727,1708006937271,\Highly disagree\,\Highly disagree\,\1\,1708006936287,1708006936287,3560,3560,4544,buq,qns-item-noham,45,274682,0.0-1.0-0.44,65ce1cf00e109febcd8a1649,AWAITING REVIEW,2024-02-15T14:17:28.281000Z,2024-02-15T14:27:05.506000Z,,2024-02-15T14:27:06.140439Z,578.0,CVPIIDEI,10,20,Female,Asian,United States,United States,United States,English,Yes,DATA_EXPIRED,Not Applicable
65ccbda91469b2dbe8beb9c1,<b>The facts about most important matters are easy to find.,Highly disagree,46/94,Somewhat disagree,2,1708006937272,1708006948870,\Somewhat disagree\,\Somewhat disagree\,\2\,1708006941802,1708006941802,4530,4530,11598,buq,qns-item-noham,46,286281,0.0-1.0-0.45,65ce1cf00e109febcd8a1649,AWAITING REVIEW,2024-02-15T14:17:28.281000Z,2024-02-15T14:27:05.506000Z,,2024-02-15T14:27:06.140439Z,578.0,CVPIIDEI,10,20,Female,Asian,United States,United States,United States,English,Yes,DATA_EXPIRED,Not Applicable
65ccbda91469b2dbe8beb9c1,<b>It?s better to know what?s true than to know what?s moral.,Highly disagree,47/94,Somewhat disagree,2,1708006948871,1708006952532,\Somewhat disagree\,\Somewhat disagree\,\2\,1708006951684,1708006951684,2813,2813,3661,buq,qns-item-noham,47,289943,0.0-1.0-0.46,65ce1cf00e109febcd8a1649,AWAITING REVIEW,2024-02-15T14:17:28.281000Z,2024-02-15T14:27:05.506000Z,,2024-02-15T14:27:06.140439Z,578.0,CVPIIDEI,10,20,Female,Asian,United States,United States,United States,English,Yes,DATA_EXPIRED,Not Applicable
65ccbda91469b2dbe8beb9c1,<b>I used to think the world was less complicated than I do now.,Highly disagree,48/94,Somewhat agree,3,1708006952533,1708006956690,\Somewhat agree\,\Somewhat agree\,\3\,1708006955613,1708006955613,3080,3080,4157,buq,qns-item-noham,48,294101,0.0-1.0-0.47,65ce1cf00e109febcd8a1649,AWAITING REVIEW,2024-02-15T14:17:28.281000Z,2024-02-15T14:27:05.506000Z,,2024-02-15T14:27:06.140439Z,578.0,CVPIIDEI,10,20,Female,Asian,United States,United States,United States,English,Yes,DATA_EXPIRED,Not Applicable
65ccbda91469b2dbe8beb9c1,<b>People are usually completely right or completely wrong.,Highly disagree,49/94,Highly disagree,1,1708006956691,1708006960274,\Highly disagree\,\Highly disagree\,\1\,1708006959347,1708006959347,2656,2656,3583,buq,qns-item-noham,49,297685,0.0-1.0-0.48,65ce1cf00e109febcd8a1649,AWAITING REVIEW,2024-02-15T14:17:28.281000Z,2024-02-15T14:27:05.506000Z,,2024-02-15T14:27:06.140439Z,578.0,CVPIIDEI,10,20,Female,Asian,United States,United States,United States,English,Yes,DATA_EXPIRED,Not Applicable
65ccbda91469b2dbe8beb9c1,<b>I spend a lot of time considering alternatives to my beliefs.,Highly disagree,50/94,Somewhat disagree,2,1708006960275,1708006963548,\Somewhat disagree\,\Somewhat disagree\,\2\,1708006962873,1708006962873,2598,2598,3273,buq,qns-item-noham,50,300959,0.0-1.0-0.49,65ce1cf00e109febcd8a1649,AWAITING REVIEW,2024-02-15T14:17:28.281000Z,2024-02-15T14:27:05.506000Z,,2024-02-15T14:27:06.140439Z,578.0,CVPIIDEI,10,20,Female,Asian,United States,United States,United States,English,Yes,DATA_EXPIRED,Not Applicable
65ccbda91469b2dbe8beb9c1,"<b>Political enemies need to be defeated, not convinced.",Highly disagree,51/94,Highly disagree,1,1708006963549,1708006968597,\Somewhat disagree\,\Highly disagree\,\2\,1708006965933,1708006967548,2384,3999,5048,buq,qns-item-noham,51,306008,0.0-1.0-0.50,65ce1cf00e109febcd8a1649,AWAITING REVIEW,2024-02-15T14:17:28.281000Z,2024-02-15T14:27:05.506000Z,,2024-02-15T14:27:06.140439Z,578.0,CVPIIDEI,10,20,Female,Asian,United States,United States,United States,English,Yes,DATA_EXPIRED,Not Applicable
65ccbda91469b2dbe8beb9c1,<b>I form my political views only after meticulously gathering historical and present information about their policies.,Highly disagree,52/94,Somewhat disagree,2,1708006968598,1708006973459,\Somewhat disagree\,\Somewhat disagree\,\2\,1708006972611,1708006972611,4013,4013,4861,buq,qns-item-noham,52,310870,0.0-1.0-0.51,65ce1cf00e109febcd8a1649,AWAITING REVIEW,2024-02-15T14:17:28.281000Z,2024-02-15T14:27:05.506000Z,,2024-02-15T14:27:06.140439Z,578.0,CVPIIDEI,10,20,Female,Asian,United States,United States,United States,English,Yes,DATA_EXPIRED,Not Applicable
65ccbda91469b2dbe8beb9c1,<b>It is difficult for me to remember the last time I was surprised by politics.,Highly disagree,53/94,Somewhat disagree,2,1708006973460,1708006978386,\Somewhat disagree\,\Somewhat disagree\,\2\,1708006977531,1708006977531,4071,4071,4926,buq,qns-item-noham,53,315797,0.0-1.0-0.52,65ce1cf00e109febcd8a1649,AWAITING REVIEW,2024-02-15T14:17:28.281000Z,2024-02-15T14:27:05.506000Z,,2024-02-15T14:27:06.140439Z,578.0,CVPIIDEI,10,20,Female,Asian,United States,United States,United States,English,Yes,DATA_EXPIRED,Not Applicable
65ccbda91469b2dbe8beb9c1,"<b>When I find out I?m wrong, I think a lot about my related beliefs.",Highly disagree,54/94,Somewhat agree,3,1708006978387,1708006982565,\Somewhat agree\,\Somewhat agree\,\3\,1708006981329,1708006981329,2942,2942,4178,buq,qns-item-noham,54,319976,0.0-1.0-0.53,65ce1cf00e109febcd8a1649,AWAITING REVIEW,2024-02-15T14:17:28.281000Z,2024-02-15T14:27:05.506000Z,,2024-02-15T14:27:06.140439Z,578.0,CVPIIDEI,10,20,Female,Asian,United States,United States,United States,English,Yes,DATA_EXPIRED,Not Applicable
65ccbda91469b2dbe8beb9c1,"<b>If the political party I support messes up, it makes me think you can?t trust anyone these days",Highly disagree,55/94,Somewhat disagree,2,1708006982566,1708006988253,\Somewhat disagree\,\Somewhat disagree\,\2\,1708006985868,1708006985868,3302,3302,5687,buq,qns-item-noham,55,325664,0.0-1.0-0.54,65ce1cf00e109febcd8a1649,AWAITING REVIEW,2024-02-15T14:17:28.281000Z,2024-02-15T14:27:05.506000Z,,2024-02-15T14:27:06.140439Z,578.0,CVPIIDEI,10,20,Female,Asian,United States,United States,United States,English,Yes,DATA_EXPIRED,Not Applicable
65ccbda91469b2dbe8beb9c1,<b>People?s brains turn off when they talk about politics.,Highly disagree,56/94,Somewhat disagree,2,1708006988254,1708006991564,\Somewhat disagree\,\Somewhat disagree\,\2\,1708006990795,1708006990795,2541,2541,3310,buq,qns-item-noham,56,328975,0.0-1.0-0.55,65ce1cf00e109febcd8a1649,AWAITING REVIEW,2024-02-15T14:17:28.281000Z,2024-02-15T14:27:05.506000Z,,2024-02-15T14:27:06.140439Z,578.0,CVPIIDEI,10,20,Female,Asian,United States,United States,United States,English,Yes,DATA_EXPIRED,Not Applicable
65ccbda91469b2dbe8beb9c1,<b>People who are wrong are usually just ignoring the obvious.,Highly disagree,57/94,Somewhat disagree,2,1708006991565,1708006996124,\Somewhat disagree\,\Somewhat disagree\,\2\,1708006994422,1708006994422,2857,2857,4559,buq,qns-item-noham,57,333535,0.0-1.0-0.56,65ce1cf00e109febcd8a1649,AWAITING REVIEW,2024-02-15T14:17:28.281000Z,2024-02-15T14:27:05.506000Z,,2024-02-15T14:27:06.140439Z,578.0,CVPIIDEI,10,20,Female,Asian,United States,United States,United States,English,Yes,DATA_EXPIRED,Not Applicable
65ccbda91469b2dbe8beb9c1,"<b>When forming my views on people, I rely more on what they are like now rather than rely on my past experience with them.",Highly disagree,58/94,Somewhat disagree,2,1708006996125,1708007004971,\Somewhat disagree\,\Somewhat disagree\,\2\,1708007003657,1708007003657,7532,7532,8846,buq,qns-item-noham,58,342382,0.0-1.0-0.57,65ce1cf00e109febcd8a1649,AWAITING REVIEW,2024-02-15T14:17:28.281000Z,2024-02-15T14:27:05.506000Z,,2024-02-15T14:27:06.140439Z,578.0,CVPIIDEI,10,20,Female,Asian,United States,United States,United States,English,Yes,DATA_EXPIRED,Not Applicable
65ccbda91469b2dbe8beb9c1,"<b>When people contradict my beliefs, I usually know about their evidence already.",Highly disagree,59/94,Somewhat disagree,2,1708007004972,1708007015247,\Highly disagree\,\Somewhat disagree\,\1\,1708007012991,1708007013787,8019,8815,10275,buq,qns-item-noham,59,352658,0.0-1.0-0.58,65ce1cf00e109febcd8a1649,AWAITING REVIEW,2024-02-15T14:17:28.281000Z,2024-02-15T14:27:05.506000Z,,2024-02-15T14:27:06.140439Z,578.0,CVPIIDEI,10,20,Female,Asian,United States,United States,United States,English,Yes,DATA_EXPIRED,Not Applicable
65ccbda91469b2dbe8beb9c1,<b>Figuring out what?s true and what?s false mainly requires a strong moral compass.,Highly disagree,60/94,Somewhat disagree,2,1708007015248,1708007022026,\Somewhat disagree\,\Somewhat disagree\,\2\,1708007021272,1708007021272,6024,6024,6778,buq,qns-item-noham,60,359437,0.0-1.0-0.59,65ce1cf00e109febcd8a1649,AWAITING REVIEW,2024-02-15T14:17:28.281000Z,2024-02-15T14:27:05.506000Z,,2024-02-15T14:27:06.140439Z,578.0,CVPIIDEI,10,20,Female,Asian,United States,United States,United States,English,Yes,DATA_EXPIRED,Not Applicable
65ccbda91469b2dbe8beb9c1,"<b>Usually I?m wrong about simple things, not complicated ones.",Highly disagree,61/94,Somewhat disagree,2,1708007022027,1708007026615,\Somewhat disagree\,\Somewhat disagree\,\2\,1708007025545,1708007025545,3518,3518,4588,buq,qns-item-noham,61,364026,0.0-1.0-0.60,65ce1cf00e109febcd8a1649,AWAITING REVIEW,2024-02-15T14:17:28.281000Z,2024-02-15T14:27:05.506000Z,,2024-02-15T14:27:06.140439Z,578.0,CVPIIDEI,10,20,Female,Asian,United States,United States,United States,English,Yes,DATA_EXPIRED,Not Applicable
65ccbda91469b2dbe8beb9c1,<b>Getting all the information I want about important things is hard.,Highly disagree,62/94,Somewhat agree,3,1708007026616,1708007040352,\Somewhat disagree\,\Somewhat agree\,\2\,1708007037581,1708007038977,10965,12361,13736,buq,qns-item-noham,62,377763,0.0-1.0-0.61,65ce1cf00e109febcd8a1649,AWAITING REVIEW,2024-02-15T14:17:28.281000Z,2024-02-15T14:27:05.506000Z,,2024-02-15T14:27:06.140439Z,578.0,CVPIIDEI,10,20,Female,Asian,United States,United States,United States,English,Yes,DATA_EXPIRED,Not Applicable
65ccbda91469b2dbe8beb9c1,<b>Most false beliefs spread because people try to deceive one another.,Highly disagree,63/94,Highly disagree,1,1708007040353,1708007047111,\Highly disagree\,\Highly disagree\,\1\,1708007045939,1708007045939,5586,5586,6758,buq,qns-item-noham,63,384522,0.0-1.0-0.62,65ce1cf00e109febcd8a1649,AWAITING REVIEW,2024-02-15T14:17:28.281000Z,2024-02-15T14:27:05.506000Z,,2024-02-15T14:27:06.140439Z,578.0,CVPIIDEI,10,20,Female,Asian,United States,United States,United States,English,Yes,DATA_EXPIRED,Not Applicable
65ccbda91469b2dbe8beb9c1,<b>I can usually find something to agree with in most people?s beliefs.,Highly disagree,64/94,Somewhat agree,3,1708007047112,1708007055126,\Somewhat disagree\,\Somewhat agree\,\2\,1708007051985,1708007054314,4873,7202,8014,buq,qns-item-noham,64,392537,0.0-1.0-0.63,65ce1cf00e109febcd8a1649,AWAITING REVIEW,2024-02-15T14:17:28.281000Z,2024-02-15T14:27:05.506000Z,,2024-02-15T14:27:06.140439Z,578.0,CVPIIDEI,10,20,Female,Asian,United States,United States,United States,English,Yes,DATA_EXPIRED,Not Applicable
65ccbda91469b2dbe8beb9c1,<b>I only form my views of people once I get to know them very well.,Highly disagree,65/94,Somewhat agree,3,1708007055127,1708007059787,\Somewhat agree\,\Somewhat agree\,\3\,1708007058932,1708007058932,3805,3805,4660,buq,qns-item-noham,65,397198,0.0-1.0-0.64,65ce1cf00e109febcd8a1649,AWAITING REVIEW,2024-02-15T14:17:28.281000Z,2024-02-15T14:27:05.506000Z,,2024-02-15T14:27:06.140439Z,578.0,CVPIIDEI,10,20,Female,Asian,United States,United States,United States,English,Yes,DATA_EXPIRED,Not Applicable
65ccbda91469b2dbe8beb9c1,"<b>When people tell me important things about the world, I usually believe them.",Highly disagree,66/94,Somewhat disagree,2,1708007059788,1708007067262,\Somewhat disagree\,\Somewhat disagree\,\2\,1708007066041,1708007066041,6253,6253,7474,buq,qns-item-noham,66,404673,0.0-1.0-0.65,65ce1cf00e109febcd8a1649,AWAITING REVIEW,2024-02-15T14:17:28.281000Z,2024-02-15T14:27:05.506000Z,,2024-02-15T14:27:06.140439Z,578.0,CVPIIDEI,10,20,Female,Asian,United States,United States,United States,English,Yes,DATA_EXPIRED,Not Applicable
65ccbda91469b2dbe8beb9c1,"<b>If a friend does something that upsets me, it reminds me what an unpredictable place the world is.",Highly disagree,67/94,Highly disagree,1,1708007067264,1708007071809,\Highly disagree\,\Highly disagree\,\1\,1708007071040,1708007071040,3776,3776,4545,buq,qns-item-noham,67,409220,0.0-1.0-0.66,65ce1cf00e109febcd8a1649,AWAITING REVIEW,2024-02-15T14:17:28.281000Z,2024-02-15T14:27:05.506000Z,,2024-02-15T14:27:06.140439Z,578.0,CVPIIDEI,10,20,Female,Asian,United States,United States,United States,English,Yes,DATA_EXPIRED,Not Applicable
65ccbda91469b2dbe8beb9c1,<b>People tend to believe whatever is good for their friends.,Highly disagree,68/94,Somewhat agree,3,1708007071810,1708007076031,\Somewhat agree\,\Somewhat agree\,\3\,1708007075278,1708007075278,3468,3468,4221,buq,qns-item-noham,68,413442,0.0-1.0-0.67,65ce1cf00e109febcd8a1649,AWAITING REVIEW,2024-02-15T14:17:28.281000Z,2024-02-15T14:27:05.506000Z,,2024-02-15T14:27:06.140439Z,578.0,CVPIIDEI,10,20,Female,Asian,United States,United States,United States,English,Yes,DATA_EXPIRED,Not Applicable
65ccbda91469b2dbe8beb9c1,<b>I used to be more certain my beliefs were true.,Highly disagree,69/94,Somewhat agree,3,1708007076032,1708007082423,\Somewhat disagree\,\Somewhat agree\,\2\,1708007078854,1708007079884,2822,3852,6391,buq,qns-item-noham,69,419834,0.0-1.0-0.68,65ce1cf00e109febcd8a1649,AWAITING REVIEW,2024-02-15T14:17:28.281000Z,2024-02-15T14:27:05.506000Z,,2024-02-15T14:27:06.140439Z,578.0,CVPIIDEI,10,20,Female,Asian,United States,United States,United States,English,Yes,DATA_EXPIRED,Not Applicable
65ccbda91469b2dbe8beb9c1,<b>It?s often pretty easy to figure out whether something is true based on who said it.,Highly disagree,70/94,Somewhat disagree,2,1708007082425,1708007088298,\Somewhat disagree\,\Somewhat disagree\,\2\,1708007087436,1708007087436,5011,5011,5873,buq,qns-item-noham,70,425709,0.0-1.0-0.69,65ce1cf00e109febcd8a1649,AWAITING REVIEW,2024-02-15T14:17:28.281000Z,2024-02-15T14:27:05.506000Z,,2024-02-15T14:27:06.140439Z,578.0,CVPIIDEI,10,20,Female,Asian,United States,United States,United States,English,Yes,DATA_EXPIRED,Not Applicable
65ccbda91469b2dbe8beb9c1,<b>I transform into a hummingbird every day.,Highly disagree,71/94,Highly disagree,1,1708007088299,1708007091544,\Highly disagree\,\Highly disagree\,\1\,1708007090782,1708007090782,2483,2483,3245,buq,qns-item-noham,71,428955,0.0-1.0-0.70,65ce1cf00e109febcd8a1649,AWAITING REVIEW,2024-02-15T14:17:28.281000Z,2024-02-15T14:27:05.506000Z,,2024-02-15T14:27:06.140439Z,578.0,CVPIIDEI,10,20,Female,Asian,United States,United States,United States,English,Yes,DATA_EXPIRED,Not Applicable
65ccbda91469b2dbe8beb9c1,<b>I think a lot about arguments against my views.,Highly disagree,72/94,Highly disagree,1,1708007091545,1708007099070,\Highly disagree\,\Highly disagree\,\1\,1708007098243,1708007098243,6698,6698,7525,buq,qns-item-noham,72,436481,0.0-1.0-0.71,65ce1cf00e109febcd8a1649,AWAITING REVIEW,2024-02-15T14:17:28.281000Z,2024-02-15T14:27:05.506000Z,,2024-02-15T14:27:06.140439Z,578.0,CVPIIDEI,10,20,Female,Asian,United States,United States,United States,English,Yes,DATA_EXPIRED,Not Applicable
65ccbda91469b2dbe8beb9c1,<b>Personal experience is usually more important than facts and figures.,Highly disagree,73/94,Somewhat disagree,2,1708007099071,1708007102984,\Somewhat disagree\,\Somewhat disagree\,\2\,1708007101935,1708007101935,2864,2864,3913,buq,qns-item-noham,73,440395,0.0-1.0-0.72,65ce1cf00e109febcd8a1649,AWAITING REVIEW,2024-02-15T14:17:28.281000Z,2024-02-15T14:27:05.506000Z,,2024-02-15T14:27:06.140439Z,578.0,CVPIIDEI,10,20,Female,Asian,United States,United States,United States,English,Yes,DATA_EXPIRED,Not Applicable
65ccbda91469b2dbe8beb9c1,<b>I?ve been tricked before about important matters.,Highly disagree,74/94,Somewhat disagree,2,1708007102985,1708007108220,\Somewhat disagree\,\Somewhat disagree\,\2\,1708007107300,1708007107300,4315,4315,5235,buq,qns-item-noham,74,445631,0.0-1.0-0.73,65ce1cf00e109febcd8a1649,AWAITING REVIEW,2024-02-15T14:17:28.281000Z,2024-02-15T14:27:05.506000Z,,2024-02-15T14:27:06.140439Z,578.0,CVPIIDEI,10,20,Female,Asian,United States,United States,United States,English,Yes,DATA_EXPIRED,Not Applicable
65ccbda91469b2dbe8beb9c1,<b>I would need to be totally wowed if I were to change my opinion of a restaurant I don?t like.,Highly disagree,75/94,Highly disagree,1,1708007108221,1708007113534,\Highly disagree\,\Highly disagree\,\1\,1708007112593,1708007112593,4372,4372,5313,buq,qns-item-noham,75,450945,0.0-1.0-0.74,65ce1cf00e109febcd8a1649,AWAITING REVIEW,2024-02-15T14:17:28.281000Z,2024-02-15T14:27:05.506000Z,,2024-02-15T14:27:06.140439Z,578.0,CVPIIDEI,10,20,Female,Asian,United States,United States,United States,English,Yes,DATA_EXPIRED,Not Applicable
65ccbda91469b2dbe8beb9c1,<b>I care a lot about politics.,Highly disagree,76/94,Highly disagree,1,1708007113535,1708007115968,\Highly disagree\,\Highly disagree\,\1\,1708007115293,1708007115293,1758,1758,2433,buq,qns-item-noham,76,453379,0.0-1.0-0.75,65ce1cf00e109febcd8a1649,AWAITING REVIEW,2024-02-15T14:17:28.281000Z,2024-02-15T14:27:05.506000Z,,2024-02-15T14:27:06.140439Z,578.0,CVPIIDEI,10,20,Female,Asian,United States,United States,United States,English,Yes,DATA_EXPIRED,Not Applicable
65ccbda91469b2dbe8beb9c1,<b>There are some topics I?ve been really wrong about.,Highly disagree,77/94,Highly agree,4,1708007115969,1708007122152,\Somewhat agree\,\Highly agree\,\3\,1708007120183,1708007121463,4214,5494,6183,buq,qns-item-noham,77,459563,0.0-1.0-0.76,65ce1cf00e109febcd8a1649,AWAITING REVIEW,2024-02-15T14:17:28.281000Z,2024-02-15T14:27:05.506000Z,,2024-02-15T14:27:06.140439Z,578.0,CVPIIDEI,10,20,Female,Asian,United States,United States,United States,English,Yes,DATA_EXPIRED,Not Applicable
65ccbda91469b2dbe8beb9c1,<b>Most beliefs can be supported with at least some evidence.,Highly disagree,78/94,Somewhat agree,3,1708007122153,1708007127531,\Somewhat agree\,\Somewhat agree\,\3\,1708007126324,1708007126324,4171,4171,5378,buq,qns-item-noham,78,464942,0.0-1.0-0.77,65ce1cf00e109febcd8a1649,AWAITING REVIEW,2024-02-15T14:17:28.281000Z,2024-02-15T14:27:05.506000Z,,2024-02-15T14:27:06.140439Z,578.0,CVPIIDEI,10,20,Female,Asian,United States,United States,United States,English,Yes,DATA_EXPIRED,Not Applicable
65ccbda91469b2dbe8beb9c1,<b>Other people make life out to be more complicated than it really is.,Highly disagree,79/94,Somewhat disagree,2,1708007127532,1708007132816,\Somewhat disagree\,\Somewhat disagree\,\2\,1708007131883,1708007131883,4351,4351,5284,buq,qns-item-noham,79,470227,0.0-1.0-0.78,65ce1cf00e109febcd8a1649,AWAITING REVIEW,2024-02-15T14:17:28.281000Z,2024-02-15T14:27:05.506000Z,,2024-02-15T14:27:06.140439Z,578.0,CVPIIDEI,10,20,Female,Asian,United States,United States,United States,English,Yes,DATA_EXPIRED,Not Applicable
65ccbda91469b2dbe8beb9c1,"<b>Policy details don?t matter much, just the big picture.",Highly disagree,80/94,Somewhat disagree,2,1708007132817,1708007137153,\Somewhat disagree\,\Somewhat disagree\,\2\,1708007136428,1708007136428,3611,3611,4336,buq,qns-item-noham,80,474564,0.0-1.0-0.79,65ce1cf00e109febcd8a1649,AWAITING REVIEW,2024-02-15T14:17:28.281000Z,2024-02-15T14:27:05.506000Z,,2024-02-15T14:27:06.140439Z,578.0,CVPIIDEI,10,20,Female,Asian,United States,United States,United States,English,Yes,DATA_EXPIRED,Not Applicable
65ccbda91469b2dbe8beb9c1,<b>I know my friends so well they can hardly ever surprise me.,Highly disagree,81/94,Somewhat disagree,2,1708007137154,1708007141153,\Somewhat disagree\,\Somewhat disagree\,\2\,1708007140284,1708007140284,3130,3130,3999,buq,qns-item-noham,81,478564,0.0-1.0-0.80,65ce1cf00e109febcd8a1649,AWAITING REVIEW,2024-02-15T14:17:28.281000Z,2024-02-15T14:27:05.506000Z,,2024-02-15T14:27:06.140439Z,578.0,CVPIIDEI,10,20,Female,Asian,United States,United States,United States,English,Yes,DATA_EXPIRED,Not Applicable
65ccbda91469b2dbe8beb9c1,<b>I do not often change my views on people.,Highly disagree,82/94,Somewhat agree,3,1708007141154,1708007144026,\Somewhat agree\,\Somewhat agree\,\3\,1708007143149,1708007143149,1995,1995,2872,buq,qns-item-noham,82,481437,0.0-1.0-0.81,65ce1cf00e109febcd8a1649,AWAITING REVIEW,2024-02-15T14:17:28.281000Z,2024-02-15T14:27:05.506000Z,,2024-02-15T14:27:06.140439Z,578.0,CVPIIDEI,10,20,Female,Asian,United States,United States,United States,English,Yes,DATA_EXPIRED,Not Applicable
65ccbda91469b2dbe8beb9c1,<b>I?m more certain about my beliefs than I used to be.,Highly disagree,83/94,Somewhat disagree,2,1708007144027,1708007148341,\Somewhat disagree\,\Somewhat disagree\,\2\,1708007147444,1708007147444,3417,3417,4314,buq,qns-item-noham,83,485753,0.0-1.0-0.82,65ce1cf00e109febcd8a1649,AWAITING REVIEW,2024-02-15T14:17:28.281000Z,2024-02-15T14:27:05.506000Z,,2024-02-15T14:27:06.140439Z,578.0,CVPIIDEI,10,20,Female,Asian,United States,United States,United States,English,Yes,DATA_EXPIRED,Not Applicable
65ccbda91469b2dbe8beb9c1,<b>People often tell falsehoods unintentionally.,Highly disagree,84/94,Somewhat disagree,2,1708007148343,1708007151300,\Somewhat disagree\,\Somewhat disagree\,\2\,1708007150482,1708007150482,2139,2139,2957,buq,qns-item-noham,84,488711,0.0-1.0-0.83,65ce1cf00e109febcd8a1649,AWAITING REVIEW,2024-02-15T14:17:28.281000Z,2024-02-15T14:27:05.506000Z,,2024-02-15T14:27:06.140439Z,578.0,CVPIIDEI,10,20,Female,Asian,United States,United States,United States,English,Yes,DATA_EXPIRED,Not Applicable
65ccbda91469b2dbe8beb9c1,<b>Most people don?t know much about most things.,Highly disagree,85/94,Somewhat disagree,2,1708007151301,1708007154597,\Somewhat disagree\,\Somewhat disagree\,\2\,1708007153857,1708007153857,2556,2556,3296,buq,qns-item-noham,85,492008,0.0-1.0-0.84,65ce1cf00e109febcd8a1649,AWAITING REVIEW,2024-02-15T14:17:28.281000Z,2024-02-15T14:27:05.506000Z,,2024-02-15T14:27:06.140439Z,578.0,CVPIIDEI,10,20,Female,Asian,United States,United States,United States,English,Yes,DATA_EXPIRED,Not Applicable
65ccbda91469b2dbe8beb9c1,"<b>If I find out something new about someone, I easily change my views about them.",Highly disagree,86/94,Somewhat disagree,2,1708007154598,1708007160119,\Somewhat disagree\,\Somewhat disagree\,\2\,1708007159063,1708007159063,4465,4465,5521,buq,qns-item-noham,86,497530,0.0-1.0-0.85,65ce1cf00e109febcd8a1649,AWAITING REVIEW,2024-02-15T14:17:28.281000Z,2024-02-15T14:27:05.506000Z,,2024-02-15T14:27:06.140439Z,578.0,CVPIIDEI,10,20,Female,Asian,United States,United States,United States,English,Yes,DATA_EXPIRED,Not Applicable
65ccbda91469b2dbe8beb9c1,<b>Having true beliefs is difficult.,Highly disagree,87/94,Somewhat agree,3,1708007160120,1708007164011,\Somewhat disagree\,\Somewhat agree\,\2\,1708007162690,1708007163293,2570,3173,3891,buq,qns-item-noham,87,501422,0.0-1.0-0.86,65ce1cf00e109febcd8a1649,AWAITING REVIEW,2024-02-15T14:17:28.281000Z,2024-02-15T14:27:05.506000Z,,2024-02-15T14:27:06.140439Z,578.0,CVPIIDEI,10,20,Female,Asian,United States,United States,United States,English,Yes,DATA_EXPIRED,Not Applicable
65ccbda91469b2dbe8beb9c1,<b>I don?t try new foods since I know I won?t like them.,Highly disagree,88/94,Highly disagree,1,1708007164012,1708007167315,\Highly disagree\,\Highly disagree\,\1\,1708007166043,1708007166043,2031,2031,3303,buq,qns-item-noham,88,504726,0.0-1.0-0.87,65ce1cf00e109febcd8a1649,AWAITING REVIEW,2024-02-15T14:17:28.281000Z,2024-02-15T14:27:05.506000Z,,2024-02-15T14:27:06.140439Z,578.0,CVPIIDEI,10,20,Female,Asian,United States,United States,United States,English,Yes,DATA_EXPIRED,Not Applicable
65ccbda91469b2dbe8beb9c1,<b>Other people trick each other a lot.,Highly disagree,89/94,Somewhat disagree,2,1708007167316,1708007170683,\Somewhat disagree\,\Somewhat disagree\,\2\,1708007169627,1708007169627,2311,2311,3367,buq,qns-item-noham,89,508094,0.0-1.0-0.88,65ce1cf00e109febcd8a1649,AWAITING REVIEW,2024-02-15T14:17:28.281000Z,2024-02-15T14:27:05.506000Z,,2024-02-15T14:27:06.140439Z,578.0,CVPIIDEI,10,20,Female,Asian,United States,United States,United States,English,Yes,DATA_EXPIRED,Not Applicable
65ccbda91469b2dbe8beb9c1,<b>I would need to learn a lot about a person for my opinion of them to be swayed.,Highly disagree,90/94,Somewhat agree,3,1708007170684,1708007174682,\Somewhat agree\,\Somewhat agree\,\3\,1708007173318,1708007173318,2634,2634,3998,buq,qns-item-noham,90,512093,0.0-1.0-0.89,65ce1cf00e109febcd8a1649,AWAITING REVIEW,2024-02-15T14:17:28.281000Z,2024-02-15T14:27:05.506000Z,,2024-02-15T14:27:06.140439Z,578.0,CVPIIDEI,10,20,Female,Asian,United States,United States,United States,English,Yes,DATA_EXPIRED,Not Applicable
65ccbda91469b2dbe8beb9c1,<b>People can?t usually trick me when it comes to topics I care about.,Highly disagree,91/94,Somewhat disagree,2,1708007174683,1708007179460,\Somewhat disagree\,\Somewhat disagree\,\2\,1708007178689,1708007178689,4006,4006,4777,buq,qns-item-noham,91,516871,0.0-1.0-0.90,65ce1cf00e109febcd8a1649,AWAITING REVIEW,2024-02-15T14:17:28.281000Z,2024-02-15T14:27:05.506000Z,,2024-02-15T14:27:06.140439Z,578.0,CVPIIDEI,10,20,Female,Asian,United States,United States,United States,English,Yes,DATA_EXPIRED,Not Applicable
65ccbda91469b2dbe8beb9c1,<b>I do not often change my views on food.,Highly disagree,92/94,Somewhat disagree,2,1708007179461,1708007183623,\Somewhat disagree\,\Somewhat disagree\,\2\,1708007182809,1708007182809,3348,3348,4162,buq,qns-item-noham,92,521034,0.0-1.0-0.91,65ce1cf00e109febcd8a1649,AWAITING REVIEW,2024-02-15T14:17:28.281000Z,2024-02-15T14:27:05.506000Z,,2024-02-15T14:27:06.140439Z,578.0,CVPIIDEI,10,20,Female,Asian,United States,United States,United States,English,Yes,DATA_EXPIRED,Not Applicable
65ccbda91469b2dbe8beb9c1,<b>Specific policies are often very important to me.,Highly disagree,93/94,Somewhat agree,3,1708007183624,1708007186744,\Somewhat agree\,\Somewhat agree\,\3\,1708007185965,1708007185965,2341,2341,3120,buq,qns-item-noham,93,524155,0.0-1.0-0.92,65ce1cf00e109febcd8a1649,AWAITING REVIEW,2024-02-15T14:17:28.281000Z,2024-02-15T14:27:05.506000Z,,2024-02-15T14:27:06.140439Z,578.0,CVPIIDEI,10,20,Female,Asian,United States,United States,United States,English,Yes,DATA_EXPIRED,Not Applicable
65ccbda91469b2dbe8beb9c1,<b>Most people are woefully under-informed.,Highly disagree,94/94,Highly disagree,1,1708007186745,1708007191436,\Highly disagree\,\Highly disagree\,\1\,1708007190564,1708007190564,3819,3819,4691,buq,qns-item-noham,94,528847,0.0-1.0-0.93,65ce1cf00e109febcd8a1649,AWAITING REVIEW,2024-02-15T14:17:28.281000Z,2024-02-15T14:27:05.506000Z,,2024-02-15T14:27:06.140439Z,578.0,CVPIIDEI,10,20,Female,Asian,United States,United States,United States,English,Yes,DATA_EXPIRED,Not Applicable
65ccbda91469b2dbe8beb9c1,,,,,,,,,,,,,,,,,,,,,65ce1cf00e109febcd8a1649,AWAITING REVIEW,2024-02-15T14:17:28.281000Z,2024-02-15T14:27:05.506000Z,,2024-02-15T14:27:06.140439Z,578.0,CVPIIDEI,10,20,Female,Asian,United States,United States,United States,English,Yes,DATA_EXPIRED,Not Applicable
