PROLIFIC_PID,Question,qns_options,quest_num,answer,answer_num,question_load_timestamp,next_btn_timestamp,text_selected,final_text_selected,option_num_selected,preview_timestamps,final_text_selected_time_stamp,rt_first_option_click,rt_final_option_click,rt_submit_click,questionnaire,trial_type,trial_index,time_elapsed,internal_node_id,Demographic_Submission id,Demographic_Status,Demographic_Started at,Demographic_Completed at,Demographic_Reviewed at,Demographic_Archived at,Demographic_Time taken,Demographic_Completion code,Demographic_Total approvals,Demographic_Age,Demographic_Sex,Demographic_Ethnicity simplified,Demographic_Country of birth,Demographic_Country of residence,Demographic_Nationality,Demographic_Language,Demographic_Student status,Demographic_Employment status,Demographic_Custom study tncs accepted at
62bddb63d7c84ff6e9c592f5,<b>Knowing what?s true and knowing what to do about it are usually basically the same.,Highly disagree,1/94,Somewhat disagree,2,1708006586222,1708006594075,\Somewhat disagree\,\Somewhat disagree\,\2\,1708006593297,1708006593297,7075,7075,7853,buq,qns-item-noham,1,15980,0.0-1.0-0.0,65ce1c8b4072c5b4f0122053,AWAITING REVIEW,2024-02-15T14:15:43.987000Z,2024-02-15T14:25:40.330000Z,,2024-02-15T14:25:40.887385Z,597.0,CVPIIDEI,2280,26,Female,White,United States,United States,United States,English,No,DATA_EXPIRED,Not Applicable
62bddb63d7c84ff6e9c592f5,<b>Most people just believe whatever is convenient for them.,Highly disagree,2/94,Highly agree,4,1708006594077,1708006597592,\Somewhat agree\,\Highly agree\,\3\,1708006596565,1708006597161,2488,3084,3515,buq,qns-item-noham,2,19497,0.0-1.0-0.1,65ce1c8b4072c5b4f0122053,AWAITING REVIEW,2024-02-15T14:15:43.987000Z,2024-02-15T14:25:40.330000Z,,2024-02-15T14:25:40.887385Z,597.0,CVPIIDEI,2280,26,Female,White,United States,United States,United States,English,No,DATA_EXPIRED,Not Applicable
62bddb63d7c84ff6e9c592f5,<b>Having some big beliefs helps me sort out minor ones.,Highly disagree,3/94,Highly agree,4,1708006597593,1708006599850,\Highly agree\,\Highly agree\,\4\,1708006599396,1708006599396,1803,1803,2257,buq,qns-item-noham,3,21755,0.0-1.0-0.2,65ce1c8b4072c5b4f0122053,AWAITING REVIEW,2024-02-15T14:15:43.987000Z,2024-02-15T14:25:40.330000Z,,2024-02-15T14:25:40.887385Z,597.0,CVPIIDEI,2280,26,Female,White,United States,United States,United States,English,No,DATA_EXPIRED,Not Applicable
62bddb63d7c84ff6e9c592f5,<b>Political questions are usually pretty complicated.,Highly disagree,4/94,Somewhat disagree,2,1708006599851,1708006604097,\Somewhat disagree\,\Somewhat disagree\,\2\,1708006603548,1708006603548,3697,3697,4246,buq,qns-item-noham,4,26002,0.0-1.0-0.3,65ce1c8b4072c5b4f0122053,AWAITING REVIEW,2024-02-15T14:15:43.987000Z,2024-02-15T14:25:40.330000Z,,2024-02-15T14:25:40.887385Z,597.0,CVPIIDEI,2280,26,Female,White,United States,United States,United States,English,No,DATA_EXPIRED,Not Applicable
62bddb63d7c84ff6e9c592f5,<b>Figuring out what?s important in life requires learning a lot of facts.,Highly disagree,5/94,Somewhat disagree,2,1708006604098,1708006607875,\Somewhat disagree\,\Somewhat disagree\,\2\,1708006607394,1708006607394,3296,3296,3777,buq,qns-item-noham,5,29780,0.0-1.0-0.4,65ce1c8b4072c5b4f0122053,AWAITING REVIEW,2024-02-15T14:15:43.987000Z,2024-02-15T14:25:40.330000Z,,2024-02-15T14:25:40.887385Z,597.0,CVPIIDEI,2280,26,Female,White,United States,United States,United States,English,No,DATA_EXPIRED,Not Applicable
62bddb63d7c84ff6e9c592f5,<b>It is difficult for me to remember the last time I was surprised by politics.,Highly disagree,6/94,Somewhat agree,3,1708006607876,1708006611832,\Somewhat agree\,\Somewhat agree\,\3\,1708006611384,1708006611384,3508,3508,3956,buq,qns-item-noham,6,33737,0.0-1.0-0.5,65ce1c8b4072c5b4f0122053,AWAITING REVIEW,2024-02-15T14:15:43.987000Z,2024-02-15T14:25:40.330000Z,,2024-02-15T14:25:40.887385Z,597.0,CVPIIDEI,2280,26,Female,White,United States,United States,United States,English,No,DATA_EXPIRED,Not Applicable
62bddb63d7c84ff6e9c592f5,<b>People?s false beliefs are understandable.,Highly disagree,7/94,Somewhat disagree,2,1708006611833,1708006614707,\Somewhat disagree\,\Somewhat disagree\,\2\,1708006614091,1708006614091,2258,2258,2874,buq,qns-item-noham,7,36612,0.0-1.0-0.6,65ce1c8b4072c5b4f0122053,AWAITING REVIEW,2024-02-15T14:15:43.987000Z,2024-02-15T14:25:40.330000Z,,2024-02-15T14:25:40.887385Z,597.0,CVPIIDEI,2280,26,Female,White,United States,United States,United States,English,No,DATA_EXPIRED,Not Applicable
62bddb63d7c84ff6e9c592f5,<b>I spend a lot of time trying to be informed about politics.,Highly disagree,8/94,Highly agree,4,1708006614708,1708006617546,\Highly agree\,\Highly agree\,\4\,1708006617089,1708006617089,2381,2381,2838,buq,qns-item-noham,8,39451,0.0-1.0-0.7,65ce1c8b4072c5b4f0122053,AWAITING REVIEW,2024-02-15T14:15:43.987000Z,2024-02-15T14:25:40.330000Z,,2024-02-15T14:25:40.887385Z,597.0,CVPIIDEI,2280,26,Female,White,United States,United States,United States,English,No,DATA_EXPIRED,Not Applicable
62bddb63d7c84ff6e9c592f5,<b>I think a lot about whether my beliefs are right.,Highly disagree,9/94,Highly agree,4,1708006617547,1708006620505,\Highly agree\,\Highly agree\,\4\,1708006619974,1708006619974,2427,2427,2958,buq,qns-item-noham,9,42410,0.0-1.0-0.8,65ce1c8b4072c5b4f0122053,AWAITING REVIEW,2024-02-15T14:15:43.987000Z,2024-02-15T14:25:40.330000Z,,2024-02-15T14:25:40.887385Z,597.0,CVPIIDEI,2280,26,Female,White,United States,United States,United States,English,No,DATA_EXPIRED,Not Applicable
62bddb63d7c84ff6e9c592f5,<b>Statistics can be pretty misleading sometimes.,Highly disagree,10/94,Highly agree,4,1708006620505,1708006622697,\Highly agree\,\Highly agree\,\4\,1708006622215,1708006622215,1710,1710,2192,buq,qns-item-noham,10,44602,0.0-1.0-0.9,65ce1c8b4072c5b4f0122053,AWAITING REVIEW,2024-02-15T14:15:43.987000Z,2024-02-15T14:25:40.330000Z,,2024-02-15T14:25:40.887385Z,597.0,CVPIIDEI,2280,26,Female,White,United States,United States,United States,English,No,DATA_EXPIRED,Not Applicable
62bddb63d7c84ff6e9c592f5,<b>I have lots of beliefs that I?m only sort of sure about.,Highly disagree,11/94,Somewhat disagree,2,1708006622699,1708006625440,\Somewhat disagree\,\Somewhat disagree\,\2\,1708006625111,1708006625111,2412,2412,2741,buq,qns-item-noham,11,47345,0.0-1.0-0.10,65ce1c8b4072c5b4f0122053,AWAITING REVIEW,2024-02-15T14:15:43.987000Z,2024-02-15T14:25:40.330000Z,,2024-02-15T14:25:40.887385Z,597.0,CVPIIDEI,2280,26,Female,White,United States,United States,United States,English,No,DATA_EXPIRED,Not Applicable
62bddb63d7c84ff6e9c592f5,"<b>If I go to my favorite restaurant and the food is surprisingly bad, it reminds me there are many disappointments in life.",Highly disagree,12/94,Somewhat agree,3,1708006625440,1708006631235,\Somewhat agree\,\Somewhat agree\,\3\,1708006630346,1708006630346,4906,4906,5795,buq,qns-item-noham,12,53140,0.0-1.0-0.11,65ce1c8b4072c5b4f0122053,AWAITING REVIEW,2024-02-15T14:15:43.987000Z,2024-02-15T14:25:40.330000Z,,2024-02-15T14:25:40.887385Z,597.0,CVPIIDEI,2280,26,Female,White,United States,United States,United States,English,No,DATA_EXPIRED,Not Applicable
62bddb63d7c84ff6e9c592f5,"<b>If you are paying attention, please select ?Somewhat agree?",Highly disagree,13/94,Somewhat agree,3,1708006631236,1708006633326,\Somewhat agree\,\Somewhat agree\,\3\,1708006632791,1708006632791,1555,1555,2090,buq,qns-item-noham,13,55231,0.0-1.0-0.12,65ce1c8b4072c5b4f0122053,AWAITING REVIEW,2024-02-15T14:15:43.987000Z,2024-02-15T14:25:40.330000Z,,2024-02-15T14:25:40.887385Z,597.0,CVPIIDEI,2280,26,Female,White,United States,United States,United States,English,No,DATA_EXPIRED,Not Applicable
62bddb63d7c84ff6e9c592f5,"<b>When I talk to others, I often worry I?ll convince them of something I didn?t mean to.",Highly disagree,14/94,Highly disagree,1,1708006633327,1708006637304,\Highly disagree\,\Highly disagree\,\1\,1708006636623,1708006636623,3296,3296,3977,buq,qns-item-noham,14,59209,0.0-1.0-0.13,65ce1c8b4072c5b4f0122053,AWAITING REVIEW,2024-02-15T14:15:43.987000Z,2024-02-15T14:25:40.330000Z,,2024-02-15T14:25:40.887385Z,597.0,CVPIIDEI,2280,26,Female,White,United States,United States,United States,English,No,DATA_EXPIRED,Not Applicable
62bddb63d7c84ff6e9c592f5,<b>I would need to learn something utterly shocking about my party in order to change my political views.,Highly disagree,15/94,Somewhat agree,3,1708006637305,1708006652681,\Somewhat agree\,\Somewhat agree\,\3\,1708006652124,1708006652124,14819,14819,15376,buq,qns-item-noham,15,74586,0.0-1.0-0.14,65ce1c8b4072c5b4f0122053,AWAITING REVIEW,2024-02-15T14:15:43.987000Z,2024-02-15T14:25:40.330000Z,,2024-02-15T14:25:40.887385Z,597.0,CVPIIDEI,2280,26,Female,White,United States,United States,United States,English,No,DATA_EXPIRED,Not Applicable
62bddb63d7c84ff6e9c592f5,"<b>When I have new experiences, I tend to think of them as unique.",Highly disagree,16/94,Somewhat agree,3,1708006652683,1708006659200,\Somewhat agree\,\Somewhat agree\,\3\,1708006658738,1708006658738,6055,6055,6517,buq,qns-item-noham,16,81105,0.0-1.0-0.15,65ce1c8b4072c5b4f0122053,AWAITING REVIEW,2024-02-15T14:15:43.987000Z,2024-02-15T14:25:40.330000Z,,2024-02-15T14:25:40.887385Z,597.0,CVPIIDEI,2280,26,Female,White,United States,United States,United States,English,No,DATA_EXPIRED,Not Applicable
62bddb63d7c84ff6e9c592f5,<b>I change my mind about specific policies pretty frequently.,Highly disagree,17/94,Somewhat disagree,2,1708006659201,1708006661693,\Somewhat disagree\,\Somewhat disagree\,\2\,1708006661274,1708006661274,2073,2073,2492,buq,qns-item-noham,17,83598,0.0-1.0-0.16,65ce1c8b4072c5b4f0122053,AWAITING REVIEW,2024-02-15T14:15:43.987000Z,2024-02-15T14:25:40.330000Z,,2024-02-15T14:25:40.887385Z,597.0,CVPIIDEI,2280,26,Female,White,United States,United States,United States,English,No,DATA_EXPIRED,Not Applicable
62bddb63d7c84ff6e9c592f5,"<b>If a politician in my political party supports something I disagree with, I give them the benefit of the doubt, as such issues often involve hidden complexities that aren?t obvious.   ",Highly disagree,18/94,Highly disagree,1,1708006661694,1708006668259,\Highly disagree\,\Highly disagree\,\1\,1708006667681,1708006667681,5987,5987,6565,buq,qns-item-noham,18,90164,0.0-1.0-0.17,65ce1c8b4072c5b4f0122053,AWAITING REVIEW,2024-02-15T14:15:43.987000Z,2024-02-15T14:25:40.330000Z,,2024-02-15T14:25:40.887385Z,597.0,CVPIIDEI,2280,26,Female,White,United States,United States,United States,English,No,DATA_EXPIRED,Not Applicable
62bddb63d7c84ff6e9c592f5,<b>People?s bad politics are usually motivated by hatefulness.,Highly disagree,19/94,Somewhat agree,3,1708006668260,1708006676115,\Somewhat agree\,\Somewhat agree\,\3\,1708006675454,1708006675454,7194,7194,7855,buq,qns-item-noham,19,98020,0.0-1.0-0.18,65ce1c8b4072c5b4f0122053,AWAITING REVIEW,2024-02-15T14:15:43.987000Z,2024-02-15T14:25:40.330000Z,,2024-02-15T14:25:40.887385Z,597.0,CVPIIDEI,2280,26,Female,White,United States,United States,United States,English,No,DATA_EXPIRED,Not Applicable
62bddb63d7c84ff6e9c592f5,<b>I think a lot about how to reconcile my beliefs with one another.,Highly disagree,20/94,Somewhat disagree,2,1708006676117,1708006680102,\Somewhat disagree\,\Somewhat disagree\,\2\,1708006679276,1708006679276,3159,3159,3985,buq,qns-item-noham,20,102007,0.0-1.0-0.19,65ce1c8b4072c5b4f0122053,AWAITING REVIEW,2024-02-15T14:15:43.987000Z,2024-02-15T14:25:40.330000Z,,2024-02-15T14:25:40.887385Z,597.0,CVPIIDEI,2280,26,Female,White,United States,United States,United States,English,No,DATA_EXPIRED,Not Applicable
62bddb63d7c84ff6e9c592f5,<b>I might have false beliefs about important topics.,Highly disagree,21/94,Somewhat disagree,2,1708006680103,1708006682592,\Somewhat disagree\,\Somewhat disagree\,\2\,1708006682239,1708006682239,2136,2136,2489,buq,qns-item-noham,21,104497,0.0-1.0-0.20,65ce1c8b4072c5b4f0122053,AWAITING REVIEW,2024-02-15T14:15:43.987000Z,2024-02-15T14:25:40.330000Z,,2024-02-15T14:25:40.887385Z,597.0,CVPIIDEI,2280,26,Female,White,United States,United States,United States,English,No,DATA_EXPIRED,Not Applicable
62bddb63d7c84ff6e9c592f5,"<b>If a good friend of mine does something unexpected that upsets me, I feel like I don?t know them anymore.",Highly disagree,22/94,Somewhat agree,3,1708006682592,1708006688100,\Somewhat agree\,\Somewhat agree\,\3\,1708006687566,1708006687566,4974,4974,5508,buq,qns-item-noham,22,110005,0.0-1.0-0.21,65ce1c8b4072c5b4f0122053,AWAITING REVIEW,2024-02-15T14:15:43.987000Z,2024-02-15T14:25:40.330000Z,,2024-02-15T14:25:40.887385Z,597.0,CVPIIDEI,2280,26,Female,White,United States,United States,United States,English,No,DATA_EXPIRED,Not Applicable
62bddb63d7c84ff6e9c592f5,<b>Other people?s beliefs are often incoherent.,Highly disagree,23/94,Somewhat disagree,2,1708006688102,1708006690761,\Somewhat disagree\,\Somewhat disagree\,\2\,1708006690334,1708006690334,2232,2232,2659,buq,qns-item-noham,23,112666,0.0-1.0-0.22,65ce1c8b4072c5b4f0122053,AWAITING REVIEW,2024-02-15T14:15:43.987000Z,2024-02-15T14:25:40.330000Z,,2024-02-15T14:25:40.887385Z,597.0,CVPIIDEI,2280,26,Female,White,United States,United States,United States,English,No,DATA_EXPIRED,Not Applicable
62bddb63d7c84ff6e9c592f5,"<b>Every now and then, a new experience will unsettle beliefs I?ve had for a while.",Highly disagree,24/94,Somewhat agree,3,1708006690762,1708006697474,\Somewhat agree\,\Somewhat agree\,\3\,1708006697073,1708006697073,6311,6311,6712,buq,qns-item-noham,24,119379,0.0-1.0-0.23,65ce1c8b4072c5b4f0122053,AWAITING REVIEW,2024-02-15T14:15:43.987000Z,2024-02-15T14:25:40.330000Z,,2024-02-15T14:25:40.887385Z,597.0,CVPIIDEI,2280,26,Female,White,United States,United States,United States,English,No,DATA_EXPIRED,Not Applicable
62bddb63d7c84ff6e9c592f5,<b>Some policies I agree with in principle are so bad I don?t support them. ,Highly disagree,25/94,Somewhat agree,3,1708006697475,1708006704428,\Somewhat agree\,\Somewhat agree\,\3\,1708006703736,1708006703736,6261,6261,6953,buq,qns-item-noham,25,126333,0.0-1.0-0.24,65ce1c8b4072c5b4f0122053,AWAITING REVIEW,2024-02-15T14:15:43.987000Z,2024-02-15T14:25:40.330000Z,,2024-02-15T14:25:40.887385Z,597.0,CVPIIDEI,2280,26,Female,White,United States,United States,United States,English,No,DATA_EXPIRED,Not Applicable
62bddb63d7c84ff6e9c592f5,<b>I?m pretty sure I?ve accidentally spread false information.,Highly disagree,26/94,Somewhat disagree,2,1708006704429,1708006707938,\Somewhat disagree\,\Somewhat disagree\,\2\,1708006707141,1708006707141,2712,2712,3509,buq,qns-item-noham,26,129843,0.0-1.0-0.25,65ce1c8b4072c5b4f0122053,AWAITING REVIEW,2024-02-15T14:15:43.987000Z,2024-02-15T14:25:40.330000Z,,2024-02-15T14:25:40.887385Z,597.0,CVPIIDEI,2280,26,Female,White,United States,United States,United States,English,No,DATA_EXPIRED,Not Applicable
62bddb63d7c84ff6e9c592f5,"<b>If I go to my favorite restaurant and the food is unexpectedly bad, then they have changed owners.",Highly disagree,27/94,Somewhat disagree,2,1708006707939,1708006713616,\Somewhat disagree\,\Somewhat disagree\,\2\,1708006712985,1708006712985,5046,5046,5677,buq,qns-item-noham,27,135522,0.0-1.0-0.26,65ce1c8b4072c5b4f0122053,AWAITING REVIEW,2024-02-15T14:15:43.987000Z,2024-02-15T14:25:40.330000Z,,2024-02-15T14:25:40.887385Z,597.0,CVPIIDEI,2280,26,Female,White,United States,United States,United States,English,No,DATA_EXPIRED,Not Applicable
62bddb63d7c84ff6e9c592f5,"<b>In politics, it?s important to trust your friends and family.",Highly disagree,28/94,Somewhat disagree,2,1708006713619,1708006715994,\Somewhat disagree\,\Somewhat disagree\,\2\,1708006715658,1708006715658,2039,2039,2375,buq,qns-item-noham,28,137899,0.0-1.0-0.27,65ce1c8b4072c5b4f0122053,AWAITING REVIEW,2024-02-15T14:15:43.987000Z,2024-02-15T14:25:40.330000Z,,2024-02-15T14:25:40.887385Z,597.0,CVPIIDEI,2280,26,Female,White,United States,United States,United States,English,No,DATA_EXPIRED,Not Applicable
62bddb63d7c84ff6e9c592f5,<b>It?s OK to have some conflicting beliefs.,Highly disagree,29/94,Somewhat disagree,2,1708006715995,1708006718175,\Somewhat disagree\,\Somewhat disagree\,\2\,1708006717795,1708006717795,1800,1800,2180,buq,qns-item-noham,29,140080,0.0-1.0-0.28,65ce1c8b4072c5b4f0122053,AWAITING REVIEW,2024-02-15T14:15:43.987000Z,2024-02-15T14:25:40.330000Z,,2024-02-15T14:25:40.887385Z,597.0,CVPIIDEI,2280,26,Female,White,United States,United States,United States,English,No,DATA_EXPIRED,Not Applicable
62bddb63d7c84ff6e9c592f5,<b>Listening to people I disagree with makes my opinions better.,Highly disagree,30/94,Somewhat agree,3,1708006718177,1708006721141,\Somewhat agree\,\Somewhat agree\,\3\,1708006720714,1708006720714,2537,2537,2964,buq,qns-item-noham,30,143046,0.0-1.0-0.29,65ce1c8b4072c5b4f0122053,AWAITING REVIEW,2024-02-15T14:15:43.987000Z,2024-02-15T14:25:40.330000Z,,2024-02-15T14:25:40.887385Z,597.0,CVPIIDEI,2280,26,Female,White,United States,United States,United States,English,No,DATA_EXPIRED,Not Applicable
62bddb63d7c84ff6e9c592f5,<b>My moral compass sometimes makes it harder to determine what?s true.,Highly disagree,31/94,Somewhat disagree,2,1708006721143,1708006723700,\Somewhat disagree\,\Somewhat disagree\,\2\,1708006723302,1708006723302,2159,2159,2557,buq,qns-item-noham,31,145605,0.0-1.0-0.30,65ce1c8b4072c5b4f0122053,AWAITING REVIEW,2024-02-15T14:15:43.987000Z,2024-02-15T14:25:40.330000Z,,2024-02-15T14:25:40.887385Z,597.0,CVPIIDEI,2280,26,Female,White,United States,United States,United States,English,No,DATA_EXPIRED,Not Applicable
62bddb63d7c84ff6e9c592f5,<b>Evidence pointing in the wrong direction isn?t really evidence at all.,Highly disagree,32/94,Somewhat disagree,2,1708006723701,1708006728681,\Somewhat disagree\,\Somewhat disagree\,\2\,1708006728133,1708006728133,4432,4432,4980,buq,qns-item-noham,32,150586,0.0-1.0-0.31,65ce1c8b4072c5b4f0122053,AWAITING REVIEW,2024-02-15T14:15:43.987000Z,2024-02-15T14:25:40.330000Z,,2024-02-15T14:25:40.887385Z,597.0,CVPIIDEI,2280,26,Female,White,United States,United States,United States,English,No,DATA_EXPIRED,Not Applicable
62bddb63d7c84ff6e9c592f5,"<b>If the political party I support messes up, it makes me think politics is rotten.",Highly disagree,33/94,Somewhat agree,3,1708006728683,1708006737623,\Somewhat agree\,\Somewhat agree\,\3\,1708006737000,1708006737000,8317,8317,8940,buq,qns-item-noham,33,159528,0.0-1.0-0.32,65ce1c8b4072c5b4f0122053,AWAITING REVIEW,2024-02-15T14:15:43.987000Z,2024-02-15T14:25:40.330000Z,,2024-02-15T14:25:40.887385Z,597.0,CVPIIDEI,2280,26,Female,White,United States,United States,United States,English,No,DATA_EXPIRED,Not Applicable
62bddb63d7c84ff6e9c592f5,<b>Lots of important topics can only really be understood by some groups of people.,Highly disagree,34/94,Highly disagree,1,1708006737623,1708006744445,\Highly disagree\,\Highly disagree\,\1\,1708006743953,1708006743953,6330,6330,6822,buq,qns-item-noham,34,166350,0.0-1.0-0.33,65ce1c8b4072c5b4f0122053,AWAITING REVIEW,2024-02-15T14:15:43.987000Z,2024-02-15T14:25:40.330000Z,,2024-02-15T14:25:40.887385Z,597.0,CVPIIDEI,2280,26,Female,White,United States,United States,United States,English,No,DATA_EXPIRED,Not Applicable
62bddb63d7c84ff6e9c592f5,<b>Having conflicting beliefs means you haven?t thought about them enough.,Highly disagree,35/94,Somewhat agree,3,1708006744445,1708006747782,\Somewhat agree\,\Somewhat agree\,\3\,1708006747357,1708006747357,2912,2912,3337,buq,qns-item-noham,35,169687,0.0-1.0-0.34,65ce1c8b4072c5b4f0122053,AWAITING REVIEW,2024-02-15T14:15:43.987000Z,2024-02-15T14:25:40.330000Z,,2024-02-15T14:25:40.887385Z,597.0,CVPIIDEI,2280,26,Female,White,United States,United States,United States,English,No,DATA_EXPIRED,Not Applicable
62bddb63d7c84ff6e9c592f5,<b>I do not often change my political opinions.,Highly disagree,36/94,Somewhat agree,3,1708006747783,1708006750645,\Somewhat agree\,\Somewhat agree\,\3\,1708006749674,1708006749674,1891,1891,2862,buq,qns-item-noham,36,172550,0.0-1.0-0.35,65ce1c8b4072c5b4f0122053,AWAITING REVIEW,2024-02-15T14:15:43.987000Z,2024-02-15T14:25:40.330000Z,,2024-02-15T14:25:40.887385Z,597.0,CVPIIDEI,2280,26,Female,White,United States,United States,United States,English,No,DATA_EXPIRED,Not Applicable
62bddb63d7c84ff6e9c592f5,<b>It?s difficult to not have at least some conflicting beliefs.,Highly disagree,37/94,Somewhat disagree,2,1708006750646,1708006753697,\Somewhat disagree\,\Somewhat disagree\,\2\,1708006752756,1708006752756,2110,2110,3051,buq,qns-item-noham,37,175602,0.0-1.0-0.36,65ce1c8b4072c5b4f0122053,AWAITING REVIEW,2024-02-15T14:15:43.987000Z,2024-02-15T14:25:40.330000Z,,2024-02-15T14:25:40.887385Z,597.0,CVPIIDEI,2280,26,Female,White,United States,United States,United States,English,No,DATA_EXPIRED,Not Applicable
62bddb63d7c84ff6e9c592f5,<b>Wishful thinking causes a lot of problems.,Highly disagree,38/94,Somewhat disagree,2,1708006753698,1708006757583,\Highly disagree\,\Somewhat disagree\,\1\,1708006756214,1708006756951,2516,3253,3885,buq,qns-item-noham,38,179488,0.0-1.0-0.37,65ce1c8b4072c5b4f0122053,AWAITING REVIEW,2024-02-15T14:15:43.987000Z,2024-02-15T14:25:40.330000Z,,2024-02-15T14:25:40.887385Z,597.0,CVPIIDEI,2280,26,Female,White,United States,United States,United States,English,No,DATA_EXPIRED,Not Applicable
62bddb63d7c84ff6e9c592f5,<b>I judge a food item only once I try it many times.,Highly disagree,39/94,Somewhat disagree,2,1708006757585,1708006760727,\Somewhat disagree\,\Somewhat disagree\,\2\,1708006760167,1708006760167,2582,2582,3142,buq,qns-item-noham,39,182632,0.0-1.0-0.38,65ce1c8b4072c5b4f0122053,AWAITING REVIEW,2024-02-15T14:15:43.987000Z,2024-02-15T14:25:40.330000Z,,2024-02-15T14:25:40.887385Z,597.0,CVPIIDEI,2280,26,Female,White,United States,United States,United States,English,No,DATA_EXPIRED,Not Applicable
62bddb63d7c84ff6e9c592f5,"<b>When a person holds conflicting beliefs, they should really try to figure out what?s wrong.",Highly disagree,40/94,Highly agree,4,1708006760728,1708006763590,\Highly agree\,\Highly agree\,\4\,1708006763180,1708006763180,2452,2452,2862,buq,qns-item-noham,40,185495,0.0-1.0-0.39,65ce1c8b4072c5b4f0122053,AWAITING REVIEW,2024-02-15T14:15:43.987000Z,2024-02-15T14:25:40.330000Z,,2024-02-15T14:25:40.887385Z,597.0,CVPIIDEI,2280,26,Female,White,United States,United States,United States,English,No,DATA_EXPIRED,Not Applicable
62bddb63d7c84ff6e9c592f5,<b>Knowing what?s important in life is easy.,Highly disagree,41/94,Somewhat agree,3,1708006763590,1708006765911,\Somewhat agree\,\Somewhat agree\,\3\,1708006765445,1708006765445,1855,1855,2321,buq,qns-item-noham,41,187816,0.0-1.0-0.40,65ce1c8b4072c5b4f0122053,AWAITING REVIEW,2024-02-15T14:15:43.987000Z,2024-02-15T14:25:40.330000Z,,2024-02-15T14:25:40.887385Z,597.0,CVPIIDEI,2280,26,Female,White,United States,United States,United States,English,No,DATA_EXPIRED,Not Applicable
62bddb63d7c84ff6e9c592f5,<b>I swim across the Atlantic Ocean to get to work every day.,Highly disagree,42/94,Highly disagree,1,1708006765912,1708006768043,\Highly disagree\,\Highly disagree\,\1\,1708006767647,1708006767647,1735,1735,2131,buq,qns-item-noham,42,189948,0.0-1.0-0.41,65ce1c8b4072c5b4f0122053,AWAITING REVIEW,2024-02-15T14:15:43.987000Z,2024-02-15T14:25:40.330000Z,,2024-02-15T14:25:40.887385Z,597.0,CVPIIDEI,2280,26,Female,White,United States,United States,United States,English,No,DATA_EXPIRED,Not Applicable
62bddb63d7c84ff6e9c592f5,"<b>Sometimes, you just have to ignore evidence that you know is wrong.",Highly disagree,43/94,Highly disagree,1,1708006768043,1708006775787,\Somewhat disagree\,\Highly disagree\,\2\,1708006774258,1708006775378,6215,7335,7744,buq,qns-item-noham,43,197692,0.0-1.0-0.42,65ce1c8b4072c5b4f0122053,AWAITING REVIEW,2024-02-15T14:15:43.987000Z,2024-02-15T14:25:40.330000Z,,2024-02-15T14:25:40.887385Z,597.0,CVPIIDEI,2280,26,Female,White,United States,United States,United States,English,No,DATA_EXPIRED,Not Applicable
62bddb63d7c84ff6e9c592f5,<b>I have had some false beliefs.,Highly disagree,44/94,Somewhat agree,3,1708006775788,1708006777860,\Somewhat agree\,\Somewhat agree\,\3\,1708006777472,1708006777472,1684,1684,2072,buq,qns-item-noham,44,199765,0.0-1.0-0.43,65ce1c8b4072c5b4f0122053,AWAITING REVIEW,2024-02-15T14:15:43.987000Z,2024-02-15T14:25:40.330000Z,,2024-02-15T14:25:40.887385Z,597.0,CVPIIDEI,2280,26,Female,White,United States,United States,United States,English,No,DATA_EXPIRED,Not Applicable
62bddb63d7c84ff6e9c592f5,"<b>If one friend does something that upsets me, I sometimes start to distrust people in general.",Highly disagree,45/94,Somewhat agree,3,1708006777862,1708006780903,\Somewhat agree\,\Somewhat agree\,\3\,1708006780580,1708006780580,2718,2718,3041,buq,qns-item-noham,45,202808,0.0-1.0-0.44,65ce1c8b4072c5b4f0122053,AWAITING REVIEW,2024-02-15T14:15:43.987000Z,2024-02-15T14:25:40.330000Z,,2024-02-15T14:25:40.887385Z,597.0,CVPIIDEI,2280,26,Female,White,United States,United States,United States,English,No,DATA_EXPIRED,Not Applicable
62bddb63d7c84ff6e9c592f5,<b>The facts about most important matters are easy to find.,Highly disagree,46/94,Somewhat agree,3,1708006780904,1708006787631,\Somewhat agree\,\Somewhat agree\,\3\,1708006784008,1708006784008,3104,3104,6727,buq,qns-item-noham,46,209537,0.0-1.0-0.45,65ce1c8b4072c5b4f0122053,AWAITING REVIEW,2024-02-15T14:15:43.987000Z,2024-02-15T14:25:40.330000Z,,2024-02-15T14:25:40.887385Z,597.0,CVPIIDEI,2280,26,Female,White,United States,United States,United States,English,No,DATA_EXPIRED,Not Applicable
62bddb63d7c84ff6e9c592f5,<b>It?s better to know what?s true than to know what?s moral.,Highly disagree,47/94,Somewhat agree,3,1708006787634,1708006798017,\Somewhat agree\,\Somewhat agree\,\3\,1708006797592,1708006797592,9958,9958,10383,buq,qns-item-noham,47,219922,0.0-1.0-0.46,65ce1c8b4072c5b4f0122053,AWAITING REVIEW,2024-02-15T14:15:43.987000Z,2024-02-15T14:25:40.330000Z,,2024-02-15T14:25:40.887385Z,597.0,CVPIIDEI,2280,26,Female,White,United States,United States,United States,English,No,DATA_EXPIRED,Not Applicable
62bddb63d7c84ff6e9c592f5,<b>I used to think the world was less complicated than I do now.,Highly disagree,48/94,Highly agree,4,1708006798017,1708006802346,\Somewhat agree\,\Highly agree\,\3\,1708006800913,1708006801874,2896,3857,4329,buq,qns-item-noham,48,224251,0.0-1.0-0.47,65ce1c8b4072c5b4f0122053,AWAITING REVIEW,2024-02-15T14:15:43.987000Z,2024-02-15T14:25:40.330000Z,,2024-02-15T14:25:40.887385Z,597.0,CVPIIDEI,2280,26,Female,White,United States,United States,United States,English,No,DATA_EXPIRED,Not Applicable
62bddb63d7c84ff6e9c592f5,<b>People are usually completely right or completely wrong.,Highly disagree,49/94,Somewhat disagree,2,1708006802347,1708006807795,\Somewhat disagree\,\Somewhat disagree\,\2\,1708006806995,1708006806995,4648,4648,5448,buq,qns-item-noham,49,229700,0.0-1.0-0.48,65ce1c8b4072c5b4f0122053,AWAITING REVIEW,2024-02-15T14:15:43.987000Z,2024-02-15T14:25:40.330000Z,,2024-02-15T14:25:40.887385Z,597.0,CVPIIDEI,2280,26,Female,White,United States,United States,United States,English,No,DATA_EXPIRED,Not Applicable
62bddb63d7c84ff6e9c592f5,<b>I spend a lot of time considering alternatives to my beliefs.,Highly disagree,50/94,Somewhat disagree,2,1708006807796,1708006812192,\Somewhat disagree\,\Somewhat disagree\,\2\,1708006811659,1708006811659,3863,3863,4396,buq,qns-item-noham,50,234097,0.0-1.0-0.49,65ce1c8b4072c5b4f0122053,AWAITING REVIEW,2024-02-15T14:15:43.987000Z,2024-02-15T14:25:40.330000Z,,2024-02-15T14:25:40.887385Z,597.0,CVPIIDEI,2280,26,Female,White,United States,United States,United States,English,No,DATA_EXPIRED,Not Applicable
62bddb63d7c84ff6e9c592f5,"<b>Political enemies need to be defeated, not convinced.",Highly disagree,51/94,Somewhat disagree,2,1708006812193,1708006820571,\Somewhat agree\,\Somewhat disagree\,\3\,1708006816916,1708006818592,4723,6399,8378,buq,qns-item-noham,51,242476,0.0-1.0-0.50,65ce1c8b4072c5b4f0122053,AWAITING REVIEW,2024-02-15T14:15:43.987000Z,2024-02-15T14:25:40.330000Z,,2024-02-15T14:25:40.887385Z,597.0,CVPIIDEI,2280,26,Female,White,United States,United States,United States,English,No,DATA_EXPIRED,Not Applicable
62bddb63d7c84ff6e9c592f5,<b>I form my political views only after meticulously gathering historical and present information about their policies.,Highly disagree,52/94,Highly agree,4,1708006820572,1708006824572,\Highly agree\,\Highly agree\,\4\,1708006824160,1708006824160,3588,3588,4000,buq,qns-item-noham,52,246477,0.0-1.0-0.51,65ce1c8b4072c5b4f0122053,AWAITING REVIEW,2024-02-15T14:15:43.987000Z,2024-02-15T14:25:40.330000Z,,2024-02-15T14:25:40.887385Z,597.0,CVPIIDEI,2280,26,Female,White,United States,United States,United States,English,No,DATA_EXPIRED,Not Applicable
62bddb63d7c84ff6e9c592f5,<b>It is difficult for me to remember the last time I was surprised by politics.,Highly disagree,53/94,Somewhat agree,3,1708006824574,1708006829300,\Somewhat agree\,\Somewhat agree\,\3\,1708006827323,1708006827323,2749,2749,4726,buq,qns-item-noham,53,251205,0.0-1.0-0.52,65ce1c8b4072c5b4f0122053,AWAITING REVIEW,2024-02-15T14:15:43.987000Z,2024-02-15T14:25:40.330000Z,,2024-02-15T14:25:40.887385Z,597.0,CVPIIDEI,2280,26,Female,White,United States,United States,United States,English,No,DATA_EXPIRED,Not Applicable
62bddb63d7c84ff6e9c592f5,"<b>When I find out I?m wrong, I think a lot about my related beliefs.",Highly disagree,54/94,Highly agree,4,1708006829301,1708006832876,\Highly agree\,\Highly agree\,\4\,1708006832385,1708006832385,3084,3084,3575,buq,qns-item-noham,54,254781,0.0-1.0-0.53,65ce1c8b4072c5b4f0122053,AWAITING REVIEW,2024-02-15T14:15:43.987000Z,2024-02-15T14:25:40.330000Z,,2024-02-15T14:25:40.887385Z,597.0,CVPIIDEI,2280,26,Female,White,United States,United States,United States,English,No,DATA_EXPIRED,Not Applicable
62bddb63d7c84ff6e9c592f5,"<b>If the political party I support messes up, it makes me think you can?t trust anyone these days",Highly disagree,55/94,Somewhat disagree,2,1708006832877,1708006839159,\Somewhat disagree\,\Somewhat disagree\,\2\,1708006838007,1708006838007,5130,5130,6282,buq,qns-item-noham,55,261064,0.0-1.0-0.54,65ce1c8b4072c5b4f0122053,AWAITING REVIEW,2024-02-15T14:15:43.987000Z,2024-02-15T14:25:40.330000Z,,2024-02-15T14:25:40.887385Z,597.0,CVPIIDEI,2280,26,Female,White,United States,United States,United States,English,No,DATA_EXPIRED,Not Applicable
62bddb63d7c84ff6e9c592f5,<b>People?s brains turn off when they talk about politics.,Highly disagree,56/94,Somewhat agree,3,1708006839160,1708006843936,\Somewhat agree\,\Somewhat agree\,\3\,1708006843572,1708006843572,4412,4412,4776,buq,qns-item-noham,56,265841,0.0-1.0-0.55,65ce1c8b4072c5b4f0122053,AWAITING REVIEW,2024-02-15T14:15:43.987000Z,2024-02-15T14:25:40.330000Z,,2024-02-15T14:25:40.887385Z,597.0,CVPIIDEI,2280,26,Female,White,United States,United States,United States,English,No,DATA_EXPIRED,Not Applicable
62bddb63d7c84ff6e9c592f5,<b>People who are wrong are usually just ignoring the obvious.,Highly disagree,57/94,Somewhat agree,3,1708006843939,1708006846151,\Somewhat agree\,\Somewhat agree\,\3\,1708006845707,1708006845707,1768,1768,2212,buq,qns-item-noham,57,268056,0.0-1.0-0.56,65ce1c8b4072c5b4f0122053,AWAITING REVIEW,2024-02-15T14:15:43.987000Z,2024-02-15T14:25:40.330000Z,,2024-02-15T14:25:40.887385Z,597.0,CVPIIDEI,2280,26,Female,White,United States,United States,United States,English,No,DATA_EXPIRED,Not Applicable
62bddb63d7c84ff6e9c592f5,"<b>When forming my views on people, I rely more on what they are like now rather than rely on my past experience with them.",Highly disagree,58/94,Somewhat disagree,2,1708006846154,1708006851875,\Somewhat disagree\,\Somewhat disagree\,\2\,1708006851402,1708006851402,5248,5248,5721,buq,qns-item-noham,58,273780,0.0-1.0-0.57,65ce1c8b4072c5b4f0122053,AWAITING REVIEW,2024-02-15T14:15:43.987000Z,2024-02-15T14:25:40.330000Z,,2024-02-15T14:25:40.887385Z,597.0,CVPIIDEI,2280,26,Female,White,United States,United States,United States,English,No,DATA_EXPIRED,Not Applicable
62bddb63d7c84ff6e9c592f5,"<b>When people contradict my beliefs, I usually know about their evidence already.",Highly disagree,59/94,Somewhat agree,3,1708006851878,1708006855661,\Somewhat agree\,\Somewhat agree\,\3\,1708006855251,1708006855251,3373,3373,3783,buq,qns-item-noham,59,277566,0.0-1.0-0.58,65ce1c8b4072c5b4f0122053,AWAITING REVIEW,2024-02-15T14:15:43.987000Z,2024-02-15T14:25:40.330000Z,,2024-02-15T14:25:40.887385Z,597.0,CVPIIDEI,2280,26,Female,White,United States,United States,United States,English,No,DATA_EXPIRED,Not Applicable
62bddb63d7c84ff6e9c592f5,<b>Figuring out what?s true and what?s false mainly requires a strong moral compass.,Highly disagree,60/94,Highly disagree,1,1708006855662,1708006861494,\Highly disagree\,\Highly disagree\,\1\,1708006860917,1708006860917,5255,5255,5832,buq,qns-item-noham,60,283399,0.0-1.0-0.59,65ce1c8b4072c5b4f0122053,AWAITING REVIEW,2024-02-15T14:15:43.987000Z,2024-02-15T14:25:40.330000Z,,2024-02-15T14:25:40.887385Z,597.0,CVPIIDEI,2280,26,Female,White,United States,United States,United States,English,No,DATA_EXPIRED,Not Applicable
62bddb63d7c84ff6e9c592f5,"<b>Usually I?m wrong about simple things, not complicated ones.",Highly disagree,61/94,Somewhat disagree,2,1708006861495,1708006865646,\Somewhat disagree\,\Somewhat disagree\,\2\,1708006865260,1708006865260,3765,3765,4151,buq,qns-item-noham,61,287551,0.0-1.0-0.60,65ce1c8b4072c5b4f0122053,AWAITING REVIEW,2024-02-15T14:15:43.987000Z,2024-02-15T14:25:40.330000Z,,2024-02-15T14:25:40.887385Z,597.0,CVPIIDEI,2280,26,Female,White,United States,United States,United States,English,No,DATA_EXPIRED,Not Applicable
62bddb63d7c84ff6e9c592f5,<b>Getting all the information I want about important things is hard.,Highly disagree,62/94,Somewhat disagree,2,1708006865647,1708006869078,\Somewhat disagree\,\Somewhat disagree\,\2\,1708006868679,1708006868679,3032,3032,3431,buq,qns-item-noham,62,290983,0.0-1.0-0.61,65ce1c8b4072c5b4f0122053,AWAITING REVIEW,2024-02-15T14:15:43.987000Z,2024-02-15T14:25:40.330000Z,,2024-02-15T14:25:40.887385Z,597.0,CVPIIDEI,2280,26,Female,White,United States,United States,United States,English,No,DATA_EXPIRED,Not Applicable
62bddb63d7c84ff6e9c592f5,<b>Most false beliefs spread because people try to deceive one another.,Highly disagree,63/94,Somewhat disagree,2,1708006869079,1708006872420,\Somewhat disagree\,\Somewhat disagree\,\2\,1708006872047,1708006872047,2968,2968,3341,buq,qns-item-noham,63,294325,0.0-1.0-0.62,65ce1c8b4072c5b4f0122053,AWAITING REVIEW,2024-02-15T14:15:43.987000Z,2024-02-15T14:25:40.330000Z,,2024-02-15T14:25:40.887385Z,597.0,CVPIIDEI,2280,26,Female,White,United States,United States,United States,English,No,DATA_EXPIRED,Not Applicable
62bddb63d7c84ff6e9c592f5,<b>I can usually find something to agree with in most people?s beliefs.,Highly disagree,64/94,Somewhat disagree,2,1708006872421,1708006876363,\Somewhat disagree\,\Somewhat disagree\,\2\,1708006875957,1708006875957,3536,3536,3942,buq,qns-item-noham,64,298268,0.0-1.0-0.63,65ce1c8b4072c5b4f0122053,AWAITING REVIEW,2024-02-15T14:15:43.987000Z,2024-02-15T14:25:40.330000Z,,2024-02-15T14:25:40.887385Z,597.0,CVPIIDEI,2280,26,Female,White,United States,United States,United States,English,No,DATA_EXPIRED,Not Applicable
62bddb63d7c84ff6e9c592f5,<b>I only form my views of people once I get to know them very well.,Highly disagree,65/94,Somewhat disagree,2,1708006876363,1708006879823,\Somewhat disagree\,\Somewhat disagree\,\2\,1708006879344,1708006879344,2981,2981,3460,buq,qns-item-noham,65,301728,0.0-1.0-0.64,65ce1c8b4072c5b4f0122053,AWAITING REVIEW,2024-02-15T14:15:43.987000Z,2024-02-15T14:25:40.330000Z,,2024-02-15T14:25:40.887385Z,597.0,CVPIIDEI,2280,26,Female,White,United States,United States,United States,English,No,DATA_EXPIRED,Not Applicable
62bddb63d7c84ff6e9c592f5,"<b>When people tell me important things about the world, I usually believe them.",Highly disagree,66/94,Somewhat disagree,2,1708006879824,1708006882955,\Somewhat disagree\,\Somewhat disagree\,\2\,1708006882524,1708006882524,2700,2700,3131,buq,qns-item-noham,66,304860,0.0-1.0-0.65,65ce1c8b4072c5b4f0122053,AWAITING REVIEW,2024-02-15T14:15:43.987000Z,2024-02-15T14:25:40.330000Z,,2024-02-15T14:25:40.887385Z,597.0,CVPIIDEI,2280,26,Female,White,United States,United States,United States,English,No,DATA_EXPIRED,Not Applicable
62bddb63d7c84ff6e9c592f5,"<b>If a friend does something that upsets me, it reminds me what an unpredictable place the world is.",Highly disagree,67/94,Somewhat disagree,2,1708006882956,1708006886303,\Somewhat disagree\,\Somewhat disagree\,\2\,1708006885921,1708006885921,2965,2965,3347,buq,qns-item-noham,67,308208,0.0-1.0-0.66,65ce1c8b4072c5b4f0122053,AWAITING REVIEW,2024-02-15T14:15:43.987000Z,2024-02-15T14:25:40.330000Z,,2024-02-15T14:25:40.887385Z,597.0,CVPIIDEI,2280,26,Female,White,United States,United States,United States,English,No,DATA_EXPIRED,Not Applicable
62bddb63d7c84ff6e9c592f5,<b>People tend to believe whatever is good for their friends.,Highly disagree,68/94,Somewhat agree,3,1708006886304,1708006889733,\Somewhat agree\,\Somewhat agree\,\3\,1708006889251,1708006889251,2947,2947,3429,buq,qns-item-noham,68,311638,0.0-1.0-0.67,65ce1c8b4072c5b4f0122053,AWAITING REVIEW,2024-02-15T14:15:43.987000Z,2024-02-15T14:25:40.330000Z,,2024-02-15T14:25:40.887385Z,597.0,CVPIIDEI,2280,26,Female,White,United States,United States,United States,English,No,DATA_EXPIRED,Not Applicable
62bddb63d7c84ff6e9c592f5,<b>I used to be more certain my beliefs were true.,Highly disagree,69/94,Somewhat disagree,2,1708006889734,1708006895151,\Somewhat agree\,\Somewhat disagree\,\3\,1708006893124,1708006894226,3390,4492,5417,buq,qns-item-noham,69,317057,0.0-1.0-0.68,65ce1c8b4072c5b4f0122053,AWAITING REVIEW,2024-02-15T14:15:43.987000Z,2024-02-15T14:25:40.330000Z,,2024-02-15T14:25:40.887385Z,597.0,CVPIIDEI,2280,26,Female,White,United States,United States,United States,English,No,DATA_EXPIRED,Not Applicable
62bddb63d7c84ff6e9c592f5,<b>It?s often pretty easy to figure out whether something is true based on who said it.,Highly disagree,70/94,Somewhat agree,3,1708006895153,1708006902150,\Somewhat disagree\,\Somewhat agree\,\2\,1708006900816,1708006901734,5663,6581,6997,buq,qns-item-noham,70,324056,0.0-1.0-0.69,65ce1c8b4072c5b4f0122053,AWAITING REVIEW,2024-02-15T14:15:43.987000Z,2024-02-15T14:25:40.330000Z,,2024-02-15T14:25:40.887385Z,597.0,CVPIIDEI,2280,26,Female,White,United States,United States,United States,English,No,DATA_EXPIRED,Not Applicable
62bddb63d7c84ff6e9c592f5,<b>I transform into a hummingbird every day.,Highly disagree,71/94,Highly disagree,1,1708006902152,1708006904984,\Highly disagree\,\Highly disagree\,\1\,1708006904045,1708006904045,1893,1893,2832,buq,qns-item-noham,71,326889,0.0-1.0-0.70,65ce1c8b4072c5b4f0122053,AWAITING REVIEW,2024-02-15T14:15:43.987000Z,2024-02-15T14:25:40.330000Z,,2024-02-15T14:25:40.887385Z,597.0,CVPIIDEI,2280,26,Female,White,United States,United States,United States,English,No,DATA_EXPIRED,Not Applicable
62bddb63d7c84ff6e9c592f5,<b>I think a lot about arguments against my views.,Highly disagree,72/94,Somewhat agree,3,1708006904985,1708006908149,\Somewhat agree\,\Somewhat agree\,\3\,1708006907728,1708006907728,2743,2743,3164,buq,qns-item-noham,72,330054,0.0-1.0-0.71,65ce1c8b4072c5b4f0122053,AWAITING REVIEW,2024-02-15T14:15:43.987000Z,2024-02-15T14:25:40.330000Z,,2024-02-15T14:25:40.887385Z,597.0,CVPIIDEI,2280,26,Female,White,United States,United States,United States,English,No,DATA_EXPIRED,Not Applicable
62bddb63d7c84ff6e9c592f5,<b>Personal experience is usually more important than facts and figures.,Highly disagree,73/94,Somewhat disagree,2,1708006908152,1708006912616,\Highly disagree\,\Somewhat disagree\,\1\,1708006911389,1708006912070,3237,3918,4464,buq,qns-item-noham,73,334521,0.0-1.0-0.72,65ce1c8b4072c5b4f0122053,AWAITING REVIEW,2024-02-15T14:15:43.987000Z,2024-02-15T14:25:40.330000Z,,2024-02-15T14:25:40.887385Z,597.0,CVPIIDEI,2280,26,Female,White,United States,United States,United States,English,No,DATA_EXPIRED,Not Applicable
62bddb63d7c84ff6e9c592f5,<b>I?ve been tricked before about important matters.,Highly disagree,74/94,Somewhat agree,3,1708006912618,1708006915458,\Somewhat agree\,\Somewhat agree\,\3\,1708006915047,1708006915047,2429,2429,2840,buq,qns-item-noham,74,337363,0.0-1.0-0.73,65ce1c8b4072c5b4f0122053,AWAITING REVIEW,2024-02-15T14:15:43.987000Z,2024-02-15T14:25:40.330000Z,,2024-02-15T14:25:40.887385Z,597.0,CVPIIDEI,2280,26,Female,White,United States,United States,United States,English,No,DATA_EXPIRED,Not Applicable
62bddb63d7c84ff6e9c592f5,<b>I would need to be totally wowed if I were to change my opinion of a restaurant I don?t like.,Highly disagree,75/94,Somewhat disagree,2,1708006915459,1708006919944,\Somewhat disagree\,\Somewhat disagree\,\2\,1708006919533,1708006919533,4074,4074,4485,buq,qns-item-noham,75,341849,0.0-1.0-0.74,65ce1c8b4072c5b4f0122053,AWAITING REVIEW,2024-02-15T14:15:43.987000Z,2024-02-15T14:25:40.330000Z,,2024-02-15T14:25:40.887385Z,597.0,CVPIIDEI,2280,26,Female,White,United States,United States,United States,English,No,DATA_EXPIRED,Not Applicable
62bddb63d7c84ff6e9c592f5,<b>I care a lot about politics.,Highly disagree,76/94,Highly agree,4,1708006919946,1708006921700,\Highly agree\,\Highly agree\,\4\,1708006921273,1708006921273,1327,1327,1754,buq,qns-item-noham,76,343605,0.0-1.0-0.75,65ce1c8b4072c5b4f0122053,AWAITING REVIEW,2024-02-15T14:15:43.987000Z,2024-02-15T14:25:40.330000Z,,2024-02-15T14:25:40.887385Z,597.0,CVPIIDEI,2280,26,Female,White,United States,United States,United States,English,No,DATA_EXPIRED,Not Applicable
62bddb63d7c84ff6e9c592f5,<b>There are some topics I?ve been really wrong about.,Highly disagree,77/94,Highly agree,4,1708006921701,1708006924158,\Highly agree\,\Highly agree\,\4\,1708006923789,1708006923789,2088,2088,2457,buq,qns-item-noham,77,346063,0.0-1.0-0.76,65ce1c8b4072c5b4f0122053,AWAITING REVIEW,2024-02-15T14:15:43.987000Z,2024-02-15T14:25:40.330000Z,,2024-02-15T14:25:40.887385Z,597.0,CVPIIDEI,2280,26,Female,White,United States,United States,United States,English,No,DATA_EXPIRED,Not Applicable
62bddb63d7c84ff6e9c592f5,<b>Most beliefs can be supported with at least some evidence.,Highly disagree,78/94,Highly agree,4,1708006924159,1708006926823,\Highly agree\,\Highly agree\,\4\,1708006926470,1708006926470,2311,2311,2664,buq,qns-item-noham,78,348728,0.0-1.0-0.77,65ce1c8b4072c5b4f0122053,AWAITING REVIEW,2024-02-15T14:15:43.987000Z,2024-02-15T14:25:40.330000Z,,2024-02-15T14:25:40.887385Z,597.0,CVPIIDEI,2280,26,Female,White,United States,United States,United States,English,No,DATA_EXPIRED,Not Applicable
62bddb63d7c84ff6e9c592f5,<b>Other people make life out to be more complicated than it really is.,Highly disagree,79/94,Somewhat agree,3,1708006926824,1708006929918,\Somewhat agree\,\Somewhat agree\,\3\,1708006929552,1708006929552,2728,2728,3094,buq,qns-item-noham,79,351823,0.0-1.0-0.78,65ce1c8b4072c5b4f0122053,AWAITING REVIEW,2024-02-15T14:15:43.987000Z,2024-02-15T14:25:40.330000Z,,2024-02-15T14:25:40.887385Z,597.0,CVPIIDEI,2280,26,Female,White,United States,United States,United States,English,No,DATA_EXPIRED,Not Applicable
62bddb63d7c84ff6e9c592f5,"<b>Policy details don?t matter much, just the big picture.",Highly disagree,80/94,Highly disagree,1,1708006929919,1708006933403,\Highly disagree\,\Highly disagree\,\1\,1708006932948,1708006932948,3029,3029,3484,buq,qns-item-noham,80,355308,0.0-1.0-0.79,65ce1c8b4072c5b4f0122053,AWAITING REVIEW,2024-02-15T14:15:43.987000Z,2024-02-15T14:25:40.330000Z,,2024-02-15T14:25:40.887385Z,597.0,CVPIIDEI,2280,26,Female,White,United States,United States,United States,English,No,DATA_EXPIRED,Not Applicable
62bddb63d7c84ff6e9c592f5,<b>I know my friends so well they can hardly ever surprise me.,Highly disagree,81/94,Somewhat agree,3,1708006933404,1708006935646,\Somewhat agree\,\Somewhat agree\,\3\,1708006935300,1708006935300,1896,1896,2242,buq,qns-item-noham,81,357551,0.0-1.0-0.80,65ce1c8b4072c5b4f0122053,AWAITING REVIEW,2024-02-15T14:15:43.987000Z,2024-02-15T14:25:40.330000Z,,2024-02-15T14:25:40.887385Z,597.0,CVPIIDEI,2280,26,Female,White,United States,United States,United States,English,No,DATA_EXPIRED,Not Applicable
62bddb63d7c84ff6e9c592f5,<b>I do not often change my views on people.,Highly disagree,82/94,Somewhat agree,3,1708006935647,1708006937882,\Somewhat agree\,\Somewhat agree\,\3\,1708006937430,1708006937430,1783,1783,2235,buq,qns-item-noham,82,359787,0.0-1.0-0.81,65ce1c8b4072c5b4f0122053,AWAITING REVIEW,2024-02-15T14:15:43.987000Z,2024-02-15T14:25:40.330000Z,,2024-02-15T14:25:40.887385Z,597.0,CVPIIDEI,2280,26,Female,White,United States,United States,United States,English,No,DATA_EXPIRED,Not Applicable
62bddb63d7c84ff6e9c592f5,<b>I?m more certain about my beliefs than I used to be.,Highly disagree,83/94,Highly agree,4,1708006937883,1708006940261,\Highly agree\,\Highly agree\,\4\,1708006939839,1708006939839,1956,1956,2378,buq,qns-item-noham,83,362166,0.0-1.0-0.82,65ce1c8b4072c5b4f0122053,AWAITING REVIEW,2024-02-15T14:15:43.987000Z,2024-02-15T14:25:40.330000Z,,2024-02-15T14:25:40.887385Z,597.0,CVPIIDEI,2280,26,Female,White,United States,United States,United States,English,No,DATA_EXPIRED,Not Applicable
62bddb63d7c84ff6e9c592f5,<b>People often tell falsehoods unintentionally.,Highly disagree,84/94,Somewhat agree,3,1708006940263,1708006943624,\Somewhat agree\,\Somewhat agree\,\3\,1708006943238,1708006943238,2975,2975,3361,buq,qns-item-noham,84,365529,0.0-1.0-0.83,65ce1c8b4072c5b4f0122053,AWAITING REVIEW,2024-02-15T14:15:43.987000Z,2024-02-15T14:25:40.330000Z,,2024-02-15T14:25:40.887385Z,597.0,CVPIIDEI,2280,26,Female,White,United States,United States,United States,English,No,DATA_EXPIRED,Not Applicable
62bddb63d7c84ff6e9c592f5,<b>Most people don?t know much about most things.,Highly disagree,85/94,Somewhat agree,3,1708006943625,1708006946826,\Somewhat agree\,\Somewhat agree\,\3\,1708006946358,1708006946358,2733,2733,3201,buq,qns-item-noham,85,368731,0.0-1.0-0.84,65ce1c8b4072c5b4f0122053,AWAITING REVIEW,2024-02-15T14:15:43.987000Z,2024-02-15T14:25:40.330000Z,,2024-02-15T14:25:40.887385Z,597.0,CVPIIDEI,2280,26,Female,White,United States,United States,United States,English,No,DATA_EXPIRED,Not Applicable
62bddb63d7c84ff6e9c592f5,"<b>If I find out something new about someone, I easily change my views about them.",Highly disagree,86/94,Somewhat disagree,2,1708006946828,1708006951301,\Somewhat agree\,\Somewhat disagree\,\3\,1708006950063,1708006950689,3235,3861,4473,buq,qns-item-noham,86,373206,0.0-1.0-0.85,65ce1c8b4072c5b4f0122053,AWAITING REVIEW,2024-02-15T14:15:43.987000Z,2024-02-15T14:25:40.330000Z,,2024-02-15T14:25:40.887385Z,597.0,CVPIIDEI,2280,26,Female,White,United States,United States,United States,English,No,DATA_EXPIRED,Not Applicable
62bddb63d7c84ff6e9c592f5,<b>Having true beliefs is difficult.,Highly disagree,87/94,Somewhat agree,3,1708006951302,1708006954395,\Somewhat agree\,\Somewhat agree\,\3\,1708006953717,1708006953717,2415,2415,3093,buq,qns-item-noham,87,376300,0.0-1.0-0.86,65ce1c8b4072c5b4f0122053,AWAITING REVIEW,2024-02-15T14:15:43.987000Z,2024-02-15T14:25:40.330000Z,,2024-02-15T14:25:40.887385Z,597.0,CVPIIDEI,2280,26,Female,White,United States,United States,United States,English,No,DATA_EXPIRED,Not Applicable
62bddb63d7c84ff6e9c592f5,<b>I don?t try new foods since I know I won?t like them.,Highly disagree,88/94,Highly disagree,1,1708006954396,1708006956551,\Highly disagree\,\Highly disagree\,\1\,1708006956117,1708006956117,1721,1721,2155,buq,qns-item-noham,88,378456,0.0-1.0-0.87,65ce1c8b4072c5b4f0122053,AWAITING REVIEW,2024-02-15T14:15:43.987000Z,2024-02-15T14:25:40.330000Z,,2024-02-15T14:25:40.887385Z,597.0,CVPIIDEI,2280,26,Female,White,United States,United States,United States,English,No,DATA_EXPIRED,Not Applicable
62bddb63d7c84ff6e9c592f5,<b>Other people trick each other a lot.,Highly disagree,89/94,Somewhat agree,3,1708006956552,1708006958831,\Somewhat agree\,\Somewhat agree\,\3\,1708006958475,1708006958475,1923,1923,2279,buq,qns-item-noham,89,380736,0.0-1.0-0.88,65ce1c8b4072c5b4f0122053,AWAITING REVIEW,2024-02-15T14:15:43.987000Z,2024-02-15T14:25:40.330000Z,,2024-02-15T14:25:40.887385Z,597.0,CVPIIDEI,2280,26,Female,White,United States,United States,United States,English,No,DATA_EXPIRED,Not Applicable
62bddb63d7c84ff6e9c592f5,<b>I would need to learn a lot about a person for my opinion of them to be swayed.,Highly disagree,90/94,Somewhat disagree,2,1708006958832,1708006964215,\Somewhat disagree\,\Somewhat disagree\,\2\,1708006963817,1708006963817,4985,4985,5383,buq,qns-item-noham,90,386120,0.0-1.0-0.89,65ce1c8b4072c5b4f0122053,AWAITING REVIEW,2024-02-15T14:15:43.987000Z,2024-02-15T14:25:40.330000Z,,2024-02-15T14:25:40.887385Z,597.0,CVPIIDEI,2280,26,Female,White,United States,United States,United States,English,No,DATA_EXPIRED,Not Applicable
62bddb63d7c84ff6e9c592f5,<b>People can?t usually trick me when it comes to topics I care about.,Highly disagree,91/94,Somewhat agree,3,1708006964216,1708006968044,\Somewhat agree\,\Somewhat agree\,\3\,1708006967189,1708006967189,2973,2973,3828,buq,qns-item-noham,91,389949,0.0-1.0-0.90,65ce1c8b4072c5b4f0122053,AWAITING REVIEW,2024-02-15T14:15:43.987000Z,2024-02-15T14:25:40.330000Z,,2024-02-15T14:25:40.887385Z,597.0,CVPIIDEI,2280,26,Female,White,United States,United States,United States,English,No,DATA_EXPIRED,Not Applicable
62bddb63d7c84ff6e9c592f5,<b>I do not often change my views on food.,Highly disagree,92/94,Somewhat agree,3,1708006968045,1708006970334,\Somewhat agree\,\Somewhat agree\,\3\,1708006969937,1708006969937,1892,1892,2289,buq,qns-item-noham,92,392239,0.0-1.0-0.91,65ce1c8b4072c5b4f0122053,AWAITING REVIEW,2024-02-15T14:15:43.987000Z,2024-02-15T14:25:40.330000Z,,2024-02-15T14:25:40.887385Z,597.0,CVPIIDEI,2280,26,Female,White,United States,United States,United States,English,No,DATA_EXPIRED,Not Applicable
62bddb63d7c84ff6e9c592f5,<b>Specific policies are often very important to me.,Highly disagree,93/94,Highly agree,4,1708006970335,1708006972681,\Highly agree\,\Highly agree\,\4\,1708006972219,1708006972219,1884,1884,2346,buq,qns-item-noham,93,394586,0.0-1.0-0.92,65ce1c8b4072c5b4f0122053,AWAITING REVIEW,2024-02-15T14:15:43.987000Z,2024-02-15T14:25:40.330000Z,,2024-02-15T14:25:40.887385Z,597.0,CVPIIDEI,2280,26,Female,White,United States,United States,United States,English,No,DATA_EXPIRED,Not Applicable
62bddb63d7c84ff6e9c592f5,<b>Most people are woefully under-informed.,Highly disagree,94/94,Highly agree,4,1708006972684,1708006974966,\Highly agree\,\Highly agree\,\4\,1708006974550,1708006974550,1866,1866,2282,buq,qns-item-noham,94,396871,0.0-1.0-0.93,65ce1c8b4072c5b4f0122053,AWAITING REVIEW,2024-02-15T14:15:43.987000Z,2024-02-15T14:25:40.330000Z,,2024-02-15T14:25:40.887385Z,597.0,CVPIIDEI,2280,26,Female,White,United States,United States,United States,English,No,DATA_EXPIRED,Not Applicable
62bddb63d7c84ff6e9c592f5,,,,,,,,,,,,,,,,,,,,,65ce1c8b4072c5b4f0122053,AWAITING REVIEW,2024-02-15T14:15:43.987000Z,2024-02-15T14:25:40.330000Z,,2024-02-15T14:25:40.887385Z,597.0,CVPIIDEI,2280,26,Female,White,United States,United States,United States,English,No,DATA_EXPIRED,Not Applicable
