PROLIFIC_PID,Question,qns_options,quest_num,answer,answer_num,question_load_timestamp,next_btn_timestamp,text_selected,final_text_selected,option_num_selected,preview_timestamps,final_text_selected_time_stamp,rt_first_option_click,rt_final_option_click,rt_submit_click,questionnaire,trial_type,trial_index,time_elapsed,internal_node_id,Demographic_Submission id,Demographic_Status,Demographic_Started at,Demographic_Completed at,Demographic_Reviewed at,Demographic_Archived at,Demographic_Time taken,Demographic_Completion code,Demographic_Total approvals,Demographic_Age,Demographic_Sex,Demographic_Ethnicity simplified,Demographic_Country of birth,Demographic_Country of residence,Demographic_Nationality,Demographic_Language,Demographic_Student status,Demographic_Employment status,Demographic_Custom study tncs accepted at
65bf6216a0a777aeef0378fc,<b>Knowing what?s true and knowing what to do about it are usually basically the same.,Highly disagree,1/94,Highly agree,4,1708006659620,1708006673788,\Highly agree\,\Highly agree\,\4\,1708006672504,1708006672504,12884,12884,14168,buq,qns-item-noham,1,90033,0.0-1.0-0.0,65ce1c5a9c60c1f0df87a325,AWAITING REVIEW,2024-02-15T14:14:57.378000Z,2024-02-15T14:30:45.788000Z,,2024-02-15T14:30:46.596276Z,949.0,CVPIIDEI,2,26,Female,Black,United States,United States,United States,English,No,Full-Time,Not Applicable
65bf6216a0a777aeef0378fc,<b>Most people just believe whatever is convenient for them.,Highly disagree,2/94,Highly agree,4,1708006673810,1708006682788,\Somewhat agree\,\Highly agree\,\3\,1708006680559,1708006682059,6749,8249,8978,buq,qns-item-noham,2,99034,0.0-1.0-0.1,65ce1c5a9c60c1f0df87a325,AWAITING REVIEW,2024-02-15T14:14:57.378000Z,2024-02-15T14:30:45.788000Z,,2024-02-15T14:30:46.596276Z,949.0,CVPIIDEI,2,26,Female,Black,United States,United States,United States,English,No,Full-Time,Not Applicable
65bf6216a0a777aeef0378fc,<b>Having some big beliefs helps me sort out minor ones.,Highly disagree,3/94,Somewhat agree,3,1708006682794,1708006697337,\Somewhat agree\,\Somewhat agree\,\3\,1708006692229,1708006692229,9435,9435,14543,buq,qns-item-noham,3,113582,0.0-1.0-0.2,65ce1c5a9c60c1f0df87a325,AWAITING REVIEW,2024-02-15T14:14:57.378000Z,2024-02-15T14:30:45.788000Z,,2024-02-15T14:30:46.596276Z,949.0,CVPIIDEI,2,26,Female,Black,United States,United States,United States,English,No,Full-Time,Not Applicable
65bf6216a0a777aeef0378fc,<b>Political questions are usually pretty complicated.,Highly disagree,4/94,Highly agree,4,1708006697347,1708006705355,\Somewhat agree\,\Highly agree\,\3\,1708006703142,1708006704172,5795,6825,8008,buq,qns-item-noham,4,121600,0.0-1.0-0.3,65ce1c5a9c60c1f0df87a325,AWAITING REVIEW,2024-02-15T14:14:57.378000Z,2024-02-15T14:30:45.788000Z,,2024-02-15T14:30:46.596276Z,949.0,CVPIIDEI,2,26,Female,Black,United States,United States,United States,English,No,Full-Time,Not Applicable
65bf6216a0a777aeef0378fc,<b>Figuring out what?s important in life requires learning a lot of facts.,Highly disagree,5/94,Highly agree,4,1708006705362,1708006711213,\Highly agree\,\Highly agree\,\4\,1708006710305,1708006710305,4943,4943,5851,buq,qns-item-noham,5,127459,0.0-1.0-0.4,65ce1c5a9c60c1f0df87a325,AWAITING REVIEW,2024-02-15T14:14:57.378000Z,2024-02-15T14:30:45.788000Z,,2024-02-15T14:30:46.596276Z,949.0,CVPIIDEI,2,26,Female,Black,United States,United States,United States,English,No,Full-Time,Not Applicable
65bf6216a0a777aeef0378fc,<b>It is difficult for me to remember the last time I was surprised by politics.,Highly disagree,6/94,Somewhat agree,3,1708006711221,1708006718571,\Somewhat agree\,\Somewhat agree\,\3\,1708006717692,1708006717692,6471,6471,7350,buq,qns-item-noham,6,134816,0.0-1.0-0.5,65ce1c5a9c60c1f0df87a325,AWAITING REVIEW,2024-02-15T14:14:57.378000Z,2024-02-15T14:30:45.788000Z,,2024-02-15T14:30:46.596276Z,949.0,CVPIIDEI,2,26,Female,Black,United States,United States,United States,English,No,Full-Time,Not Applicable
65bf6216a0a777aeef0378fc,<b>People?s false beliefs are understandable.,Highly disagree,7/94,Somewhat agree,3,1708006718577,1708006723464,\Somewhat agree\,\Somewhat agree\,\3\,1708006722733,1708006722733,4156,4156,4887,buq,qns-item-noham,7,139710,0.0-1.0-0.6,65ce1c5a9c60c1f0df87a325,AWAITING REVIEW,2024-02-15T14:14:57.378000Z,2024-02-15T14:30:45.788000Z,,2024-02-15T14:30:46.596276Z,949.0,CVPIIDEI,2,26,Female,Black,United States,United States,United States,English,No,Full-Time,Not Applicable
65bf6216a0a777aeef0378fc,<b>I spend a lot of time trying to be informed about politics.,Highly disagree,8/94,Somewhat disagree,2,1708006723471,1708006728957,\Somewhat agree\,\Somewhat disagree\,\3\,1708006726886,1708006727719,3415,4248,5486,buq,qns-item-noham,8,145202,0.0-1.0-0.7,65ce1c5a9c60c1f0df87a325,AWAITING REVIEW,2024-02-15T14:14:57.378000Z,2024-02-15T14:30:45.788000Z,,2024-02-15T14:30:46.596276Z,949.0,CVPIIDEI,2,26,Female,Black,United States,United States,United States,English,No,Full-Time,Not Applicable
65bf6216a0a777aeef0378fc,<b>I think a lot about whether my beliefs are right.,Highly disagree,9/94,Somewhat agree,3,1708006728965,1708006747752,\Somewhat agree\,\Somewhat agree\,\3\,1708006742404,1708006742404,13439,13439,18787,buq,qns-item-noham,9,163997,0.0-1.0-0.8,65ce1c5a9c60c1f0df87a325,AWAITING REVIEW,2024-02-15T14:14:57.378000Z,2024-02-15T14:30:45.788000Z,,2024-02-15T14:30:46.596276Z,949.0,CVPIIDEI,2,26,Female,Black,United States,United States,United States,English,No,Full-Time,Not Applicable
65bf6216a0a777aeef0378fc,<b>Statistics can be pretty misleading sometimes.,Highly disagree,10/94,Somewhat disagree,2,1708006747758,1708006755739,\Somewhat disagree\,\Somewhat disagree\,\2\,1708006754816,1708006754816,7058,7058,7981,buq,qns-item-noham,10,171984,0.0-1.0-0.9,65ce1c5a9c60c1f0df87a325,AWAITING REVIEW,2024-02-15T14:14:57.378000Z,2024-02-15T14:30:45.788000Z,,2024-02-15T14:30:46.596276Z,949.0,CVPIIDEI,2,26,Female,Black,United States,United States,United States,English,No,Full-Time,Not Applicable
65bf6216a0a777aeef0378fc,<b>I have lots of beliefs that I?m only sort of sure about.,Highly disagree,11/94,Somewhat disagree,2,1708006755745,1708006765234,\Somewhat disagree\,\Somewhat disagree\,\2\,1708006763869,1708006763869,8124,8124,9489,buq,qns-item-noham,11,181479,0.0-1.0-0.10,65ce1c5a9c60c1f0df87a325,AWAITING REVIEW,2024-02-15T14:14:57.378000Z,2024-02-15T14:30:45.788000Z,,2024-02-15T14:30:46.596276Z,949.0,CVPIIDEI,2,26,Female,Black,United States,United States,United States,English,No,Full-Time,Not Applicable
65bf6216a0a777aeef0378fc,"<b>If I go to my favorite restaurant and the food is surprisingly bad, it reminds me there are many disappointments in life.",Highly disagree,12/94,Highly agree,4,1708006765240,1708006777370,\Highly agree\,\Highly agree\,\4\,1708006776417,1708006776417,11177,11177,12130,buq,qns-item-noham,12,193615,0.0-1.0-0.11,65ce1c5a9c60c1f0df87a325,AWAITING REVIEW,2024-02-15T14:14:57.378000Z,2024-02-15T14:30:45.788000Z,,2024-02-15T14:30:46.596276Z,949.0,CVPIIDEI,2,26,Female,Black,United States,United States,United States,English,No,Full-Time,Not Applicable
65bf6216a0a777aeef0378fc,"<b>If you are paying attention, please select ?Somewhat agree?",Highly disagree,13/94,Somewhat agree,3,1708006777378,1708006789384,\Somewhat agree\,\Somewhat agree\,\3\,1708006787651,1708006787651,10273,10273,12006,buq,qns-item-noham,13,205629,0.0-1.0-0.12,65ce1c5a9c60c1f0df87a325,AWAITING REVIEW,2024-02-15T14:14:57.378000Z,2024-02-15T14:30:45.788000Z,,2024-02-15T14:30:46.596276Z,949.0,CVPIIDEI,2,26,Female,Black,United States,United States,United States,English,No,Full-Time,Not Applicable
65bf6216a0a777aeef0378fc,"<b>When I talk to others, I often worry I?ll convince them of something I didn?t mean to.",Highly disagree,14/94,Somewhat disagree,2,1708006789389,1708006806380,\Somewhat disagree\,\Somewhat disagree\,\2\,1708006805621,1708006805621,16232,16232,16991,buq,qns-item-noham,14,222625,0.0-1.0-0.13,65ce1c5a9c60c1f0df87a325,AWAITING REVIEW,2024-02-15T14:14:57.378000Z,2024-02-15T14:30:45.788000Z,,2024-02-15T14:30:46.596276Z,949.0,CVPIIDEI,2,26,Female,Black,United States,United States,United States,English,No,Full-Time,Not Applicable
65bf6216a0a777aeef0378fc,<b>I would need to learn something utterly shocking about my party in order to change my political views.,Highly disagree,15/94,Somewhat agree,3,1708006806384,1708006813983,\Somewhat agree\,\Somewhat agree\,\3\,1708006812777,1708006812777,6393,6393,7599,buq,qns-item-noham,15,230228,0.0-1.0-0.14,65ce1c5a9c60c1f0df87a325,AWAITING REVIEW,2024-02-15T14:14:57.378000Z,2024-02-15T14:30:45.788000Z,,2024-02-15T14:30:46.596276Z,949.0,CVPIIDEI,2,26,Female,Black,United States,United States,United States,English,No,Full-Time,Not Applicable
65bf6216a0a777aeef0378fc,"<b>When I have new experiences, I tend to think of them as unique.",Highly disagree,16/94,Somewhat agree,3,1708006813988,1708006819924,\Somewhat agree\,\Somewhat agree\,\3\,1708006819038,1708006819038,5050,5050,5936,buq,qns-item-noham,16,236169,0.0-1.0-0.15,65ce1c5a9c60c1f0df87a325,AWAITING REVIEW,2024-02-15T14:14:57.378000Z,2024-02-15T14:30:45.788000Z,,2024-02-15T14:30:46.596276Z,949.0,CVPIIDEI,2,26,Female,Black,United States,United States,United States,English,No,Full-Time,Not Applicable
65bf6216a0a777aeef0378fc,<b>I change my mind about specific policies pretty frequently.,Highly disagree,17/94,Somewhat agree,3,1708006819928,1708006825639,\Somewhat agree\,\Somewhat agree\,\3\,1708006824836,1708006824836,4908,4908,5711,buq,qns-item-noham,17,241884,0.0-1.0-0.16,65ce1c5a9c60c1f0df87a325,AWAITING REVIEW,2024-02-15T14:14:57.378000Z,2024-02-15T14:30:45.788000Z,,2024-02-15T14:30:46.596276Z,949.0,CVPIIDEI,2,26,Female,Black,United States,United States,United States,English,No,Full-Time,Not Applicable
65bf6216a0a777aeef0378fc,"<b>If a politician in my political party supports something I disagree with, I give them the benefit of the doubt, as such issues often involve hidden complexities that aren?t obvious.   ",Highly disagree,18/94,Somewhat agree,3,1708006825643,1708006839215,\Somewhat agree\,\Somewhat agree\,\3\,1708006837916,1708006837916,12273,12273,13572,buq,qns-item-noham,18,255460,0.0-1.0-0.17,65ce1c5a9c60c1f0df87a325,AWAITING REVIEW,2024-02-15T14:14:57.378000Z,2024-02-15T14:30:45.788000Z,,2024-02-15T14:30:46.596276Z,949.0,CVPIIDEI,2,26,Female,Black,United States,United States,United States,English,No,Full-Time,Not Applicable
65bf6216a0a777aeef0378fc,<b>People?s bad politics are usually motivated by hatefulness.,Highly disagree,19/94,Somewhat disagree,2,1708006839219,1708006843174,\Somewhat disagree\,\Somewhat disagree\,\2\,1708006841734,1708006841734,2515,2515,3955,buq,qns-item-noham,19,259419,0.0-1.0-0.18,65ce1c5a9c60c1f0df87a325,AWAITING REVIEW,2024-02-15T14:14:57.378000Z,2024-02-15T14:30:45.788000Z,,2024-02-15T14:30:46.596276Z,949.0,CVPIIDEI,2,26,Female,Black,United States,United States,United States,English,No,Full-Time,Not Applicable
65bf6216a0a777aeef0378fc,<b>I think a lot about how to reconcile my beliefs with one another.,Highly disagree,20/94,Somewhat agree,3,1708006843184,1708006846962,\Somewhat agree\,\Somewhat agree\,\3\,1708006846030,1708006846030,2846,2846,3778,buq,qns-item-noham,20,263207,0.0-1.0-0.19,65ce1c5a9c60c1f0df87a325,AWAITING REVIEW,2024-02-15T14:14:57.378000Z,2024-02-15T14:30:45.788000Z,,2024-02-15T14:30:46.596276Z,949.0,CVPIIDEI,2,26,Female,Black,United States,United States,United States,English,No,Full-Time,Not Applicable
65bf6216a0a777aeef0378fc,<b>I might have false beliefs about important topics.,Highly disagree,21/94,Somewhat disagree,2,1708006846967,1708006849721,\Somewhat disagree\,\Somewhat disagree\,\2\,1708006848994,1708006848994,2027,2027,2754,buq,qns-item-noham,21,265966,0.0-1.0-0.20,65ce1c5a9c60c1f0df87a325,AWAITING REVIEW,2024-02-15T14:14:57.378000Z,2024-02-15T14:30:45.788000Z,,2024-02-15T14:30:46.596276Z,949.0,CVPIIDEI,2,26,Female,Black,United States,United States,United States,English,No,Full-Time,Not Applicable
65bf6216a0a777aeef0378fc,"<b>If a good friend of mine does something unexpected that upsets me, I feel like I don?t know them anymore.",Highly disagree,22/94,Somewhat agree,3,1708006849728,1708006853201,\Somewhat agree\,\Somewhat agree\,\3\,1708006852278,1708006852278,2550,2550,3473,buq,qns-item-noham,22,269446,0.0-1.0-0.21,65ce1c5a9c60c1f0df87a325,AWAITING REVIEW,2024-02-15T14:14:57.378000Z,2024-02-15T14:30:45.788000Z,,2024-02-15T14:30:46.596276Z,949.0,CVPIIDEI,2,26,Female,Black,United States,United States,United States,English,No,Full-Time,Not Applicable
65bf6216a0a777aeef0378fc,<b>Other people?s beliefs are often incoherent.,Highly disagree,23/94,Somewhat agree,3,1708006853215,1708006856705,\Somewhat agree\,\Somewhat agree\,\3\,1708006855316,1708006855316,2101,2101,3490,buq,qns-item-noham,23,272950,0.0-1.0-0.22,65ce1c5a9c60c1f0df87a325,AWAITING REVIEW,2024-02-15T14:14:57.378000Z,2024-02-15T14:30:45.788000Z,,2024-02-15T14:30:46.596276Z,949.0,CVPIIDEI,2,26,Female,Black,United States,United States,United States,English,No,Full-Time,Not Applicable
65bf6216a0a777aeef0378fc,"<b>Every now and then, a new experience will unsettle beliefs I?ve had for a while.",Highly disagree,24/94,Somewhat disagree,2,1708006856711,1708006860184,\Somewhat disagree\,\Somewhat disagree\,\2\,1708006859480,1708006859480,2769,2769,3473,buq,qns-item-noham,24,276429,0.0-1.0-0.23,65ce1c5a9c60c1f0df87a325,AWAITING REVIEW,2024-02-15T14:14:57.378000Z,2024-02-15T14:30:45.788000Z,,2024-02-15T14:30:46.596276Z,949.0,CVPIIDEI,2,26,Female,Black,United States,United States,United States,English,No,Full-Time,Not Applicable
65bf6216a0a777aeef0378fc,<b>Some policies I agree with in principle are so bad I don?t support them. ,Highly disagree,25/94,Somewhat agree,3,1708006860190,1708006868952,\Somewhat agree\,\Somewhat agree\,\3\,1708006867930,1708006867930,7740,7740,8762,buq,qns-item-noham,25,285197,0.0-1.0-0.24,65ce1c5a9c60c1f0df87a325,AWAITING REVIEW,2024-02-15T14:14:57.378000Z,2024-02-15T14:30:45.788000Z,,2024-02-15T14:30:46.596276Z,949.0,CVPIIDEI,2,26,Female,Black,United States,United States,United States,English,No,Full-Time,Not Applicable
65bf6216a0a777aeef0378fc,<b>I?m pretty sure I?ve accidentally spread false information.,Highly disagree,26/94,Somewhat disagree,2,1708006868959,1708006879789,\Somewhat disagree\,\Somewhat disagree\,\2\,1708006879046,1708006879046,10087,10087,10830,buq,qns-item-noham,26,296034,0.0-1.0-0.25,65ce1c5a9c60c1f0df87a325,AWAITING REVIEW,2024-02-15T14:14:57.378000Z,2024-02-15T14:30:45.788000Z,,2024-02-15T14:30:46.596276Z,949.0,CVPIIDEI,2,26,Female,Black,United States,United States,United States,English,No,Full-Time,Not Applicable
65bf6216a0a777aeef0378fc,"<b>If I go to my favorite restaurant and the food is unexpectedly bad, then they have changed owners.",Highly disagree,27/94,Somewhat agree,3,1708006879798,1708006893733,\Somewhat agree\,\Somewhat agree\,\3\,1708006892687,1708006892687,12889,12889,13935,buq,qns-item-noham,27,309978,0.0-1.0-0.26,65ce1c5a9c60c1f0df87a325,AWAITING REVIEW,2024-02-15T14:14:57.378000Z,2024-02-15T14:30:45.788000Z,,2024-02-15T14:30:46.596276Z,949.0,CVPIIDEI,2,26,Female,Black,United States,United States,United States,English,No,Full-Time,Not Applicable
65bf6216a0a777aeef0378fc,"<b>In politics, it?s important to trust your friends and family.",Highly disagree,28/94,Somewhat disagree,2,1708006893746,1708006900091,\Somewhat agree\,\Somewhat disagree\,\3\,1708006898042,1708006899183,4296,5437,6345,buq,qns-item-noham,28,316336,0.0-1.0-0.27,65ce1c5a9c60c1f0df87a325,AWAITING REVIEW,2024-02-15T14:14:57.378000Z,2024-02-15T14:30:45.788000Z,,2024-02-15T14:30:46.596276Z,949.0,CVPIIDEI,2,26,Female,Black,United States,United States,United States,English,No,Full-Time,Not Applicable
65bf6216a0a777aeef0378fc,<b>It?s OK to have some conflicting beliefs.,Highly disagree,29/94,Somewhat disagree,2,1708006900101,1708006909001,\Somewhat disagree\,\Somewhat disagree\,\2\,1708006905730,1708006905730,5629,5629,8900,buq,qns-item-noham,29,325246,0.0-1.0-0.28,65ce1c5a9c60c1f0df87a325,AWAITING REVIEW,2024-02-15T14:14:57.378000Z,2024-02-15T14:30:45.788000Z,,2024-02-15T14:30:46.596276Z,949.0,CVPIIDEI,2,26,Female,Black,United States,United States,United States,English,No,Full-Time,Not Applicable
65bf6216a0a777aeef0378fc,<b>Listening to people I disagree with makes my opinions better.,Highly disagree,30/94,Somewhat disagree,2,1708006909006,1708006914500,\Somewhat disagree\,\Somewhat disagree\,\2\,1708006913531,1708006913531,4525,4525,5494,buq,qns-item-noham,30,330745,0.0-1.0-0.29,65ce1c5a9c60c1f0df87a325,AWAITING REVIEW,2024-02-15T14:14:57.378000Z,2024-02-15T14:30:45.788000Z,,2024-02-15T14:30:46.596276Z,949.0,CVPIIDEI,2,26,Female,Black,United States,United States,United States,English,No,Full-Time,Not Applicable
65bf6216a0a777aeef0378fc,<b>My moral compass sometimes makes it harder to determine what?s true.,Highly disagree,31/94,Somewhat disagree,2,1708006914505,1708006939744,\Somewhat disagree\,\Somewhat disagree\,\2\,1708006938761,1708006938761,24256,24256,25239,buq,qns-item-noham,31,355989,0.0-1.0-0.30,65ce1c5a9c60c1f0df87a325,AWAITING REVIEW,2024-02-15T14:14:57.378000Z,2024-02-15T14:30:45.788000Z,,2024-02-15T14:30:46.596276Z,949.0,CVPIIDEI,2,26,Female,Black,United States,United States,United States,English,No,Full-Time,Not Applicable
65bf6216a0a777aeef0378fc,<b>Evidence pointing in the wrong direction isn?t really evidence at all.,Highly disagree,32/94,Somewhat agree,3,1708006939749,1708006947506,\Somewhat agree\,\Somewhat agree\,\3\,1708006946644,1708006946644,6895,6895,7757,buq,qns-item-noham,32,363751,0.0-1.0-0.31,65ce1c5a9c60c1f0df87a325,AWAITING REVIEW,2024-02-15T14:14:57.378000Z,2024-02-15T14:30:45.788000Z,,2024-02-15T14:30:46.596276Z,949.0,CVPIIDEI,2,26,Female,Black,United States,United States,United States,English,No,Full-Time,Not Applicable
65bf6216a0a777aeef0378fc,"<b>If the political party I support messes up, it makes me think politics is rotten.",Highly disagree,33/94,Somewhat agree,3,1708006947512,1708006959221,\Somewhat agree\,\Somewhat agree\,\3\,1708006958413,1708006958413,10901,10901,11709,buq,qns-item-noham,33,375466,0.0-1.0-0.32,65ce1c5a9c60c1f0df87a325,AWAITING REVIEW,2024-02-15T14:14:57.378000Z,2024-02-15T14:30:45.788000Z,,2024-02-15T14:30:46.596276Z,949.0,CVPIIDEI,2,26,Female,Black,United States,United States,United States,English,No,Full-Time,Not Applicable
65bf6216a0a777aeef0378fc,<b>Lots of important topics can only really be understood by some groups of people.,Highly disagree,34/94,Somewhat agree,3,1708006959230,1708006969556,\Somewhat agree\,\Somewhat agree\,\3\,1708006968693,1708006968693,9463,9463,10326,buq,qns-item-noham,34,385801,0.0-1.0-0.33,65ce1c5a9c60c1f0df87a325,AWAITING REVIEW,2024-02-15T14:14:57.378000Z,2024-02-15T14:30:45.788000Z,,2024-02-15T14:30:46.596276Z,949.0,CVPIIDEI,2,26,Female,Black,United States,United States,United States,English,No,Full-Time,Not Applicable
65bf6216a0a777aeef0378fc,<b>Having conflicting beliefs means you haven?t thought about them enough.,Highly disagree,35/94,Somewhat disagree,2,1708006969563,1708006974027,\Somewhat disagree\,\Somewhat disagree\,\2\,1708006973171,1708006973171,3608,3608,4464,buq,qns-item-noham,35,390272,0.0-1.0-0.34,65ce1c5a9c60c1f0df87a325,AWAITING REVIEW,2024-02-15T14:14:57.378000Z,2024-02-15T14:30:45.788000Z,,2024-02-15T14:30:46.596276Z,949.0,CVPIIDEI,2,26,Female,Black,United States,United States,United States,English,No,Full-Time,Not Applicable
65bf6216a0a777aeef0378fc,<b>I do not often change my political opinions.,Highly disagree,36/94,Highly agree,4,1708006974036,1708006978241,\Highly agree\,\Highly agree\,\4\,1708006977484,1708006977484,3448,3448,4205,buq,qns-item-noham,36,394486,0.0-1.0-0.35,65ce1c5a9c60c1f0df87a325,AWAITING REVIEW,2024-02-15T14:14:57.378000Z,2024-02-15T14:30:45.788000Z,,2024-02-15T14:30:46.596276Z,949.0,CVPIIDEI,2,26,Female,Black,United States,United States,United States,English,No,Full-Time,Not Applicable
65bf6216a0a777aeef0378fc,<b>It?s difficult to not have at least some conflicting beliefs.,Highly disagree,37/94,Somewhat agree,3,1708006978245,1708006982779,\Somewhat agree\,\Somewhat agree\,\3\,1708006982043,1708006982043,3798,3798,4534,buq,qns-item-noham,37,399025,0.0-1.0-0.36,65ce1c5a9c60c1f0df87a325,AWAITING REVIEW,2024-02-15T14:14:57.378000Z,2024-02-15T14:30:45.788000Z,,2024-02-15T14:30:46.596276Z,949.0,CVPIIDEI,2,26,Female,Black,United States,United States,United States,English,No,Full-Time,Not Applicable
65bf6216a0a777aeef0378fc,<b>Wishful thinking causes a lot of problems.,Highly disagree,38/94,Somewhat disagree,2,1708006982787,1708006987820,\Somewhat disagree\,\Somewhat disagree\,\2\,1708006987055,1708006987055,4268,4268,5033,buq,qns-item-noham,38,404065,0.0-1.0-0.37,65ce1c5a9c60c1f0df87a325,AWAITING REVIEW,2024-02-15T14:14:57.378000Z,2024-02-15T14:30:45.788000Z,,2024-02-15T14:30:46.596276Z,949.0,CVPIIDEI,2,26,Female,Black,United States,United States,United States,English,No,Full-Time,Not Applicable
65bf6216a0a777aeef0378fc,<b>I judge a food item only once I try it many times.,Highly disagree,39/94,Somewhat agree,3,1708006987826,1708006992342,\Somewhat agree\,\Somewhat agree\,\3\,1708006991410,1708006991410,3584,3584,4516,buq,qns-item-noham,39,408587,0.0-1.0-0.38,65ce1c5a9c60c1f0df87a325,AWAITING REVIEW,2024-02-15T14:14:57.378000Z,2024-02-15T14:30:45.788000Z,,2024-02-15T14:30:46.596276Z,949.0,CVPIIDEI,2,26,Female,Black,United States,United States,United States,English,No,Full-Time,Not Applicable
65bf6216a0a777aeef0378fc,"<b>When a person holds conflicting beliefs, they should really try to figure out what?s wrong.",Highly disagree,40/94,Somewhat agree,3,1708006992350,1708006997778,\Somewhat agree\,\Somewhat agree\,\3\,1708006997051,1708006997051,4701,4701,5428,buq,qns-item-noham,40,414023,0.0-1.0-0.39,65ce1c5a9c60c1f0df87a325,AWAITING REVIEW,2024-02-15T14:14:57.378000Z,2024-02-15T14:30:45.788000Z,,2024-02-15T14:30:46.596276Z,949.0,CVPIIDEI,2,26,Female,Black,United States,United States,United States,English,No,Full-Time,Not Applicable
65bf6216a0a777aeef0378fc,<b>Knowing what?s important in life is easy.,Highly disagree,41/94,Somewhat agree,3,1708006997786,1708007003618,\Somewhat agree\,\Somewhat agree\,\3\,1708007002803,1708007002803,5017,5017,5832,buq,qns-item-noham,41,419863,0.0-1.0-0.40,65ce1c5a9c60c1f0df87a325,AWAITING REVIEW,2024-02-15T14:14:57.378000Z,2024-02-15T14:30:45.788000Z,,2024-02-15T14:30:46.596276Z,949.0,CVPIIDEI,2,26,Female,Black,United States,United States,United States,English,No,Full-Time,Not Applicable
65bf6216a0a777aeef0378fc,<b>I swim across the Atlantic Ocean to get to work every day.,Highly disagree,42/94,Highly disagree,1,1708007003630,1708007016431,\Highly disagree\,\Highly disagree\,\1\,1708007014240,1708007014240,10610,10610,12801,buq,qns-item-noham,42,432676,0.0-1.0-0.41,65ce1c5a9c60c1f0df87a325,AWAITING REVIEW,2024-02-15T14:14:57.378000Z,2024-02-15T14:30:45.788000Z,,2024-02-15T14:30:46.596276Z,949.0,CVPIIDEI,2,26,Female,Black,United States,United States,United States,English,No,Full-Time,Not Applicable
65bf6216a0a777aeef0378fc,"<b>Sometimes, you just have to ignore evidence that you know is wrong.",Highly disagree,43/94,Somewhat agree,3,1708007016440,1708007021712,\Somewhat agree\,\Somewhat agree\,\3\,1708007021042,1708007021042,4602,4602,5272,buq,qns-item-noham,43,437957,0.0-1.0-0.42,65ce1c5a9c60c1f0df87a325,AWAITING REVIEW,2024-02-15T14:14:57.378000Z,2024-02-15T14:30:45.788000Z,,2024-02-15T14:30:46.596276Z,949.0,CVPIIDEI,2,26,Female,Black,United States,United States,United States,English,No,Full-Time,Not Applicable
65bf6216a0a777aeef0378fc,<b>I have had some false beliefs.,Highly disagree,44/94,Highly disagree,1,1708007021719,1708007025850,\Highly disagree\,\Highly disagree\,\1\,1708007024680,1708007024680,2961,2961,4131,buq,qns-item-noham,44,442095,0.0-1.0-0.43,65ce1c5a9c60c1f0df87a325,AWAITING REVIEW,2024-02-15T14:14:57.378000Z,2024-02-15T14:30:45.788000Z,,2024-02-15T14:30:46.596276Z,949.0,CVPIIDEI,2,26,Female,Black,United States,United States,United States,English,No,Full-Time,Not Applicable
65bf6216a0a777aeef0378fc,"<b>If one friend does something that upsets me, I sometimes start to distrust people in general.",Highly disagree,45/94,Somewhat agree,3,1708007025855,1708007032715,\Somewhat agree\,\Somewhat agree\,\3\,1708007031850,1708007031850,5995,5995,6860,buq,qns-item-noham,45,448960,0.0-1.0-0.44,65ce1c5a9c60c1f0df87a325,AWAITING REVIEW,2024-02-15T14:14:57.378000Z,2024-02-15T14:30:45.788000Z,,2024-02-15T14:30:46.596276Z,949.0,CVPIIDEI,2,26,Female,Black,United States,United States,United States,English,No,Full-Time,Not Applicable
65bf6216a0a777aeef0378fc,<b>The facts about most important matters are easy to find.,Highly disagree,46/94,Somewhat agree,3,1708007032721,1708007038232,\Somewhat agree\,\Somewhat agree\,\3\,1708007037295,1708007037295,4574,4574,5511,buq,qns-item-noham,46,454477,0.0-1.0-0.45,65ce1c5a9c60c1f0df87a325,AWAITING REVIEW,2024-02-15T14:14:57.378000Z,2024-02-15T14:30:45.788000Z,,2024-02-15T14:30:46.596276Z,949.0,CVPIIDEI,2,26,Female,Black,United States,United States,United States,English,No,Full-Time,Not Applicable
65bf6216a0a777aeef0378fc,<b>It?s better to know what?s true than to know what?s moral.,Highly disagree,47/94,Highly agree,4,1708007038238,1708007057972,\Highly agree\,\Highly agree\,\4\,1708007057133,1708007057133,18895,18895,19734,buq,qns-item-noham,47,474217,0.0-1.0-0.46,65ce1c5a9c60c1f0df87a325,AWAITING REVIEW,2024-02-15T14:14:57.378000Z,2024-02-15T14:30:45.788000Z,,2024-02-15T14:30:46.596276Z,949.0,CVPIIDEI,2,26,Female,Black,United States,United States,United States,English,No,Full-Time,Not Applicable
65bf6216a0a777aeef0378fc,<b>I used to think the world was less complicated than I do now.,Highly disagree,48/94,Somewhat disagree,2,1708007057978,1708007068991,\Somewhat agree\,\Somewhat disagree\,\3\,1708007066274,1708007068359,8296,10381,11013,buq,qns-item-noham,48,485236,0.0-1.0-0.47,65ce1c5a9c60c1f0df87a325,AWAITING REVIEW,2024-02-15T14:14:57.378000Z,2024-02-15T14:30:45.788000Z,,2024-02-15T14:30:46.596276Z,949.0,CVPIIDEI,2,26,Female,Black,United States,United States,United States,English,No,Full-Time,Not Applicable
65bf6216a0a777aeef0378fc,<b>People are usually completely right or completely wrong.,Highly disagree,49/94,Somewhat agree,3,1708007068995,1708007074720,\Somewhat agree\,\Somewhat agree\,\3\,1708007073977,1708007073977,4982,4982,5725,buq,qns-item-noham,49,490965,0.0-1.0-0.48,65ce1c5a9c60c1f0df87a325,AWAITING REVIEW,2024-02-15T14:14:57.378000Z,2024-02-15T14:30:45.788000Z,,2024-02-15T14:30:46.596276Z,949.0,CVPIIDEI,2,26,Female,Black,United States,United States,United States,English,No,Full-Time,Not Applicable
65bf6216a0a777aeef0378fc,<b>I spend a lot of time considering alternatives to my beliefs.,Highly disagree,50/94,Somewhat agree,3,1708007074733,1708007078538,\Somewhat agree\,\Somewhat agree\,\3\,1708007077721,1708007077721,2988,2988,3805,buq,qns-item-noham,50,494783,0.0-1.0-0.49,65ce1c5a9c60c1f0df87a325,AWAITING REVIEW,2024-02-15T14:14:57.378000Z,2024-02-15T14:30:45.788000Z,,2024-02-15T14:30:46.596276Z,949.0,CVPIIDEI,2,26,Female,Black,United States,United States,United States,English,No,Full-Time,Not Applicable
65bf6216a0a777aeef0378fc,"<b>Political enemies need to be defeated, not convinced.",Highly disagree,51/94,Somewhat agree,3,1708007078548,1708007082845,\Somewhat agree\,\Somewhat agree\,\3\,1708007082063,1708007082063,3515,3515,4297,buq,qns-item-noham,51,499090,0.0-1.0-0.50,65ce1c5a9c60c1f0df87a325,AWAITING REVIEW,2024-02-15T14:14:57.378000Z,2024-02-15T14:30:45.788000Z,,2024-02-15T14:30:46.596276Z,949.0,CVPIIDEI,2,26,Female,Black,United States,United States,United States,English,No,Full-Time,Not Applicable
65bf6216a0a777aeef0378fc,<b>I form my political views only after meticulously gathering historical and present information about their policies.,Highly disagree,52/94,Somewhat agree,3,1708007082851,1708007091079,\Somewhat agree\,\Somewhat agree\,\3\,1708007090044,1708007090044,7193,7193,8228,buq,qns-item-noham,52,507324,0.0-1.0-0.51,65ce1c5a9c60c1f0df87a325,AWAITING REVIEW,2024-02-15T14:14:57.378000Z,2024-02-15T14:30:45.788000Z,,2024-02-15T14:30:46.596276Z,949.0,CVPIIDEI,2,26,Female,Black,United States,United States,United States,English,No,Full-Time,Not Applicable
65bf6216a0a777aeef0378fc,<b>It is difficult for me to remember the last time I was surprised by politics.,Highly disagree,53/94,Somewhat disagree,2,1708007091085,1708007106512,\Somewhat disagree\,\Somewhat disagree\,\2\,1708007105110,1708007105110,14025,14025,15427,buq,qns-item-noham,53,522757,0.0-1.0-0.52,65ce1c5a9c60c1f0df87a325,AWAITING REVIEW,2024-02-15T14:14:57.378000Z,2024-02-15T14:30:45.788000Z,,2024-02-15T14:30:46.596276Z,949.0,CVPIIDEI,2,26,Female,Black,United States,United States,United States,English,No,Full-Time,Not Applicable
65bf6216a0a777aeef0378fc,"<b>When I find out I?m wrong, I think a lot about my related beliefs.",Highly disagree,54/94,Somewhat agree,3,1708007106520,1708007111777,\Somewhat agree\,\Somewhat agree\,\3\,1708007111141,1708007111141,4621,4621,5257,buq,qns-item-noham,54,528022,0.0-1.0-0.53,65ce1c5a9c60c1f0df87a325,AWAITING REVIEW,2024-02-15T14:14:57.378000Z,2024-02-15T14:30:45.788000Z,,2024-02-15T14:30:46.596276Z,949.0,CVPIIDEI,2,26,Female,Black,United States,United States,United States,English,No,Full-Time,Not Applicable
65bf6216a0a777aeef0378fc,"<b>If the political party I support messes up, it makes me think you can?t trust anyone these days",Highly disagree,55/94,Somewhat agree,3,1708007111787,1708007117015,\Somewhat agree\,\Somewhat agree\,\3\,1708007116217,1708007116217,4430,4430,5228,buq,qns-item-noham,55,533260,0.0-1.0-0.54,65ce1c5a9c60c1f0df87a325,AWAITING REVIEW,2024-02-15T14:14:57.378000Z,2024-02-15T14:30:45.788000Z,,2024-02-15T14:30:46.596276Z,949.0,CVPIIDEI,2,26,Female,Black,United States,United States,United States,English,No,Full-Time,Not Applicable
65bf6216a0a777aeef0378fc,<b>People?s brains turn off when they talk about politics.,Highly disagree,56/94,Somewhat agree,3,1708007117019,1708007123756,\Somewhat agree\,\Somewhat agree\,\3\,1708007122952,1708007122952,5933,5933,6737,buq,qns-item-noham,56,540001,0.0-1.0-0.55,65ce1c5a9c60c1f0df87a325,AWAITING REVIEW,2024-02-15T14:14:57.378000Z,2024-02-15T14:30:45.788000Z,,2024-02-15T14:30:46.596276Z,949.0,CVPIIDEI,2,26,Female,Black,United States,United States,United States,English,No,Full-Time,Not Applicable
65bf6216a0a777aeef0378fc,<b>People who are wrong are usually just ignoring the obvious.,Highly disagree,57/94,Somewhat agree,3,1708007123764,1708007131993,\Somewhat agree\,\Somewhat agree\,\3\,1708007131015,1708007131015,7251,7251,8229,buq,qns-item-noham,57,548238,0.0-1.0-0.56,65ce1c5a9c60c1f0df87a325,AWAITING REVIEW,2024-02-15T14:14:57.378000Z,2024-02-15T14:30:45.788000Z,,2024-02-15T14:30:46.596276Z,949.0,CVPIIDEI,2,26,Female,Black,United States,United States,United States,English,No,Full-Time,Not Applicable
65bf6216a0a777aeef0378fc,"<b>When forming my views on people, I rely more on what they are like now rather than rely on my past experience with them.",Highly disagree,58/94,Somewhat agree,3,1708007131999,1708007141724,\Somewhat agree\,\Somewhat agree\,\3\,1708007140772,1708007140772,8773,8773,9725,buq,qns-item-noham,58,557969,0.0-1.0-0.57,65ce1c5a9c60c1f0df87a325,AWAITING REVIEW,2024-02-15T14:14:57.378000Z,2024-02-15T14:30:45.788000Z,,2024-02-15T14:30:46.596276Z,949.0,CVPIIDEI,2,26,Female,Black,United States,United States,United States,English,No,Full-Time,Not Applicable
65bf6216a0a777aeef0378fc,"<b>When people contradict my beliefs, I usually know about their evidence already.",Highly disagree,59/94,Highly agree,4,1708007141728,1708007149307,\Somewhat agree\,\Highly agree\,\3\,1708007147673,1708007148308,5945,6580,7579,buq,qns-item-noham,59,565553,0.0-1.0-0.58,65ce1c5a9c60c1f0df87a325,AWAITING REVIEW,2024-02-15T14:14:57.378000Z,2024-02-15T14:30:45.788000Z,,2024-02-15T14:30:46.596276Z,949.0,CVPIIDEI,2,26,Female,Black,United States,United States,United States,English,No,Full-Time,Not Applicable
65bf6216a0a777aeef0378fc,<b>Figuring out what?s true and what?s false mainly requires a strong moral compass.,Highly disagree,60/94,Somewhat agree,3,1708007149313,1708007153780,\Somewhat agree\,\Somewhat agree\,\3\,1708007153088,1708007153088,3775,3775,4467,buq,qns-item-noham,60,570025,0.0-1.0-0.59,65ce1c5a9c60c1f0df87a325,AWAITING REVIEW,2024-02-15T14:14:57.378000Z,2024-02-15T14:30:45.788000Z,,2024-02-15T14:30:46.596276Z,949.0,CVPIIDEI,2,26,Female,Black,United States,United States,United States,English,No,Full-Time,Not Applicable
65bf6216a0a777aeef0378fc,"<b>Usually I?m wrong about simple things, not complicated ones.",Highly disagree,61/94,Somewhat disagree,2,1708007153787,1708007157903,\Somewhat disagree\,\Somewhat disagree\,\2\,1708007157228,1708007157228,3441,3441,4116,buq,qns-item-noham,61,574148,0.0-1.0-0.60,65ce1c5a9c60c1f0df87a325,AWAITING REVIEW,2024-02-15T14:14:57.378000Z,2024-02-15T14:30:45.788000Z,,2024-02-15T14:30:46.596276Z,949.0,CVPIIDEI,2,26,Female,Black,United States,United States,United States,English,No,Full-Time,Not Applicable
65bf6216a0a777aeef0378fc,<b>Getting all the information I want about important things is hard.,Highly disagree,62/94,Somewhat agree,3,1708007157908,1708007162066,\Somewhat agree\,\Somewhat agree\,\3\,1708007161428,1708007161428,3520,3520,4158,buq,qns-item-noham,62,578311,0.0-1.0-0.61,65ce1c5a9c60c1f0df87a325,AWAITING REVIEW,2024-02-15T14:14:57.378000Z,2024-02-15T14:30:45.788000Z,,2024-02-15T14:30:46.596276Z,949.0,CVPIIDEI,2,26,Female,Black,United States,United States,United States,English,No,Full-Time,Not Applicable
65bf6216a0a777aeef0378fc,<b>Most false beliefs spread because people try to deceive one another.,Highly disagree,63/94,Somewhat agree,3,1708007162071,1708007168050,\Somewhat agree\,\Somewhat agree\,\3\,1708007167149,1708007167149,5078,5078,5979,buq,qns-item-noham,63,584295,0.0-1.0-0.62,65ce1c5a9c60c1f0df87a325,AWAITING REVIEW,2024-02-15T14:14:57.378000Z,2024-02-15T14:30:45.788000Z,,2024-02-15T14:30:46.596276Z,949.0,CVPIIDEI,2,26,Female,Black,United States,United States,United States,English,No,Full-Time,Not Applicable
65bf6216a0a777aeef0378fc,<b>I can usually find something to agree with in most people?s beliefs.,Highly disagree,64/94,Somewhat agree,3,1708007168060,1708007171794,\Somewhat agree\,\Somewhat agree\,\3\,1708007170862,1708007170862,2802,2802,3734,buq,qns-item-noham,64,588039,0.0-1.0-0.63,65ce1c5a9c60c1f0df87a325,AWAITING REVIEW,2024-02-15T14:14:57.378000Z,2024-02-15T14:30:45.788000Z,,2024-02-15T14:30:46.596276Z,949.0,CVPIIDEI,2,26,Female,Black,United States,United States,United States,English,No,Full-Time,Not Applicable
65bf6216a0a777aeef0378fc,<b>I only form my views of people once I get to know them very well.,Highly disagree,65/94,Somewhat agree,3,1708007171808,1708007181580,\Somewhat agree\,\Somewhat agree\,\3\,1708007180679,1708007180679,8871,8871,9772,buq,qns-item-noham,65,597825,0.0-1.0-0.64,65ce1c5a9c60c1f0df87a325,AWAITING REVIEW,2024-02-15T14:14:57.378000Z,2024-02-15T14:30:45.788000Z,,2024-02-15T14:30:46.596276Z,949.0,CVPIIDEI,2,26,Female,Black,United States,United States,United States,English,No,Full-Time,Not Applicable
65bf6216a0a777aeef0378fc,"<b>When people tell me important things about the world, I usually believe them.",Highly disagree,66/94,Somewhat agree,3,1708007181589,1708007188676,\Somewhat agree\,\Somewhat agree\,\3\,1708007187647,1708007187647,6058,6058,7087,buq,qns-item-noham,66,604921,0.0-1.0-0.65,65ce1c5a9c60c1f0df87a325,AWAITING REVIEW,2024-02-15T14:14:57.378000Z,2024-02-15T14:30:45.788000Z,,2024-02-15T14:30:46.596276Z,949.0,CVPIIDEI,2,26,Female,Black,United States,United States,United States,English,No,Full-Time,Not Applicable
65bf6216a0a777aeef0378fc,"<b>If a friend does something that upsets me, it reminds me what an unpredictable place the world is.",Highly disagree,67/94,Somewhat agree,3,1708007188687,1708007192150,\Somewhat agree\,\Somewhat agree\,\3\,1708007191128,1708007191128,2441,2441,3463,buq,qns-item-noham,67,608395,0.0-1.0-0.66,65ce1c5a9c60c1f0df87a325,AWAITING REVIEW,2024-02-15T14:14:57.378000Z,2024-02-15T14:30:45.788000Z,,2024-02-15T14:30:46.596276Z,949.0,CVPIIDEI,2,26,Female,Black,United States,United States,United States,English,No,Full-Time,Not Applicable
65bf6216a0a777aeef0378fc,<b>People tend to believe whatever is good for their friends.,Highly disagree,68/94,Highly agree,4,1708007192155,1708007196234,\Highly agree\,\Highly agree\,\4\,1708007195386,1708007195386,3231,3231,4079,buq,qns-item-noham,68,612479,0.0-1.0-0.67,65ce1c5a9c60c1f0df87a325,AWAITING REVIEW,2024-02-15T14:14:57.378000Z,2024-02-15T14:30:45.788000Z,,2024-02-15T14:30:46.596276Z,949.0,CVPIIDEI,2,26,Female,Black,United States,United States,United States,English,No,Full-Time,Not Applicable
65bf6216a0a777aeef0378fc,<b>I used to be more certain my beliefs were true.,Highly disagree,69/94,Somewhat agree,3,1708007196240,1708007200584,\Somewhat agree\,\Somewhat agree\,\3\,1708007199617,1708007199617,3377,3377,4344,buq,qns-item-noham,69,616829,0.0-1.0-0.68,65ce1c5a9c60c1f0df87a325,AWAITING REVIEW,2024-02-15T14:14:57.378000Z,2024-02-15T14:30:45.788000Z,,2024-02-15T14:30:46.596276Z,949.0,CVPIIDEI,2,26,Female,Black,United States,United States,United States,English,No,Full-Time,Not Applicable
65bf6216a0a777aeef0378fc,<b>It?s often pretty easy to figure out whether something is true based on who said it.,Highly disagree,70/94,Somewhat agree,3,1708007200590,1708007206775,\Somewhat agree\,\Somewhat agree\,\3\,1708007206163,1708007206163,5573,5573,6185,buq,qns-item-noham,70,623020,0.0-1.0-0.69,65ce1c5a9c60c1f0df87a325,AWAITING REVIEW,2024-02-15T14:14:57.378000Z,2024-02-15T14:30:45.788000Z,,2024-02-15T14:30:46.596276Z,949.0,CVPIIDEI,2,26,Female,Black,United States,United States,United States,English,No,Full-Time,Not Applicable
65bf6216a0a777aeef0378fc,<b>I transform into a hummingbird every day.,Highly disagree,71/94,Highly disagree,1,1708007206780,1708007221441,\Highly disagree\,\Highly disagree\,\1\,1708007218344,1708007218344,11564,11564,14661,buq,qns-item-noham,71,637686,0.0-1.0-0.70,65ce1c5a9c60c1f0df87a325,AWAITING REVIEW,2024-02-15T14:14:57.378000Z,2024-02-15T14:30:45.788000Z,,2024-02-15T14:30:46.596276Z,949.0,CVPIIDEI,2,26,Female,Black,United States,United States,United States,English,No,Full-Time,Not Applicable
65bf6216a0a777aeef0378fc,<b>I think a lot about arguments against my views.,Highly disagree,72/94,Somewhat agree,3,1708007221446,1708007227291,\Somewhat agree\,\Somewhat agree\,\3\,1708007226428,1708007226428,4982,4982,5845,buq,qns-item-noham,72,643536,0.0-1.0-0.71,65ce1c5a9c60c1f0df87a325,AWAITING REVIEW,2024-02-15T14:14:57.378000Z,2024-02-15T14:30:45.788000Z,,2024-02-15T14:30:46.596276Z,949.0,CVPIIDEI,2,26,Female,Black,United States,United States,United States,English,No,Full-Time,Not Applicable
65bf6216a0a777aeef0378fc,<b>Personal experience is usually more important than facts and figures.,Highly disagree,73/94,Highly agree,4,1708007227296,1708007232010,\Highly agree\,\Highly agree\,\4\,1708007231314,1708007231314,4018,4018,4714,buq,qns-item-noham,73,648255,0.0-1.0-0.72,65ce1c5a9c60c1f0df87a325,AWAITING REVIEW,2024-02-15T14:14:57.378000Z,2024-02-15T14:30:45.788000Z,,2024-02-15T14:30:46.596276Z,949.0,CVPIIDEI,2,26,Female,Black,United States,United States,United States,English,No,Full-Time,Not Applicable
65bf6216a0a777aeef0378fc,<b>I?ve been tricked before about important matters.,Highly disagree,74/94,Somewhat disagree,2,1708007232016,1708007237191,\Somewhat disagree\,\Somewhat disagree\,\2\,1708007236531,1708007236531,4515,4515,5175,buq,qns-item-noham,74,653436,0.0-1.0-0.73,65ce1c5a9c60c1f0df87a325,AWAITING REVIEW,2024-02-15T14:14:57.378000Z,2024-02-15T14:30:45.788000Z,,2024-02-15T14:30:46.596276Z,949.0,CVPIIDEI,2,26,Female,Black,United States,United States,United States,English,No,Full-Time,Not Applicable
65bf6216a0a777aeef0378fc,<b>I would need to be totally wowed if I were to change my opinion of a restaurant I don?t like.,Highly disagree,75/94,Somewhat agree,3,1708007237201,1708007244183,\Somewhat agree\,\Somewhat agree\,\3\,1708007243154,1708007243154,5953,5953,6982,buq,qns-item-noham,75,660428,0.0-1.0-0.74,65ce1c5a9c60c1f0df87a325,AWAITING REVIEW,2024-02-15T14:14:57.378000Z,2024-02-15T14:30:45.788000Z,,2024-02-15T14:30:46.596276Z,949.0,CVPIIDEI,2,26,Female,Black,United States,United States,United States,English,No,Full-Time,Not Applicable
65bf6216a0a777aeef0378fc,<b>I care a lot about politics.,Highly disagree,76/94,Somewhat agree,3,1708007244195,1708007247700,\Somewhat agree\,\Somewhat agree\,\3\,1708007246896,1708007246896,2701,2701,3505,buq,qns-item-noham,76,663945,0.0-1.0-0.75,65ce1c5a9c60c1f0df87a325,AWAITING REVIEW,2024-02-15T14:14:57.378000Z,2024-02-15T14:30:45.788000Z,,2024-02-15T14:30:46.596276Z,949.0,CVPIIDEI,2,26,Female,Black,United States,United States,United States,English,No,Full-Time,Not Applicable
65bf6216a0a777aeef0378fc,<b>There are some topics I?ve been really wrong about.,Highly disagree,77/94,Somewhat disagree,2,1708007247704,1708007252394,\Somewhat disagree\,\Somewhat disagree\,\2\,1708007251516,1708007251516,3812,3812,4690,buq,qns-item-noham,77,668639,0.0-1.0-0.76,65ce1c5a9c60c1f0df87a325,AWAITING REVIEW,2024-02-15T14:14:57.378000Z,2024-02-15T14:30:45.788000Z,,2024-02-15T14:30:46.596276Z,949.0,CVPIIDEI,2,26,Female,Black,United States,United States,United States,English,No,Full-Time,Not Applicable
65bf6216a0a777aeef0378fc,<b>Most beliefs can be supported with at least some evidence.,Highly disagree,78/94,Somewhat agree,3,1708007252403,1708007256506,\Somewhat agree\,\Somewhat agree\,\3\,1708007255937,1708007255937,3534,3534,4103,buq,qns-item-noham,78,672751,0.0-1.0-0.77,65ce1c5a9c60c1f0df87a325,AWAITING REVIEW,2024-02-15T14:14:57.378000Z,2024-02-15T14:30:45.788000Z,,2024-02-15T14:30:46.596276Z,949.0,CVPIIDEI,2,26,Female,Black,United States,United States,United States,English,No,Full-Time,Not Applicable
65bf6216a0a777aeef0378fc,<b>Other people make life out to be more complicated than it really is.,Highly disagree,79/94,Somewhat agree,3,1708007256511,1708007260442,\Somewhat agree\,\Somewhat agree\,\3\,1708007259654,1708007259654,3143,3143,3931,buq,qns-item-noham,79,676687,0.0-1.0-0.78,65ce1c5a9c60c1f0df87a325,AWAITING REVIEW,2024-02-15T14:14:57.378000Z,2024-02-15T14:30:45.788000Z,,2024-02-15T14:30:46.596276Z,949.0,CVPIIDEI,2,26,Female,Black,United States,United States,United States,English,No,Full-Time,Not Applicable
65bf6216a0a777aeef0378fc,"<b>Policy details don?t matter much, just the big picture.",Highly disagree,80/94,Somewhat agree,3,1708007260448,1708007265040,\Somewhat agree\,\Somewhat agree\,\3\,1708007264221,1708007264221,3773,3773,4592,buq,qns-item-noham,80,681285,0.0-1.0-0.79,65ce1c5a9c60c1f0df87a325,AWAITING REVIEW,2024-02-15T14:14:57.378000Z,2024-02-15T14:30:45.788000Z,,2024-02-15T14:30:46.596276Z,949.0,CVPIIDEI,2,26,Female,Black,United States,United States,United States,English,No,Full-Time,Not Applicable
65bf6216a0a777aeef0378fc,<b>I know my friends so well they can hardly ever surprise me.,Highly disagree,81/94,Somewhat disagree,2,1708007265045,1708007272584,\Somewhat disagree\,\Somewhat disagree\,\2\,1708007271107,1708007271107,6062,6062,7539,buq,qns-item-noham,81,688829,0.0-1.0-0.80,65ce1c5a9c60c1f0df87a325,AWAITING REVIEW,2024-02-15T14:14:57.378000Z,2024-02-15T14:30:45.788000Z,,2024-02-15T14:30:46.596276Z,949.0,CVPIIDEI,2,26,Female,Black,United States,United States,United States,English,No,Full-Time,Not Applicable
65bf6216a0a777aeef0378fc,<b>I do not often change my views on people.,Highly disagree,82/94,Somewhat agree,3,1708007272590,1708007276349,\Somewhat agree\,\Somewhat agree\,\3\,1708007275479,1708007275479,2889,2889,3759,buq,qns-item-noham,82,692594,0.0-1.0-0.81,65ce1c5a9c60c1f0df87a325,AWAITING REVIEW,2024-02-15T14:14:57.378000Z,2024-02-15T14:30:45.788000Z,,2024-02-15T14:30:46.596276Z,949.0,CVPIIDEI,2,26,Female,Black,United States,United States,United States,English,No,Full-Time,Not Applicable
65bf6216a0a777aeef0378fc,<b>I?m more certain about my beliefs than I used to be.,Highly disagree,83/94,Somewhat agree,3,1708007276353,1708007281530,\Somewhat agree\,\Somewhat agree\,\3\,1708007280812,1708007280812,4459,4459,5177,buq,qns-item-noham,83,697775,0.0-1.0-0.82,65ce1c5a9c60c1f0df87a325,AWAITING REVIEW,2024-02-15T14:14:57.378000Z,2024-02-15T14:30:45.788000Z,,2024-02-15T14:30:46.596276Z,949.0,CVPIIDEI,2,26,Female,Black,United States,United States,United States,English,No,Full-Time,Not Applicable
65bf6216a0a777aeef0378fc,<b>People often tell falsehoods unintentionally.,Highly disagree,84/94,Highly agree,4,1708007281536,1708007288246,\Highly agree\,\Highly agree\,\4\,1708007287292,1708007287292,5756,5756,6710,buq,qns-item-noham,84,704491,0.0-1.0-0.83,65ce1c5a9c60c1f0df87a325,AWAITING REVIEW,2024-02-15T14:14:57.378000Z,2024-02-15T14:30:45.788000Z,,2024-02-15T14:30:46.596276Z,949.0,CVPIIDEI,2,26,Female,Black,United States,United States,United States,English,No,Full-Time,Not Applicable
65bf6216a0a777aeef0378fc,<b>Most people don?t know much about most things.,Highly disagree,85/94,Highly agree,4,1708007288251,1708007292182,\Highly agree\,\Highly agree\,\4\,1708007291394,1708007291394,3143,3143,3931,buq,qns-item-noham,85,708427,0.0-1.0-0.84,65ce1c5a9c60c1f0df87a325,AWAITING REVIEW,2024-02-15T14:14:57.378000Z,2024-02-15T14:30:45.788000Z,,2024-02-15T14:30:46.596276Z,949.0,CVPIIDEI,2,26,Female,Black,United States,United States,United States,English,No,Full-Time,Not Applicable
65bf6216a0a777aeef0378fc,"<b>If I find out something new about someone, I easily change my views about them.",Highly disagree,86/94,Somewhat agree,3,1708007292191,1708007299623,\Somewhat agree\,\Somewhat agree\,\3\,1708007298782,1708007298782,6591,6591,7432,buq,qns-item-noham,86,715868,0.0-1.0-0.85,65ce1c5a9c60c1f0df87a325,AWAITING REVIEW,2024-02-15T14:14:57.378000Z,2024-02-15T14:30:45.788000Z,,2024-02-15T14:30:46.596276Z,949.0,CVPIIDEI,2,26,Female,Black,United States,United States,United States,English,No,Full-Time,Not Applicable
65bf6216a0a777aeef0378fc,<b>Having true beliefs is difficult.,Highly disagree,87/94,Somewhat agree,3,1708007299629,1708007305353,\Somewhat disagree\,\Somewhat agree\,\2\,1708007303380,1708007304322,3751,4693,5724,buq,qns-item-noham,87,721599,0.0-1.0-0.86,65ce1c5a9c60c1f0df87a325,AWAITING REVIEW,2024-02-15T14:14:57.378000Z,2024-02-15T14:30:45.788000Z,,2024-02-15T14:30:46.596276Z,949.0,CVPIIDEI,2,26,Female,Black,United States,United States,United States,English,No,Full-Time,Not Applicable
65bf6216a0a777aeef0378fc,<b>I don?t try new foods since I know I won?t like them.,Highly disagree,88/94,Somewhat agree,3,1708007305358,1708007312043,\Somewhat agree\,\Somewhat agree\,\3\,1708007310864,1708007310864,5506,5506,6685,buq,qns-item-noham,88,728288,0.0-1.0-0.87,65ce1c5a9c60c1f0df87a325,AWAITING REVIEW,2024-02-15T14:14:57.378000Z,2024-02-15T14:30:45.788000Z,,2024-02-15T14:30:46.596276Z,949.0,CVPIIDEI,2,26,Female,Black,United States,United States,United States,English,No,Full-Time,Not Applicable
65bf6216a0a777aeef0378fc,<b>Other people trick each other a lot.,Highly disagree,89/94,Somewhat agree,3,1708007312050,1708007318170,\Somewhat agree\,\Somewhat agree\,\3\,1708007317368,1708007317368,5318,5318,6120,buq,qns-item-noham,89,734415,0.0-1.0-0.88,65ce1c5a9c60c1f0df87a325,AWAITING REVIEW,2024-02-15T14:14:57.378000Z,2024-02-15T14:30:45.788000Z,,2024-02-15T14:30:46.596276Z,949.0,CVPIIDEI,2,26,Female,Black,United States,United States,United States,English,No,Full-Time,Not Applicable
65bf6216a0a777aeef0378fc,<b>I would need to learn a lot about a person for my opinion of them to be swayed.,Highly disagree,90/94,Somewhat agree,3,1708007318175,1708007325318,\Somewhat agree\,\Somewhat agree\,\3\,1708007324439,1708007324439,6264,6264,7143,buq,qns-item-noham,90,741563,0.0-1.0-0.89,65ce1c5a9c60c1f0df87a325,AWAITING REVIEW,2024-02-15T14:14:57.378000Z,2024-02-15T14:30:45.788000Z,,2024-02-15T14:30:46.596276Z,949.0,CVPIIDEI,2,26,Female,Black,United States,United States,United States,English,No,Full-Time,Not Applicable
65bf6216a0a777aeef0378fc,<b>People can?t usually trick me when it comes to topics I care about.,Highly disagree,91/94,Somewhat agree,3,1708007325322,1708007331611,\Somewhat agree\,\Somewhat agree\,\3\,1708007330387,1708007330387,5065,5065,6289,buq,qns-item-noham,91,747856,0.0-1.0-0.90,65ce1c5a9c60c1f0df87a325,AWAITING REVIEW,2024-02-15T14:14:57.378000Z,2024-02-15T14:30:45.788000Z,,2024-02-15T14:30:46.596276Z,949.0,CVPIIDEI,2,26,Female,Black,United States,United States,United States,English,No,Full-Time,Not Applicable
65bf6216a0a777aeef0378fc,<b>I do not often change my views on food.,Highly disagree,92/94,Somewhat disagree,2,1708007331615,1708007337837,\Somewhat disagree\,\Somewhat disagree\,\2\,1708007336988,1708007336988,5373,5373,6222,buq,qns-item-noham,92,754083,0.0-1.0-0.91,65ce1c5a9c60c1f0df87a325,AWAITING REVIEW,2024-02-15T14:14:57.378000Z,2024-02-15T14:30:45.788000Z,,2024-02-15T14:30:46.596276Z,949.0,CVPIIDEI,2,26,Female,Black,United States,United States,United States,English,No,Full-Time,Not Applicable
65bf6216a0a777aeef0378fc,<b>Specific policies are often very important to me.,Highly disagree,93/94,Somewhat agree,3,1708007337842,1708007343960,\Somewhat agree\,\Somewhat agree\,\3\,1708007343167,1708007343167,5325,5325,6118,buq,qns-item-noham,93,760206,0.0-1.0-0.92,65ce1c5a9c60c1f0df87a325,AWAITING REVIEW,2024-02-15T14:14:57.378000Z,2024-02-15T14:30:45.788000Z,,2024-02-15T14:30:46.596276Z,949.0,CVPIIDEI,2,26,Female,Black,United States,United States,United States,English,No,Full-Time,Not Applicable
65bf6216a0a777aeef0378fc,<b>Most people are woefully under-informed.,Highly disagree,94/94,Somewhat agree,3,1708007343974,1708007348822,\Somewhat agree\,\Somewhat agree\,\3\,1708007348034,1708007348034,4060,4060,4848,buq,qns-item-noham,94,765067,0.0-1.0-0.93,65ce1c5a9c60c1f0df87a325,AWAITING REVIEW,2024-02-15T14:14:57.378000Z,2024-02-15T14:30:45.788000Z,,2024-02-15T14:30:46.596276Z,949.0,CVPIIDEI,2,26,Female,Black,United States,United States,United States,English,No,Full-Time,Not Applicable
65bf6216a0a777aeef0378fc,,,,,,,,,,,,,,,,,,,,,65ce1c5a9c60c1f0df87a325,AWAITING REVIEW,2024-02-15T14:14:57.378000Z,2024-02-15T14:30:45.788000Z,,2024-02-15T14:30:46.596276Z,949.0,CVPIIDEI,2,26,Female,Black,United States,United States,United States,English,No,Full-Time,Not Applicable
