PROLIFIC_PID,Question,qns_options,quest_num,answer,answer_num,question_load_timestamp,next_btn_timestamp,text_selected,final_text_selected,option_num_selected,preview_timestamps,final_text_selected_time_stamp,rt_first_option_click,rt_final_option_click,rt_submit_click,questionnaire,trial_type,trial_index,time_elapsed,internal_node_id,Demographic_Submission id,Demographic_Status,Demographic_Started at,Demographic_Completed at,Demographic_Reviewed at,Demographic_Archived at,Demographic_Time taken,Demographic_Completion code,Demographic_Total approvals,Demographic_Age,Demographic_Sex,Demographic_Ethnicity simplified,Demographic_Country of birth,Demographic_Country of residence,Demographic_Nationality,Demographic_Language,Demographic_Student status,Demographic_Employment status,Demographic_Custom study tncs accepted at
65cc1ac6402b90fc2fddeb95,<b>Knowing what?s true and knowing what to do about it are usually basically the same.,Highly disagree,1/94,Highly disagree,1,1708006633118,1708006639969,\Highly disagree\,\Highly disagree\,\1\,1708006638809,1708006638809,5691,5691,6851,buq,qns-item-noham,1,12712,0.0-1.0-0.0,65ce1c77726e59eeb6124a06,AWAITING REVIEW,2024-02-15T14:15:34.016000Z,2024-02-15T14:26:09.007000Z,,2024-02-15T14:26:09.731440Z,635.0,CVPIIDEI,4,26,Female,Asian,United States,United States,United States,English,No,Full-Time,Not Applicable
65cc1ac6402b90fc2fddeb95,<b>Most people just believe whatever is convenient for them.,Highly disagree,2/94,Somewhat agree,3,1708006639971,1708006644176,\Somewhat agree\,\Somewhat agree\,\3\,1708006643536,1708006643536,3565,3565,4205,buq,qns-item-noham,2,16918,0.0-1.0-0.1,65ce1c77726e59eeb6124a06,AWAITING REVIEW,2024-02-15T14:15:34.016000Z,2024-02-15T14:26:09.007000Z,,2024-02-15T14:26:09.731440Z,635.0,CVPIIDEI,4,26,Female,Asian,United States,United States,United States,English,No,Full-Time,Not Applicable
65cc1ac6402b90fc2fddeb95,<b>Having some big beliefs helps me sort out minor ones.,Highly disagree,3/94,Somewhat agree,3,1708006644180,1708006648513,\Somewhat agree\,\Somewhat agree\,\3\,1708006647745,1708006647745,3565,3565,4333,buq,qns-item-noham,3,21256,0.0-1.0-0.2,65ce1c77726e59eeb6124a06,AWAITING REVIEW,2024-02-15T14:15:34.016000Z,2024-02-15T14:26:09.007000Z,,2024-02-15T14:26:09.731440Z,635.0,CVPIIDEI,4,26,Female,Asian,United States,United States,United States,English,No,Full-Time,Not Applicable
65cc1ac6402b90fc2fddeb95,<b>Political questions are usually pretty complicated.,Highly disagree,4/94,Highly agree,4,1708006648515,1708006651344,\Highly agree\,\Highly agree\,\4\,1708006650752,1708006650752,2237,2237,2829,buq,qns-item-noham,4,24086,0.0-1.0-0.3,65ce1c77726e59eeb6124a06,AWAITING REVIEW,2024-02-15T14:15:34.016000Z,2024-02-15T14:26:09.007000Z,,2024-02-15T14:26:09.731440Z,635.0,CVPIIDEI,4,26,Female,Asian,United States,United States,United States,English,No,Full-Time,Not Applicable
65cc1ac6402b90fc2fddeb95,<b>Figuring out what?s important in life requires learning a lot of facts.,Highly disagree,5/94,Highly disagree,1,1708006651346,1708006657657,\Somewhat disagree\,\Highly disagree\,\2\,1708006656120,1708006656585,4774,5239,6311,buq,qns-item-noham,5,30399,0.0-1.0-0.4,65ce1c77726e59eeb6124a06,AWAITING REVIEW,2024-02-15T14:15:34.016000Z,2024-02-15T14:26:09.007000Z,,2024-02-15T14:26:09.731440Z,635.0,CVPIIDEI,4,26,Female,Asian,United States,United States,United States,English,No,Full-Time,Not Applicable
65cc1ac6402b90fc2fddeb95,<b>It is difficult for me to remember the last time I was surprised by politics.,Highly disagree,6/94,Highly agree,4,1708006657659,1708006662352,\Highly agree\,\Highly agree\,\4\,1708006661536,1708006661536,3877,3877,4693,buq,qns-item-noham,6,35094,0.0-1.0-0.5,65ce1c77726e59eeb6124a06,AWAITING REVIEW,2024-02-15T14:15:34.016000Z,2024-02-15T14:26:09.007000Z,,2024-02-15T14:26:09.731440Z,635.0,CVPIIDEI,4,26,Female,Asian,United States,United States,United States,English,No,Full-Time,Not Applicable
65cc1ac6402b90fc2fddeb95,<b>People?s false beliefs are understandable.,Highly disagree,7/94,Somewhat disagree,2,1708006662354,1708006666160,\Somewhat disagree\,\Somewhat disagree\,\2\,1708006665592,1708006665592,3238,3238,3806,buq,qns-item-noham,7,38902,0.0-1.0-0.6,65ce1c77726e59eeb6124a06,AWAITING REVIEW,2024-02-15T14:15:34.016000Z,2024-02-15T14:26:09.007000Z,,2024-02-15T14:26:09.731440Z,635.0,CVPIIDEI,4,26,Female,Asian,United States,United States,United States,English,No,Full-Time,Not Applicable
65cc1ac6402b90fc2fddeb95,<b>I spend a lot of time trying to be informed about politics.,Highly disagree,8/94,Somewhat disagree,2,1708006666161,1708006669937,\Somewhat disagree\,\Somewhat disagree\,\2\,1708006669240,1708006669240,3079,3079,3776,buq,qns-item-noham,8,42679,0.0-1.0-0.7,65ce1c77726e59eeb6124a06,AWAITING REVIEW,2024-02-15T14:15:34.016000Z,2024-02-15T14:26:09.007000Z,,2024-02-15T14:26:09.731440Z,635.0,CVPIIDEI,4,26,Female,Asian,United States,United States,United States,English,No,Full-Time,Not Applicable
65cc1ac6402b90fc2fddeb95,<b>I think a lot about whether my beliefs are right.,Highly disagree,9/94,Highly agree,4,1708006669938,1708006673273,\Highly agree\,\Highly agree\,\4\,1708006672361,1708006672361,2423,2423,3335,buq,qns-item-noham,9,46016,0.0-1.0-0.8,65ce1c77726e59eeb6124a06,AWAITING REVIEW,2024-02-15T14:15:34.016000Z,2024-02-15T14:26:09.007000Z,,2024-02-15T14:26:09.731440Z,635.0,CVPIIDEI,4,26,Female,Asian,United States,United States,United States,English,No,Full-Time,Not Applicable
65cc1ac6402b90fc2fddeb95,<b>Statistics can be pretty misleading sometimes.,Highly disagree,10/94,Highly agree,4,1708006673275,1708006675330,\Highly agree\,\Highly agree\,\4\,1708006674858,1708006674858,1583,1583,2055,buq,qns-item-noham,10,48072,0.0-1.0-0.9,65ce1c77726e59eeb6124a06,AWAITING REVIEW,2024-02-15T14:15:34.016000Z,2024-02-15T14:26:09.007000Z,,2024-02-15T14:26:09.731440Z,635.0,CVPIIDEI,4,26,Female,Asian,United States,United States,United States,English,No,Full-Time,Not Applicable
65cc1ac6402b90fc2fddeb95,<b>I have lots of beliefs that I?m only sort of sure about.,Highly disagree,11/94,Highly agree,4,1708006675332,1708006680842,\Somewhat agree\,\Highly agree\,\3\,1708006678683,1708006680098,3351,4766,5510,buq,qns-item-noham,11,53584,0.0-1.0-0.10,65ce1c77726e59eeb6124a06,AWAITING REVIEW,2024-02-15T14:15:34.016000Z,2024-02-15T14:26:09.007000Z,,2024-02-15T14:26:09.731440Z,635.0,CVPIIDEI,4,26,Female,Asian,United States,United States,United States,English,No,Full-Time,Not Applicable
65cc1ac6402b90fc2fddeb95,"<b>If I go to my favorite restaurant and the food is surprisingly bad, it reminds me there are many disappointments in life.",Highly disagree,12/94,Highly disagree,1,1708006680843,1708006685777,\Highly disagree\,\Highly disagree\,\1\,1708006685074,1708006685074,4231,4231,4934,buq,qns-item-noham,12,58519,0.0-1.0-0.11,65ce1c77726e59eeb6124a06,AWAITING REVIEW,2024-02-15T14:15:34.016000Z,2024-02-15T14:26:09.007000Z,,2024-02-15T14:26:09.731440Z,635.0,CVPIIDEI,4,26,Female,Asian,United States,United States,United States,English,No,Full-Time,Not Applicable
65cc1ac6402b90fc2fddeb95,"<b>If you are paying attention, please select ?Somewhat agree?",Highly disagree,13/94,Somewhat agree,3,1708006685779,1708006689786,\Somewhat agree\,\Somewhat agree\,\3\,1708006688889,1708006688889,3110,3110,4007,buq,qns-item-noham,13,62528,0.0-1.0-0.12,65ce1c77726e59eeb6124a06,AWAITING REVIEW,2024-02-15T14:15:34.016000Z,2024-02-15T14:26:09.007000Z,,2024-02-15T14:26:09.731440Z,635.0,CVPIIDEI,4,26,Female,Asian,United States,United States,United States,English,No,Full-Time,Not Applicable
65cc1ac6402b90fc2fddeb95,"<b>When I talk to others, I often worry I?ll convince them of something I didn?t mean to.",Highly disagree,14/94,Highly disagree,1,1708006689787,1708006694763,\Highly disagree\,\Highly disagree\,\1\,1708006693202,1708006693202,3415,3415,4976,buq,qns-item-noham,14,67505,0.0-1.0-0.13,65ce1c77726e59eeb6124a06,AWAITING REVIEW,2024-02-15T14:15:34.016000Z,2024-02-15T14:26:09.007000Z,,2024-02-15T14:26:09.731440Z,635.0,CVPIIDEI,4,26,Female,Asian,United States,United States,United States,English,No,Full-Time,Not Applicable
65cc1ac6402b90fc2fddeb95,<b>I would need to learn something utterly shocking about my party in order to change my political views.,Highly disagree,15/94,Somewhat disagree,2,1708006694765,1708006711282,\Highly disagree\,\Somewhat disagree\,\1\,1708006700706,1708006710529,5941,15764,16517,buq,qns-item-noham,15,84024,0.0-1.0-0.14,65ce1c77726e59eeb6124a06,AWAITING REVIEW,2024-02-15T14:15:34.016000Z,2024-02-15T14:26:09.007000Z,,2024-02-15T14:26:09.731440Z,635.0,CVPIIDEI,4,26,Female,Asian,United States,United States,United States,English,No,Full-Time,Not Applicable
65cc1ac6402b90fc2fddeb95,"<b>When I have new experiences, I tend to think of them as unique.",Highly disagree,16/94,Somewhat agree,3,1708006711284,1708006715545,\Somewhat agree\,\Somewhat agree\,\3\,1708006714994,1708006714994,3710,3710,4261,buq,qns-item-noham,16,88287,0.0-1.0-0.15,65ce1c77726e59eeb6124a06,AWAITING REVIEW,2024-02-15T14:15:34.016000Z,2024-02-15T14:26:09.007000Z,,2024-02-15T14:26:09.731440Z,635.0,CVPIIDEI,4,26,Female,Asian,United States,United States,United States,English,No,Full-Time,Not Applicable
65cc1ac6402b90fc2fddeb95,<b>I change my mind about specific policies pretty frequently.,Highly disagree,17/94,Somewhat disagree,2,1708006715547,1708006725009,\Somewhat disagree\,\Somewhat disagree\,\2\,1708006721986,1708006724265,6439,8718,9462,buq,qns-item-noham,17,97751,0.0-1.0-0.16,65ce1c77726e59eeb6124a06,AWAITING REVIEW,2024-02-15T14:15:34.016000Z,2024-02-15T14:26:09.007000Z,,2024-02-15T14:26:09.731440Z,635.0,CVPIIDEI,4,26,Female,Asian,United States,United States,United States,English,No,Full-Time,Not Applicable
65cc1ac6402b90fc2fddeb95,"<b>If a politician in my political party supports something I disagree with, I give them the benefit of the doubt, as such issues often involve hidden complexities that aren?t obvious.   ",Highly disagree,18/94,Somewhat disagree,2,1708006725011,1708006740011,\Somewhat disagree\,\Somewhat disagree\,\2\,1708006739299,1708006739299,14288,14288,15000,buq,qns-item-noham,18,112753,0.0-1.0-0.17,65ce1c77726e59eeb6124a06,AWAITING REVIEW,2024-02-15T14:15:34.016000Z,2024-02-15T14:26:09.007000Z,,2024-02-15T14:26:09.731440Z,635.0,CVPIIDEI,4,26,Female,Asian,United States,United States,United States,English,No,Full-Time,Not Applicable
65cc1ac6402b90fc2fddeb95,<b>People?s bad politics are usually motivated by hatefulness.,Highly disagree,19/94,Highly agree,4,1708006740013,1708006744827,\Highly agree\,\Highly agree\,\4\,1708006744203,1708006744203,4190,4190,4814,buq,qns-item-noham,19,117569,0.0-1.0-0.18,65ce1c77726e59eeb6124a06,AWAITING REVIEW,2024-02-15T14:15:34.016000Z,2024-02-15T14:26:09.007000Z,,2024-02-15T14:26:09.731440Z,635.0,CVPIIDEI,4,26,Female,Asian,United States,United States,United States,English,No,Full-Time,Not Applicable
65cc1ac6402b90fc2fddeb95,<b>I think a lot about how to reconcile my beliefs with one another.,Highly disagree,20/94,Somewhat agree,3,1708006744828,1708006749282,\Somewhat agree\,\Somewhat agree\,\3\,1708006748547,1708006748547,3719,3719,4454,buq,qns-item-noham,20,122024,0.0-1.0-0.19,65ce1c77726e59eeb6124a06,AWAITING REVIEW,2024-02-15T14:15:34.016000Z,2024-02-15T14:26:09.007000Z,,2024-02-15T14:26:09.731440Z,635.0,CVPIIDEI,4,26,Female,Asian,United States,United States,United States,English,No,Full-Time,Not Applicable
65cc1ac6402b90fc2fddeb95,<b>I might have false beliefs about important topics.,Highly disagree,21/94,Highly agree,4,1708006749284,1708006756027,\Highly agree\,\Highly agree\,\4\,1708006755227,1708006755227,5943,5943,6743,buq,qns-item-noham,21,128769,0.0-1.0-0.20,65ce1c77726e59eeb6124a06,AWAITING REVIEW,2024-02-15T14:15:34.016000Z,2024-02-15T14:26:09.007000Z,,2024-02-15T14:26:09.731440Z,635.0,CVPIIDEI,4,26,Female,Asian,United States,United States,United States,English,No,Full-Time,Not Applicable
65cc1ac6402b90fc2fddeb95,"<b>If a good friend of mine does something unexpected that upsets me, I feel like I don?t know them anymore.",Highly disagree,22/94,Somewhat agree,3,1708006756029,1708006763050,\Somewhat agree\,\Somewhat agree\,\3\,1708006762411,1708006762411,6382,6382,7021,buq,qns-item-noham,22,135792,0.0-1.0-0.21,65ce1c77726e59eeb6124a06,AWAITING REVIEW,2024-02-15T14:15:34.016000Z,2024-02-15T14:26:09.007000Z,,2024-02-15T14:26:09.731440Z,635.0,CVPIIDEI,4,26,Female,Asian,United States,United States,United States,English,No,Full-Time,Not Applicable
65cc1ac6402b90fc2fddeb95,<b>Other people?s beliefs are often incoherent.,Highly disagree,23/94,Highly disagree,1,1708006763051,1708006767291,\Highly disagree\,\Highly disagree\,\1\,1708006766579,1708006766579,3528,3528,4240,buq,qns-item-noham,23,140033,0.0-1.0-0.22,65ce1c77726e59eeb6124a06,AWAITING REVIEW,2024-02-15T14:15:34.016000Z,2024-02-15T14:26:09.007000Z,,2024-02-15T14:26:09.731440Z,635.0,CVPIIDEI,4,26,Female,Asian,United States,United States,United States,English,No,Full-Time,Not Applicable
65cc1ac6402b90fc2fddeb95,"<b>Every now and then, a new experience will unsettle beliefs I?ve had for a while.",Highly disagree,24/94,Somewhat disagree,2,1708006767292,1708006775404,\Somewhat disagree\,\Somewhat disagree\,\2\,1708006772091,1708006772091,4799,4799,8112,buq,qns-item-noham,24,148146,0.0-1.0-0.23,65ce1c77726e59eeb6124a06,AWAITING REVIEW,2024-02-15T14:15:34.016000Z,2024-02-15T14:26:09.007000Z,,2024-02-15T14:26:09.731440Z,635.0,CVPIIDEI,4,26,Female,Asian,United States,United States,United States,English,No,Full-Time,Not Applicable
65cc1ac6402b90fc2fddeb95,<b>Some policies I agree with in principle are so bad I don?t support them. ,Highly disagree,25/94,Highly disagree,1,1708006775405,1708006784571,\Highly disagree\,\Highly disagree\,\1\,1708006783805,1708006783805,8400,8400,9166,buq,qns-item-noham,25,157313,0.0-1.0-0.24,65ce1c77726e59eeb6124a06,AWAITING REVIEW,2024-02-15T14:15:34.016000Z,2024-02-15T14:26:09.007000Z,,2024-02-15T14:26:09.731440Z,635.0,CVPIIDEI,4,26,Female,Asian,United States,United States,United States,English,No,Full-Time,Not Applicable
65cc1ac6402b90fc2fddeb95,<b>I?m pretty sure I?ve accidentally spread false information.,Highly disagree,26/94,Highly agree,4,1708006784572,1708006788410,\Highly agree\,\Highly agree\,\4\,1708006787675,1708006787675,3103,3103,3838,buq,qns-item-noham,26,161152,0.0-1.0-0.25,65ce1c77726e59eeb6124a06,AWAITING REVIEW,2024-02-15T14:15:34.016000Z,2024-02-15T14:26:09.007000Z,,2024-02-15T14:26:09.731440Z,635.0,CVPIIDEI,4,26,Female,Asian,United States,United States,United States,English,No,Full-Time,Not Applicable
65cc1ac6402b90fc2fddeb95,"<b>If I go to my favorite restaurant and the food is unexpectedly bad, then they have changed owners.",Highly disagree,27/94,Highly disagree,1,1708006788412,1708006793123,\Highly disagree\,\Highly disagree\,\1\,1708006791700,1708006791700,3288,3288,4711,buq,qns-item-noham,27,165865,0.0-1.0-0.26,65ce1c77726e59eeb6124a06,AWAITING REVIEW,2024-02-15T14:15:34.016000Z,2024-02-15T14:26:09.007000Z,,2024-02-15T14:26:09.731440Z,635.0,CVPIIDEI,4,26,Female,Asian,United States,United States,United States,English,No,Full-Time,Not Applicable
65cc1ac6402b90fc2fddeb95,"<b>In politics, it?s important to trust your friends and family.",Highly disagree,28/94,Highly disagree,1,1708006793125,1708006795891,\Highly disagree\,\Highly disagree\,\1\,1708006795140,1708006795140,2015,2015,2766,buq,qns-item-noham,28,168633,0.0-1.0-0.27,65ce1c77726e59eeb6124a06,AWAITING REVIEW,2024-02-15T14:15:34.016000Z,2024-02-15T14:26:09.007000Z,,2024-02-15T14:26:09.731440Z,635.0,CVPIIDEI,4,26,Female,Asian,United States,United States,United States,English,No,Full-Time,Not Applicable
65cc1ac6402b90fc2fddeb95,<b>It?s OK to have some conflicting beliefs.,Highly disagree,29/94,Somewhat agree,3,1708006795893,1708006799004,\Somewhat agree\,\Somewhat agree\,\3\,1708006797947,1708006797947,2054,2054,3111,buq,qns-item-noham,29,171746,0.0-1.0-0.28,65ce1c77726e59eeb6124a06,AWAITING REVIEW,2024-02-15T14:15:34.016000Z,2024-02-15T14:26:09.007000Z,,2024-02-15T14:26:09.731440Z,635.0,CVPIIDEI,4,26,Female,Asian,United States,United States,United States,English,No,Full-Time,Not Applicable
65cc1ac6402b90fc2fddeb95,<b>Listening to people I disagree with makes my opinions better.,Highly disagree,30/94,Somewhat disagree,2,1708006799006,1708006805091,\Highly disagree\,\Somewhat disagree\,\1\,1708006802723,1708006804387,3717,5381,6085,buq,qns-item-noham,30,177834,0.0-1.0-0.29,65ce1c77726e59eeb6124a06,AWAITING REVIEW,2024-02-15T14:15:34.016000Z,2024-02-15T14:26:09.007000Z,,2024-02-15T14:26:09.731440Z,635.0,CVPIIDEI,4,26,Female,Asian,United States,United States,United States,English,No,Full-Time,Not Applicable
65cc1ac6402b90fc2fddeb95,<b>My moral compass sometimes makes it harder to determine what?s true.,Highly disagree,31/94,Highly disagree,1,1708006805093,1708006808795,\Highly disagree\,\Highly disagree\,\1\,1708006808163,1708006808163,3070,3070,3702,buq,qns-item-noham,31,181537,0.0-1.0-0.30,65ce1c77726e59eeb6124a06,AWAITING REVIEW,2024-02-15T14:15:34.016000Z,2024-02-15T14:26:09.007000Z,,2024-02-15T14:26:09.731440Z,635.0,CVPIIDEI,4,26,Female,Asian,United States,United States,United States,English,No,Full-Time,Not Applicable
65cc1ac6402b90fc2fddeb95,<b>Evidence pointing in the wrong direction isn?t really evidence at all.,Highly disagree,32/94,Highly disagree,1,1708006808796,1708006815084,\Highly disagree\,\Highly disagree\,\1\,1708006814149,1708006814149,5353,5353,6288,buq,qns-item-noham,32,187826,0.0-1.0-0.31,65ce1c77726e59eeb6124a06,AWAITING REVIEW,2024-02-15T14:15:34.016000Z,2024-02-15T14:26:09.007000Z,,2024-02-15T14:26:09.731440Z,635.0,CVPIIDEI,4,26,Female,Asian,United States,United States,United States,English,No,Full-Time,Not Applicable
65cc1ac6402b90fc2fddeb95,"<b>If the political party I support messes up, it makes me think politics is rotten.",Highly disagree,33/94,Somewhat agree,3,1708006815086,1708006819676,\Somewhat agree\,\Somewhat agree\,\3\,1708006819156,1708006819156,4070,4070,4590,buq,qns-item-noham,33,192418,0.0-1.0-0.32,65ce1c77726e59eeb6124a06,AWAITING REVIEW,2024-02-15T14:15:34.016000Z,2024-02-15T14:26:09.007000Z,,2024-02-15T14:26:09.731440Z,635.0,CVPIIDEI,4,26,Female,Asian,United States,United States,United States,English,No,Full-Time,Not Applicable
65cc1ac6402b90fc2fddeb95,<b>Lots of important topics can only really be understood by some groups of people.,Highly disagree,34/94,Highly disagree,1,1708006819677,1708006823755,\Highly disagree\,\Highly disagree\,\1\,1708006823155,1708006823155,3478,3478,4078,buq,qns-item-noham,34,196497,0.0-1.0-0.33,65ce1c77726e59eeb6124a06,AWAITING REVIEW,2024-02-15T14:15:34.016000Z,2024-02-15T14:26:09.007000Z,,2024-02-15T14:26:09.731440Z,635.0,CVPIIDEI,4,26,Female,Asian,United States,United States,United States,English,No,Full-Time,Not Applicable
65cc1ac6402b90fc2fddeb95,<b>Having conflicting beliefs means you haven?t thought about them enough.,Highly disagree,35/94,Highly disagree,1,1708006823757,1708006827083,\Highly disagree\,\Highly disagree\,\1\,1708006826468,1708006826468,2711,2711,3326,buq,qns-item-noham,35,199825,0.0-1.0-0.34,65ce1c77726e59eeb6124a06,AWAITING REVIEW,2024-02-15T14:15:34.016000Z,2024-02-15T14:26:09.007000Z,,2024-02-15T14:26:09.731440Z,635.0,CVPIIDEI,4,26,Female,Asian,United States,United States,United States,English,No,Full-Time,Not Applicable
65cc1ac6402b90fc2fddeb95,<b>I do not often change my political opinions.,Highly disagree,36/94,Somewhat disagree,2,1708006827085,1708006831027,\Somewhat disagree\,\Somewhat disagree\,\2\,1708006830171,1708006830171,3086,3086,3942,buq,qns-item-noham,36,203769,0.0-1.0-0.35,65ce1c77726e59eeb6124a06,AWAITING REVIEW,2024-02-15T14:15:34.016000Z,2024-02-15T14:26:09.007000Z,,2024-02-15T14:26:09.731440Z,635.0,CVPIIDEI,4,26,Female,Asian,United States,United States,United States,English,No,Full-Time,Not Applicable
65cc1ac6402b90fc2fddeb95,<b>It?s difficult to not have at least some conflicting beliefs.,Highly disagree,37/94,Highly agree,4,1708006831029,1708006833811,\Highly agree\,\Highly agree\,\4\,1708006833219,1708006833219,2190,2190,2782,buq,qns-item-noham,37,206553,0.0-1.0-0.36,65ce1c77726e59eeb6124a06,AWAITING REVIEW,2024-02-15T14:15:34.016000Z,2024-02-15T14:26:09.007000Z,,2024-02-15T14:26:09.731440Z,635.0,CVPIIDEI,4,26,Female,Asian,United States,United States,United States,English,No,Full-Time,Not Applicable
65cc1ac6402b90fc2fddeb95,<b>Wishful thinking causes a lot of problems.,Highly disagree,38/94,Highly agree,4,1708006833813,1708006838596,\Highly agree\,\Highly agree\,\4\,1708006837155,1708006837155,3342,3342,4783,buq,qns-item-noham,38,211338,0.0-1.0-0.37,65ce1c77726e59eeb6124a06,AWAITING REVIEW,2024-02-15T14:15:34.016000Z,2024-02-15T14:26:09.007000Z,,2024-02-15T14:26:09.731440Z,635.0,CVPIIDEI,4,26,Female,Asian,United States,United States,United States,English,No,Full-Time,Not Applicable
65cc1ac6402b90fc2fddeb95,<b>I judge a food item only once I try it many times.,Highly disagree,39/94,Highly disagree,1,1708006838598,1708006843924,\Somewhat disagree\,\Highly disagree\,\2\,1708006841803,1708006842732,3205,4134,5326,buq,qns-item-noham,39,216666,0.0-1.0-0.38,65ce1c77726e59eeb6124a06,AWAITING REVIEW,2024-02-15T14:15:34.016000Z,2024-02-15T14:26:09.007000Z,,2024-02-15T14:26:09.731440Z,635.0,CVPIIDEI,4,26,Female,Asian,United States,United States,United States,English,No,Full-Time,Not Applicable
65cc1ac6402b90fc2fddeb95,"<b>When a person holds conflicting beliefs, they should really try to figure out what?s wrong.",Highly disagree,40/94,Highly disagree,1,1708006843925,1708006853668,\Somewhat disagree\,\Highly disagree\,\2\,1708006851747,1708006852796,7822,8871,9743,buq,qns-item-noham,40,226411,0.0-1.0-0.39,65ce1c77726e59eeb6124a06,AWAITING REVIEW,2024-02-15T14:15:34.016000Z,2024-02-15T14:26:09.007000Z,,2024-02-15T14:26:09.731440Z,635.0,CVPIIDEI,4,26,Female,Asian,United States,United States,United States,English,No,Full-Time,Not Applicable
65cc1ac6402b90fc2fddeb95,<b>Knowing what?s important in life is easy.,Highly disagree,41/94,Highly disagree,1,1708006853670,1708006860679,\Highly disagree\,\Highly disagree\,\1\,1708006859797,1708006859797,6127,6127,7009,buq,qns-item-noham,41,233421,0.0-1.0-0.40,65ce1c77726e59eeb6124a06,AWAITING REVIEW,2024-02-15T14:15:34.016000Z,2024-02-15T14:26:09.007000Z,,2024-02-15T14:26:09.731440Z,635.0,CVPIIDEI,4,26,Female,Asian,United States,United States,United States,English,No,Full-Time,Not Applicable
65cc1ac6402b90fc2fddeb95,<b>I swim across the Atlantic Ocean to get to work every day.,Highly disagree,42/94,Highly disagree,1,1708006860680,1708006865029,\Highly disagree\,\Highly disagree\,\1\,1708006864261,1708006864261,3581,3581,4349,buq,qns-item-noham,42,237771,0.0-1.0-0.41,65ce1c77726e59eeb6124a06,AWAITING REVIEW,2024-02-15T14:15:34.016000Z,2024-02-15T14:26:09.007000Z,,2024-02-15T14:26:09.731440Z,635.0,CVPIIDEI,4,26,Female,Asian,United States,United States,United States,English,No,Full-Time,Not Applicable
65cc1ac6402b90fc2fddeb95,"<b>Sometimes, you just have to ignore evidence that you know is wrong.",Highly disagree,43/94,Highly disagree,1,1708006865030,1708006870109,\Highly disagree\,\Highly disagree\,\1\,1708006869494,1708006869494,4464,4464,5079,buq,qns-item-noham,43,242851,0.0-1.0-0.42,65ce1c77726e59eeb6124a06,AWAITING REVIEW,2024-02-15T14:15:34.016000Z,2024-02-15T14:26:09.007000Z,,2024-02-15T14:26:09.731440Z,635.0,CVPIIDEI,4,26,Female,Asian,United States,United States,United States,English,No,Full-Time,Not Applicable
65cc1ac6402b90fc2fddeb95,<b>I have had some false beliefs.,Highly disagree,44/94,Somewhat agree,3,1708006870110,1708006876260,\Somewhat agree\,\Somewhat agree\,\3\,1708006875437,1708006875437,5327,5327,6150,buq,qns-item-noham,44,249002,0.0-1.0-0.43,65ce1c77726e59eeb6124a06,AWAITING REVIEW,2024-02-15T14:15:34.016000Z,2024-02-15T14:26:09.007000Z,,2024-02-15T14:26:09.731440Z,635.0,CVPIIDEI,4,26,Female,Asian,United States,United States,United States,English,No,Full-Time,Not Applicable
65cc1ac6402b90fc2fddeb95,"<b>If one friend does something that upsets me, I sometimes start to distrust people in general.",Highly disagree,45/94,Somewhat agree,3,1708006876263,1708006885012,\Somewhat agree\,\Somewhat agree\,\3\,1708006883572,1708006883572,7309,7309,8749,buq,qns-item-noham,45,257754,0.0-1.0-0.44,65ce1c77726e59eeb6124a06,AWAITING REVIEW,2024-02-15T14:15:34.016000Z,2024-02-15T14:26:09.007000Z,,2024-02-15T14:26:09.731440Z,635.0,CVPIIDEI,4,26,Female,Asian,United States,United States,United States,English,No,Full-Time,Not Applicable
65cc1ac6402b90fc2fddeb95,<b>The facts about most important matters are easy to find.,Highly disagree,46/94,Highly disagree,1,1708006885014,1708006888436,\Highly disagree\,\Highly disagree\,\1\,1708006887668,1708006887668,2654,2654,3422,buq,qns-item-noham,46,261178,0.0-1.0-0.45,65ce1c77726e59eeb6124a06,AWAITING REVIEW,2024-02-15T14:15:34.016000Z,2024-02-15T14:26:09.007000Z,,2024-02-15T14:26:09.731440Z,635.0,CVPIIDEI,4,26,Female,Asian,United States,United States,United States,English,No,Full-Time,Not Applicable
65cc1ac6402b90fc2fddeb95,<b>It?s better to know what?s true than to know what?s moral.,Highly disagree,47/94,Highly agree,4,1708006888437,1708006892109,\Highly agree\,\Highly agree\,\4\,1708006891428,1708006891428,2991,2991,3672,buq,qns-item-noham,47,264851,0.0-1.0-0.46,65ce1c77726e59eeb6124a06,AWAITING REVIEW,2024-02-15T14:15:34.016000Z,2024-02-15T14:26:09.007000Z,,2024-02-15T14:26:09.731440Z,635.0,CVPIIDEI,4,26,Female,Asian,United States,United States,United States,English,No,Full-Time,Not Applicable
65cc1ac6402b90fc2fddeb95,<b>I used to think the world was less complicated than I do now.,Highly disagree,48/94,Somewhat agree,3,1708006892110,1708006896758,\Somewhat agree\,\Somewhat agree\,\3\,1708006896156,1708006896156,4046,4046,4648,buq,qns-item-noham,48,269500,0.0-1.0-0.47,65ce1c77726e59eeb6124a06,AWAITING REVIEW,2024-02-15T14:15:34.016000Z,2024-02-15T14:26:09.007000Z,,2024-02-15T14:26:09.731440Z,635.0,CVPIIDEI,4,26,Female,Asian,United States,United States,United States,English,No,Full-Time,Not Applicable
65cc1ac6402b90fc2fddeb95,<b>People are usually completely right or completely wrong.,Highly disagree,49/94,Highly disagree,1,1708006896759,1708006899580,\Highly disagree\,\Highly disagree\,\1\,1708006898773,1708006898773,2014,2014,2821,buq,qns-item-noham,49,272322,0.0-1.0-0.48,65ce1c77726e59eeb6124a06,AWAITING REVIEW,2024-02-15T14:15:34.016000Z,2024-02-15T14:26:09.007000Z,,2024-02-15T14:26:09.731440Z,635.0,CVPIIDEI,4,26,Female,Asian,United States,United States,United States,English,No,Full-Time,Not Applicable
65cc1ac6402b90fc2fddeb95,<b>I spend a lot of time considering alternatives to my beliefs.,Highly disagree,50/94,Somewhat disagree,2,1708006899581,1708006903964,\Somewhat disagree\,\Somewhat disagree\,\2\,1708006903356,1708006903356,3775,3775,4383,buq,qns-item-noham,50,276706,0.0-1.0-0.49,65ce1c77726e59eeb6124a06,AWAITING REVIEW,2024-02-15T14:15:34.016000Z,2024-02-15T14:26:09.007000Z,,2024-02-15T14:26:09.731440Z,635.0,CVPIIDEI,4,26,Female,Asian,United States,United States,United States,English,No,Full-Time,Not Applicable
65cc1ac6402b90fc2fddeb95,"<b>Political enemies need to be defeated, not convinced.",Highly disagree,51/94,Highly disagree,1,1708006903965,1708006906764,\Highly disagree\,\Highly disagree\,\1\,1708006905916,1708006905916,1951,1951,2799,buq,qns-item-noham,51,279506,0.0-1.0-0.50,65ce1c77726e59eeb6124a06,AWAITING REVIEW,2024-02-15T14:15:34.016000Z,2024-02-15T14:26:09.007000Z,,2024-02-15T14:26:09.731440Z,635.0,CVPIIDEI,4,26,Female,Asian,United States,United States,United States,English,No,Full-Time,Not Applicable
65cc1ac6402b90fc2fddeb95,<b>I form my political views only after meticulously gathering historical and present information about their policies.,Highly disagree,52/94,Somewhat disagree,2,1708006906765,1708006911900,\Somewhat disagree\,\Somewhat disagree\,\2\,1708006910957,1708006910957,4192,4192,5135,buq,qns-item-noham,52,284642,0.0-1.0-0.51,65ce1c77726e59eeb6124a06,AWAITING REVIEW,2024-02-15T14:15:34.016000Z,2024-02-15T14:26:09.007000Z,,2024-02-15T14:26:09.731440Z,635.0,CVPIIDEI,4,26,Female,Asian,United States,United States,United States,English,No,Full-Time,Not Applicable
65cc1ac6402b90fc2fddeb95,<b>It is difficult for me to remember the last time I was surprised by politics.,Highly disagree,53/94,Highly agree,4,1708006911901,1708006917149,\Highly agree\,\Highly agree\,\4\,1708006915645,1708006915645,3744,3744,5248,buq,qns-item-noham,53,289891,0.0-1.0-0.52,65ce1c77726e59eeb6124a06,AWAITING REVIEW,2024-02-15T14:15:34.016000Z,2024-02-15T14:26:09.007000Z,,2024-02-15T14:26:09.731440Z,635.0,CVPIIDEI,4,26,Female,Asian,United States,United States,United States,English,No,Full-Time,Not Applicable
65cc1ac6402b90fc2fddeb95,"<b>When I find out I?m wrong, I think a lot about my related beliefs.",Highly disagree,54/94,Somewhat agree,3,1708006917150,1708006922149,\Somewhat agree\,\Somewhat agree\,\3\,1708006921597,1708006921597,4447,4447,4999,buq,qns-item-noham,54,294891,0.0-1.0-0.53,65ce1c77726e59eeb6124a06,AWAITING REVIEW,2024-02-15T14:15:34.016000Z,2024-02-15T14:26:09.007000Z,,2024-02-15T14:26:09.731440Z,635.0,CVPIIDEI,4,26,Female,Asian,United States,United States,United States,English,No,Full-Time,Not Applicable
65cc1ac6402b90fc2fddeb95,"<b>If the political party I support messes up, it makes me think you can?t trust anyone these days",Highly disagree,55/94,Somewhat agree,3,1708006922150,1708006926517,\Somewhat agree\,\Somewhat agree\,\3\,1708006925757,1708006925757,3607,3607,4367,buq,qns-item-noham,55,299259,0.0-1.0-0.54,65ce1c77726e59eeb6124a06,AWAITING REVIEW,2024-02-15T14:15:34.016000Z,2024-02-15T14:26:09.007000Z,,2024-02-15T14:26:09.731440Z,635.0,CVPIIDEI,4,26,Female,Asian,United States,United States,United States,English,No,Full-Time,Not Applicable
65cc1ac6402b90fc2fddeb95,<b>People?s brains turn off when they talk about politics.,Highly disagree,56/94,Highly disagree,1,1708006926519,1708006930688,\Highly disagree\,\Highly disagree\,\1\,1708006929877,1708006929877,3358,3358,4169,buq,qns-item-noham,56,303430,0.0-1.0-0.55,65ce1c77726e59eeb6124a06,AWAITING REVIEW,2024-02-15T14:15:34.016000Z,2024-02-15T14:26:09.007000Z,,2024-02-15T14:26:09.731440Z,635.0,CVPIIDEI,4,26,Female,Asian,United States,United States,United States,English,No,Full-Time,Not Applicable
65cc1ac6402b90fc2fddeb95,<b>People who are wrong are usually just ignoring the obvious.,Highly disagree,57/94,Somewhat disagree,2,1708006930689,1708006934757,\Somewhat disagree\,\Somewhat disagree\,\2\,1708006933437,1708006933437,2748,2748,4068,buq,qns-item-noham,57,307499,0.0-1.0-0.56,65ce1c77726e59eeb6124a06,AWAITING REVIEW,2024-02-15T14:15:34.016000Z,2024-02-15T14:26:09.007000Z,,2024-02-15T14:26:09.731440Z,635.0,CVPIIDEI,4,26,Female,Asian,United States,United States,United States,English,No,Full-Time,Not Applicable
65cc1ac6402b90fc2fddeb95,"<b>When forming my views on people, I rely more on what they are like now rather than rely on my past experience with them.",Highly disagree,58/94,Somewhat agree,3,1708006934758,1708006941319,\Somewhat agree\,\Somewhat agree\,\3\,1708006940581,1708006940581,5823,5823,6561,buq,qns-item-noham,58,314061,0.0-1.0-0.57,65ce1c77726e59eeb6124a06,AWAITING REVIEW,2024-02-15T14:15:34.016000Z,2024-02-15T14:26:09.007000Z,,2024-02-15T14:26:09.731440Z,635.0,CVPIIDEI,4,26,Female,Asian,United States,United States,United States,English,No,Full-Time,Not Applicable
65cc1ac6402b90fc2fddeb95,"<b>When people contradict my beliefs, I usually know about their evidence already.",Highly disagree,59/94,Somewhat agree,3,1708006941321,1708006948901,\Somewhat disagree\,\Somewhat agree\,\2\,1708006946005,1708006947565,4684,6244,7580,buq,qns-item-noham,59,321643,0.0-1.0-0.58,65ce1c77726e59eeb6124a06,AWAITING REVIEW,2024-02-15T14:15:34.016000Z,2024-02-15T14:26:09.007000Z,,2024-02-15T14:26:09.731440Z,635.0,CVPIIDEI,4,26,Female,Asian,United States,United States,United States,English,No,Full-Time,Not Applicable
65cc1ac6402b90fc2fddeb95,<b>Figuring out what?s true and what?s false mainly requires a strong moral compass.,Highly disagree,60/94,Highly disagree,1,1708006948903,1708006952735,\Highly disagree\,\Highly disagree\,\1\,1708006951845,1708006951845,2942,2942,3832,buq,qns-item-noham,60,325477,0.0-1.0-0.59,65ce1c77726e59eeb6124a06,AWAITING REVIEW,2024-02-15T14:15:34.016000Z,2024-02-15T14:26:09.007000Z,,2024-02-15T14:26:09.731440Z,635.0,CVPIIDEI,4,26,Female,Asian,United States,United States,United States,English,No,Full-Time,Not Applicable
65cc1ac6402b90fc2fddeb95,"<b>Usually I?m wrong about simple things, not complicated ones.",Highly disagree,61/94,Somewhat agree,3,1708006952736,1708006960589,\Somewhat agree\,\Somewhat agree\,\3\,1708006959509,1708006959509,6773,6773,7853,buq,qns-item-noham,61,333331,0.0-1.0-0.60,65ce1c77726e59eeb6124a06,AWAITING REVIEW,2024-02-15T14:15:34.016000Z,2024-02-15T14:26:09.007000Z,,2024-02-15T14:26:09.731440Z,635.0,CVPIIDEI,4,26,Female,Asian,United States,United States,United States,English,No,Full-Time,Not Applicable
65cc1ac6402b90fc2fddeb95,<b>Getting all the information I want about important things is hard.,Highly disagree,62/94,Highly agree,4,1708006960590,1708006966717,\Highly agree\,\Highly agree\,\4\,1708006965957,1708006965957,5367,5367,6127,buq,qns-item-noham,62,339460,0.0-1.0-0.61,65ce1c77726e59eeb6124a06,AWAITING REVIEW,2024-02-15T14:15:34.016000Z,2024-02-15T14:26:09.007000Z,,2024-02-15T14:26:09.731440Z,635.0,CVPIIDEI,4,26,Female,Asian,United States,United States,United States,English,No,Full-Time,Not Applicable
65cc1ac6402b90fc2fddeb95,<b>Most false beliefs spread because people try to deceive one another.,Highly disagree,63/94,Somewhat agree,3,1708006966719,1708006972950,\Somewhat disagree\,\Somewhat agree\,\2\,1708006970373,1708006972045,3654,5326,6231,buq,qns-item-noham,63,345692,0.0-1.0-0.62,65ce1c77726e59eeb6124a06,AWAITING REVIEW,2024-02-15T14:15:34.016000Z,2024-02-15T14:26:09.007000Z,,2024-02-15T14:26:09.731440Z,635.0,CVPIIDEI,4,26,Female,Asian,United States,United States,United States,English,No,Full-Time,Not Applicable
65cc1ac6402b90fc2fddeb95,<b>I can usually find something to agree with in most people?s beliefs.,Highly disagree,64/94,Highly agree,4,1708006972952,1708006976694,\Somewhat agree\,\Highly agree\,\3\,1708006975174,1708006975831,2222,2879,3742,buq,qns-item-noham,64,349436,0.0-1.0-0.63,65ce1c77726e59eeb6124a06,AWAITING REVIEW,2024-02-15T14:15:34.016000Z,2024-02-15T14:26:09.007000Z,,2024-02-15T14:26:09.731440Z,635.0,CVPIIDEI,4,26,Female,Asian,United States,United States,United States,English,No,Full-Time,Not Applicable
65cc1ac6402b90fc2fddeb95,<b>I only form my views of people once I get to know them very well.,Highly disagree,65/94,Highly agree,4,1708006976696,1708006980942,\Highly agree\,\Highly agree\,\4\,1708006979702,1708006979702,3006,3006,4246,buq,qns-item-noham,65,353684,0.0-1.0-0.64,65ce1c77726e59eeb6124a06,AWAITING REVIEW,2024-02-15T14:15:34.016000Z,2024-02-15T14:26:09.007000Z,,2024-02-15T14:26:09.731440Z,635.0,CVPIIDEI,4,26,Female,Asian,United States,United States,United States,English,No,Full-Time,Not Applicable
65cc1ac6402b90fc2fddeb95,"<b>When people tell me important things about the world, I usually believe them.",Highly disagree,66/94,Somewhat disagree,2,1708006980943,1708006985134,\Somewhat disagree\,\Somewhat disagree\,\2\,1708006983709,1708006983709,2766,2766,4191,buq,qns-item-noham,66,357876,0.0-1.0-0.65,65ce1c77726e59eeb6124a06,AWAITING REVIEW,2024-02-15T14:15:34.016000Z,2024-02-15T14:26:09.007000Z,,2024-02-15T14:26:09.731440Z,635.0,CVPIIDEI,4,26,Female,Asian,United States,United States,United States,English,No,Full-Time,Not Applicable
65cc1ac6402b90fc2fddeb95,"<b>If a friend does something that upsets me, it reminds me what an unpredictable place the world is.",Highly disagree,67/94,Somewhat agree,3,1708006985136,1708006988925,\Somewhat agree\,\Somewhat agree\,\3\,1708006988150,1708006988150,3014,3014,3789,buq,qns-item-noham,67,361667,0.0-1.0-0.66,65ce1c77726e59eeb6124a06,AWAITING REVIEW,2024-02-15T14:15:34.016000Z,2024-02-15T14:26:09.007000Z,,2024-02-15T14:26:09.731440Z,635.0,CVPIIDEI,4,26,Female,Asian,United States,United States,United States,English,No,Full-Time,Not Applicable
65cc1ac6402b90fc2fddeb95,<b>People tend to believe whatever is good for their friends.,Highly disagree,68/94,Highly agree,4,1708006988927,1708006997461,\Somewhat agree\,\Highly agree\,\3\,1708006994486,1708006996550,5559,7623,8534,buq,qns-item-noham,68,370204,0.0-1.0-0.67,65ce1c77726e59eeb6124a06,AWAITING REVIEW,2024-02-15T14:15:34.016000Z,2024-02-15T14:26:09.007000Z,,2024-02-15T14:26:09.731440Z,635.0,CVPIIDEI,4,26,Female,Asian,United States,United States,United States,English,No,Full-Time,Not Applicable
65cc1ac6402b90fc2fddeb95,<b>I used to be more certain my beliefs were true.,Highly disagree,69/94,Somewhat agree,3,1708006997463,1708007003182,\Highly agree\,\Somewhat agree\,\4\,1708007000534,1708007002494,3071,5031,5719,buq,qns-item-noham,69,375924,0.0-1.0-0.68,65ce1c77726e59eeb6124a06,AWAITING REVIEW,2024-02-15T14:15:34.016000Z,2024-02-15T14:26:09.007000Z,,2024-02-15T14:26:09.731440Z,635.0,CVPIIDEI,4,26,Female,Asian,United States,United States,United States,English,No,Full-Time,Not Applicable
65cc1ac6402b90fc2fddeb95,<b>It?s often pretty easy to figure out whether something is true based on who said it.,Highly disagree,70/94,Somewhat agree,3,1708007003184,1708007011366,\Somewhat disagree\,\Somewhat agree\,\2\,1708007007710,1708007010605,4526,7421,8182,buq,qns-item-noham,70,384108,0.0-1.0-0.69,65ce1c77726e59eeb6124a06,AWAITING REVIEW,2024-02-15T14:15:34.016000Z,2024-02-15T14:26:09.007000Z,,2024-02-15T14:26:09.731440Z,635.0,CVPIIDEI,4,26,Female,Asian,United States,United States,United States,English,No,Full-Time,Not Applicable
65cc1ac6402b90fc2fddeb95,<b>I transform into a hummingbird every day.,Highly disagree,71/94,Highly disagree,1,1708007011368,1708007014446,\Highly disagree\,\Highly disagree\,\1\,1708007013238,1708007013238,1870,1870,3078,buq,qns-item-noham,71,387188,0.0-1.0-0.70,65ce1c77726e59eeb6124a06,AWAITING REVIEW,2024-02-15T14:15:34.016000Z,2024-02-15T14:26:09.007000Z,,2024-02-15T14:26:09.731440Z,635.0,CVPIIDEI,4,26,Female,Asian,United States,United States,United States,English,No,Full-Time,Not Applicable
65cc1ac6402b90fc2fddeb95,<b>I think a lot about arguments against my views.,Highly disagree,72/94,Somewhat disagree,2,1708007014447,1708007018813,\Somewhat disagree\,\Somewhat disagree\,\2\,1708007017245,1708007017245,2798,2798,4366,buq,qns-item-noham,72,391556,0.0-1.0-0.71,65ce1c77726e59eeb6124a06,AWAITING REVIEW,2024-02-15T14:15:34.016000Z,2024-02-15T14:26:09.007000Z,,2024-02-15T14:26:09.731440Z,635.0,CVPIIDEI,4,26,Female,Asian,United States,United States,United States,English,No,Full-Time,Not Applicable
65cc1ac6402b90fc2fddeb95,<b>Personal experience is usually more important than facts and figures.,Highly disagree,73/94,Highly disagree,1,1708007018815,1708007025646,\Somewhat disagree\,\Highly disagree\,\2\,1708007024382,1708007024893,5567,6078,6831,buq,qns-item-noham,73,398388,0.0-1.0-0.72,65ce1c77726e59eeb6124a06,AWAITING REVIEW,2024-02-15T14:15:34.016000Z,2024-02-15T14:26:09.007000Z,,2024-02-15T14:26:09.731440Z,635.0,CVPIIDEI,4,26,Female,Asian,United States,United States,United States,English,No,Full-Time,Not Applicable
65cc1ac6402b90fc2fddeb95,<b>I?ve been tricked before about important matters.,Highly disagree,74/94,Highly disagree,1,1708007025647,1708007028909,\Highly disagree\,\Highly disagree\,\1\,1708007028078,1708007028078,2431,2431,3262,buq,qns-item-noham,74,401651,0.0-1.0-0.73,65ce1c77726e59eeb6124a06,AWAITING REVIEW,2024-02-15T14:15:34.016000Z,2024-02-15T14:26:09.007000Z,,2024-02-15T14:26:09.731440Z,635.0,CVPIIDEI,4,26,Female,Asian,United States,United States,United States,English,No,Full-Time,Not Applicable
65cc1ac6402b90fc2fddeb95,<b>I would need to be totally wowed if I were to change my opinion of a restaurant I don?t like.,Highly disagree,75/94,Somewhat agree,3,1708007028911,1708007035910,\Somewhat agree\,\Somewhat agree\,\3\,1708007034878,1708007034878,5967,5967,6999,buq,qns-item-noham,75,408652,0.0-1.0-0.74,65ce1c77726e59eeb6124a06,AWAITING REVIEW,2024-02-15T14:15:34.016000Z,2024-02-15T14:26:09.007000Z,,2024-02-15T14:26:09.731440Z,635.0,CVPIIDEI,4,26,Female,Asian,United States,United States,United States,English,No,Full-Time,Not Applicable
65cc1ac6402b90fc2fddeb95,<b>I care a lot about politics.,Highly disagree,76/94,Somewhat disagree,2,1708007035911,1708007039702,\Somewhat agree\,\Somewhat disagree\,\3\,1708007038358,1708007039126,2447,3215,3791,buq,qns-item-noham,76,412444,0.0-1.0-0.75,65ce1c77726e59eeb6124a06,AWAITING REVIEW,2024-02-15T14:15:34.016000Z,2024-02-15T14:26:09.007000Z,,2024-02-15T14:26:09.731440Z,635.0,CVPIIDEI,4,26,Female,Asian,United States,United States,United States,English,No,Full-Time,Not Applicable
65cc1ac6402b90fc2fddeb95,<b>There are some topics I?ve been really wrong about.,Highly disagree,77/94,Somewhat agree,3,1708007039703,1708007042542,\Somewhat agree\,\Somewhat agree\,\3\,1708007041854,1708007041854,2151,2151,2839,buq,qns-item-noham,77,415284,0.0-1.0-0.76,65ce1c77726e59eeb6124a06,AWAITING REVIEW,2024-02-15T14:15:34.016000Z,2024-02-15T14:26:09.007000Z,,2024-02-15T14:26:09.731440Z,635.0,CVPIIDEI,4,26,Female,Asian,United States,United States,United States,English,No,Full-Time,Not Applicable
65cc1ac6402b90fc2fddeb95,<b>Most beliefs can be supported with at least some evidence.,Highly disagree,78/94,Somewhat disagree,2,1708007042543,1708007051287,\Somewhat disagree\,\Somewhat disagree\,\2\,1708007050318,1708007050318,7775,7775,8744,buq,qns-item-noham,78,424029,0.0-1.0-0.77,65ce1c77726e59eeb6124a06,AWAITING REVIEW,2024-02-15T14:15:34.016000Z,2024-02-15T14:26:09.007000Z,,2024-02-15T14:26:09.731440Z,635.0,CVPIIDEI,4,26,Female,Asian,United States,United States,United States,English,No,Full-Time,Not Applicable
65cc1ac6402b90fc2fddeb95,<b>Other people make life out to be more complicated than it really is.,Highly disagree,79/94,Somewhat agree,3,1708007051289,1708007056085,\Somewhat agree\,\Somewhat agree\,\3\,1708007055510,1708007055510,4221,4221,4796,buq,qns-item-noham,79,428827,0.0-1.0-0.78,65ce1c77726e59eeb6124a06,AWAITING REVIEW,2024-02-15T14:15:34.016000Z,2024-02-15T14:26:09.007000Z,,2024-02-15T14:26:09.731440Z,635.0,CVPIIDEI,4,26,Female,Asian,United States,United States,United States,English,No,Full-Time,Not Applicable
65cc1ac6402b90fc2fddeb95,"<b>Policy details don?t matter much, just the big picture.",Highly disagree,80/94,Highly disagree,1,1708007056087,1708007059533,\Highly disagree\,\Highly disagree\,\1\,1708007058910,1708007058910,2823,2823,3446,buq,qns-item-noham,80,432276,0.0-1.0-0.79,65ce1c77726e59eeb6124a06,AWAITING REVIEW,2024-02-15T14:15:34.016000Z,2024-02-15T14:26:09.007000Z,,2024-02-15T14:26:09.731440Z,635.0,CVPIIDEI,4,26,Female,Asian,United States,United States,United States,English,No,Full-Time,Not Applicable
65cc1ac6402b90fc2fddeb95,<b>I know my friends so well they can hardly ever surprise me.,Highly disagree,81/94,Somewhat disagree,2,1708007059535,1708007063534,\Somewhat disagree\,\Somewhat disagree\,\2\,1708007062166,1708007062166,2631,2631,3999,buq,qns-item-noham,81,436276,0.0-1.0-0.80,65ce1c77726e59eeb6124a06,AWAITING REVIEW,2024-02-15T14:15:34.016000Z,2024-02-15T14:26:09.007000Z,,2024-02-15T14:26:09.731440Z,635.0,CVPIIDEI,4,26,Female,Asian,United States,United States,United States,English,No,Full-Time,Not Applicable
65cc1ac6402b90fc2fddeb95,<b>I do not often change my views on people.,Highly disagree,82/94,Somewhat disagree,2,1708007063536,1708007067526,\Somewhat disagree\,\Somewhat disagree\,\2\,1708007066358,1708007066358,2822,2822,3990,buq,qns-item-noham,82,440268,0.0-1.0-0.81,65ce1c77726e59eeb6124a06,AWAITING REVIEW,2024-02-15T14:15:34.016000Z,2024-02-15T14:26:09.007000Z,,2024-02-15T14:26:09.731440Z,635.0,CVPIIDEI,4,26,Female,Asian,United States,United States,United States,English,No,Full-Time,Not Applicable
65cc1ac6402b90fc2fddeb95,<b>I?m more certain about my beliefs than I used to be.,Highly disagree,83/94,Somewhat disagree,2,1708007067527,1708007071709,\Somewhat disagree\,\Somewhat disagree\,\2\,1708007070982,1708007070982,3455,3455,4182,buq,qns-item-noham,83,444451,0.0-1.0-0.82,65ce1c77726e59eeb6124a06,AWAITING REVIEW,2024-02-15T14:15:34.016000Z,2024-02-15T14:26:09.007000Z,,2024-02-15T14:26:09.731440Z,635.0,CVPIIDEI,4,26,Female,Asian,United States,United States,United States,English,No,Full-Time,Not Applicable
65cc1ac6402b90fc2fddeb95,<b>People often tell falsehoods unintentionally.,Highly disagree,84/94,Highly agree,4,1708007071710,1708007075693,\Highly agree\,\Highly agree\,\4\,1708007075094,1708007075094,3384,3384,3983,buq,qns-item-noham,84,448435,0.0-1.0-0.83,65ce1c77726e59eeb6124a06,AWAITING REVIEW,2024-02-15T14:15:34.016000Z,2024-02-15T14:26:09.007000Z,,2024-02-15T14:26:09.731440Z,635.0,CVPIIDEI,4,26,Female,Asian,United States,United States,United States,English,No,Full-Time,Not Applicable
65cc1ac6402b90fc2fddeb95,<b>Most people don?t know much about most things.,Highly disagree,85/94,Somewhat disagree,2,1708007075694,1708007079525,\Somewhat disagree\,\Somewhat disagree\,\2\,1708007078814,1708007078814,3120,3120,3831,buq,qns-item-noham,85,452267,0.0-1.0-0.84,65ce1c77726e59eeb6124a06,AWAITING REVIEW,2024-02-15T14:15:34.016000Z,2024-02-15T14:26:09.007000Z,,2024-02-15T14:26:09.731440Z,635.0,CVPIIDEI,4,26,Female,Asian,United States,United States,United States,English,No,Full-Time,Not Applicable
65cc1ac6402b90fc2fddeb95,"<b>If I find out something new about someone, I easily change my views about them.",Highly disagree,86/94,Somewhat disagree,2,1708007079527,1708007084470,\Somewhat disagree\,\Somewhat disagree\,\2\,1708007083821,1708007083821,4294,4294,4943,buq,qns-item-noham,86,457212,0.0-1.0-0.85,65ce1c77726e59eeb6124a06,AWAITING REVIEW,2024-02-15T14:15:34.016000Z,2024-02-15T14:26:09.007000Z,,2024-02-15T14:26:09.731440Z,635.0,CVPIIDEI,4,26,Female,Asian,United States,United States,United States,English,No,Full-Time,Not Applicable
65cc1ac6402b90fc2fddeb95,<b>Having true beliefs is difficult.,Highly disagree,87/94,Highly agree,4,1708007084471,1708007088181,\Highly agree\,\Highly agree\,\4\,1708007087510,1708007087510,3039,3039,3710,buq,qns-item-noham,87,460924,0.0-1.0-0.86,65ce1c77726e59eeb6124a06,AWAITING REVIEW,2024-02-15T14:15:34.016000Z,2024-02-15T14:26:09.007000Z,,2024-02-15T14:26:09.731440Z,635.0,CVPIIDEI,4,26,Female,Asian,United States,United States,United States,English,No,Full-Time,Not Applicable
65cc1ac6402b90fc2fddeb95,<b>I don?t try new foods since I know I won?t like them.,Highly disagree,88/94,Highly disagree,1,1708007088183,1708007091198,\Highly disagree\,\Highly disagree\,\1\,1708007090430,1708007090430,2247,2247,3015,buq,qns-item-noham,88,463940,0.0-1.0-0.87,65ce1c77726e59eeb6124a06,AWAITING REVIEW,2024-02-15T14:15:34.016000Z,2024-02-15T14:26:09.007000Z,,2024-02-15T14:26:09.731440Z,635.0,CVPIIDEI,4,26,Female,Asian,United States,United States,United States,English,No,Full-Time,Not Applicable
65cc1ac6402b90fc2fddeb95,<b>Other people trick each other a lot.,Highly disagree,89/94,Somewhat disagree,2,1708007091201,1708007094790,\Somewhat disagree\,\Somewhat disagree\,\2\,1708007094134,1708007094134,2933,2933,3589,buq,qns-item-noham,89,467532,0.0-1.0-0.88,65ce1c77726e59eeb6124a06,AWAITING REVIEW,2024-02-15T14:15:34.016000Z,2024-02-15T14:26:09.007000Z,,2024-02-15T14:26:09.731440Z,635.0,CVPIIDEI,4,26,Female,Asian,United States,United States,United States,English,No,Full-Time,Not Applicable
65cc1ac6402b90fc2fddeb95,<b>I would need to learn a lot about a person for my opinion of them to be swayed.,Highly disagree,90/94,Somewhat agree,3,1708007094791,1708007099854,\Highly agree\,\Somewhat agree\,\4\,1708007097950,1708007099046,3159,4255,5063,buq,qns-item-noham,90,472596,0.0-1.0-0.89,65ce1c77726e59eeb6124a06,AWAITING REVIEW,2024-02-15T14:15:34.016000Z,2024-02-15T14:26:09.007000Z,,2024-02-15T14:26:09.731440Z,635.0,CVPIIDEI,4,26,Female,Asian,United States,United States,United States,English,No,Full-Time,Not Applicable
65cc1ac6402b90fc2fddeb95,<b>People can?t usually trick me when it comes to topics I care about.,Highly disagree,91/94,Somewhat agree,3,1708007099856,1708007104655,\Somewhat agree\,\Somewhat agree\,\3\,1708007103582,1708007103582,3726,3726,4799,buq,qns-item-noham,91,477397,0.0-1.0-0.90,65ce1c77726e59eeb6124a06,AWAITING REVIEW,2024-02-15T14:15:34.016000Z,2024-02-15T14:26:09.007000Z,,2024-02-15T14:26:09.731440Z,635.0,CVPIIDEI,4,26,Female,Asian,United States,United States,United States,English,No,Full-Time,Not Applicable
65cc1ac6402b90fc2fddeb95,<b>I do not often change my views on food.,Highly disagree,92/94,Somewhat disagree,2,1708007104656,1708007108383,\Somewhat disagree\,\Somewhat disagree\,\2\,1708007107510,1708007107510,2854,2854,3727,buq,qns-item-noham,92,481125,0.0-1.0-0.91,65ce1c77726e59eeb6124a06,AWAITING REVIEW,2024-02-15T14:15:34.016000Z,2024-02-15T14:26:09.007000Z,,2024-02-15T14:26:09.731440Z,635.0,CVPIIDEI,4,26,Female,Asian,United States,United States,United States,English,No,Full-Time,Not Applicable
65cc1ac6402b90fc2fddeb95,<b>Specific policies are often very important to me.,Highly disagree,93/94,Somewhat disagree,2,1708007108384,1708007111934,\Somewhat disagree\,\Somewhat disagree\,\2\,1708007111150,1708007111150,2766,2766,3550,buq,qns-item-noham,93,484676,0.0-1.0-0.92,65ce1c77726e59eeb6124a06,AWAITING REVIEW,2024-02-15T14:15:34.016000Z,2024-02-15T14:26:09.007000Z,,2024-02-15T14:26:09.731440Z,635.0,CVPIIDEI,4,26,Female,Asian,United States,United States,United States,English,No,Full-Time,Not Applicable
65cc1ac6402b90fc2fddeb95,<b>Most people are woefully under-informed.,Highly disagree,94/94,Somewhat agree,3,1708007111936,1708007114382,\Somewhat agree\,\Somewhat agree\,\3\,1708007113862,1708007113862,1926,1926,2446,buq,qns-item-noham,94,487124,0.0-1.0-0.93,65ce1c77726e59eeb6124a06,AWAITING REVIEW,2024-02-15T14:15:34.016000Z,2024-02-15T14:26:09.007000Z,,2024-02-15T14:26:09.731440Z,635.0,CVPIIDEI,4,26,Female,Asian,United States,United States,United States,English,No,Full-Time,Not Applicable
65cc1ac6402b90fc2fddeb95,,,,,,,,,,,,,,,,,,,,,65ce1c77726e59eeb6124a06,AWAITING REVIEW,2024-02-15T14:15:34.016000Z,2024-02-15T14:26:09.007000Z,,2024-02-15T14:26:09.731440Z,635.0,CVPIIDEI,4,26,Female,Asian,United States,United States,United States,English,No,Full-Time,Not Applicable
