PROLIFIC_PID,Question,qns_options,quest_num,answer,answer_num,question_load_timestamp,next_btn_timestamp,text_selected,final_text_selected,option_num_selected,preview_timestamps,final_text_selected_time_stamp,rt_first_option_click,rt_final_option_click,rt_submit_click,questionnaire,trial_type,trial_index,time_elapsed,internal_node_id,Demographic_Submission id,Demographic_Status,Demographic_Started at,Demographic_Completed at,Demographic_Reviewed at,Demographic_Archived at,Demographic_Time taken,Demographic_Completion code,Demographic_Total approvals,Demographic_Age,Demographic_Sex,Demographic_Ethnicity simplified,Demographic_Country of birth,Demographic_Country of residence,Demographic_Nationality,Demographic_Language,Demographic_Student status,Demographic_Employment status,Demographic_Custom study tncs accepted at
63d7ff8dba0dc23728426ecd,<b>Knowing what?s true and knowing what to do about it are usually basically the same.,Highly disagree,1/94,Somewhat disagree,2,1708006453383,1708006465428,\Somewhat disagree\,\Somewhat disagree\,\2\,1708006464430,1708006464430,11047,11047,12045,buq,qns-item-noham,1,17405,0.0-1.0-0.0,65ce1c15e08c7567019df6b2,AWAITING REVIEW,2024-02-15T14:13:45.808000Z,2024-02-15T14:25:23.725000Z,,2024-02-15T14:25:24.357242Z,698.0,CVPIIDEI,527,32,Male,White,United States,United States,United States,English,No,Full-Time,Not Applicable
63d7ff8dba0dc23728426ecd,<b>Most people just believe whatever is convenient for them.,Highly disagree,2/94,Somewhat agree,3,1708006465449,1708006469527,\Somewhat agree\,\Somewhat agree\,\3\,1708006468628,1708006468628,3179,3179,4078,buq,qns-item-noham,2,21504,0.0-1.0-0.1,65ce1c15e08c7567019df6b2,AWAITING REVIEW,2024-02-15T14:13:45.808000Z,2024-02-15T14:25:23.725000Z,,2024-02-15T14:25:24.357242Z,698.0,CVPIIDEI,527,32,Male,White,United States,United States,United States,English,No,Full-Time,Not Applicable
63d7ff8dba0dc23728426ecd,<b>Having some big beliefs helps me sort out minor ones.,Highly disagree,3/94,Somewhat agree,3,1708006469559,1708006475131,\Somewhat agree\,\Somewhat agree\,\3\,1708006474370,1708006474370,4811,4811,5572,buq,qns-item-noham,3,27107,0.0-1.0-0.2,65ce1c15e08c7567019df6b2,AWAITING REVIEW,2024-02-15T14:13:45.808000Z,2024-02-15T14:25:23.725000Z,,2024-02-15T14:25:24.357242Z,698.0,CVPIIDEI,527,32,Male,White,United States,United States,United States,English,No,Full-Time,Not Applicable
63d7ff8dba0dc23728426ecd,<b>Political questions are usually pretty complicated.,Highly disagree,4/94,Somewhat disagree,2,1708006475147,1708006486074,\Somewhat disagree\,\Somewhat disagree\,\2\,1708006485016,1708006485016,9869,9869,10927,buq,qns-item-noham,4,38050,0.0-1.0-0.3,65ce1c15e08c7567019df6b2,AWAITING REVIEW,2024-02-15T14:13:45.808000Z,2024-02-15T14:25:23.725000Z,,2024-02-15T14:25:24.357242Z,698.0,CVPIIDEI,527,32,Male,White,United States,United States,United States,English,No,Full-Time,Not Applicable
63d7ff8dba0dc23728426ecd,<b>Figuring out what?s important in life requires learning a lot of facts.,Highly disagree,5/94,Somewhat disagree,2,1708006486080,1708006492191,\Somewhat disagree\,\Somewhat disagree\,\2\,1708006491381,1708006491381,5301,5301,6111,buq,qns-item-noham,5,44167,0.0-1.0-0.4,65ce1c15e08c7567019df6b2,AWAITING REVIEW,2024-02-15T14:13:45.808000Z,2024-02-15T14:25:23.725000Z,,2024-02-15T14:25:24.357242Z,698.0,CVPIIDEI,527,32,Male,White,United States,United States,United States,English,No,Full-Time,Not Applicable
63d7ff8dba0dc23728426ecd,<b>It is difficult for me to remember the last time I was surprised by politics.,Highly disagree,6/94,Somewhat disagree,2,1708006492199,1708006500085,\Somewhat disagree\,\Somewhat disagree\,\2\,1708006499046,1708006499046,6847,6847,7886,buq,qns-item-noham,6,52062,0.0-1.0-0.5,65ce1c15e08c7567019df6b2,AWAITING REVIEW,2024-02-15T14:13:45.808000Z,2024-02-15T14:25:23.725000Z,,2024-02-15T14:25:24.357242Z,698.0,CVPIIDEI,527,32,Male,White,United States,United States,United States,English,No,Full-Time,Not Applicable
63d7ff8dba0dc23728426ecd,<b>People?s false beliefs are understandable.,Highly disagree,7/94,Somewhat disagree,2,1708006500092,1708006506239,\Somewhat disagree\,\Somewhat disagree\,\2\,1708006505221,1708006505221,5129,5129,6147,buq,qns-item-noham,7,58215,0.0-1.0-0.6,65ce1c15e08c7567019df6b2,AWAITING REVIEW,2024-02-15T14:13:45.808000Z,2024-02-15T14:25:23.725000Z,,2024-02-15T14:25:24.357242Z,698.0,CVPIIDEI,527,32,Male,White,United States,United States,United States,English,No,Full-Time,Not Applicable
63d7ff8dba0dc23728426ecd,<b>I spend a lot of time trying to be informed about politics.,Highly disagree,8/94,Highly disagree,1,1708006506247,1708006511263,\Highly disagree\,\Highly disagree\,\1\,1708006509774,1708006509774,3527,3527,5016,buq,qns-item-noham,8,63240,0.0-1.0-0.7,65ce1c15e08c7567019df6b2,AWAITING REVIEW,2024-02-15T14:13:45.808000Z,2024-02-15T14:25:23.725000Z,,2024-02-15T14:25:24.357242Z,698.0,CVPIIDEI,527,32,Male,White,United States,United States,United States,English,No,Full-Time,Not Applicable
63d7ff8dba0dc23728426ecd,<b>I think a lot about whether my beliefs are right.,Highly disagree,9/94,Somewhat disagree,2,1708006511272,1708006516857,\Somewhat disagree\,\Somewhat disagree\,\2\,1708006515172,1708006515172,3900,3900,5585,buq,qns-item-noham,9,68833,0.0-1.0-0.8,65ce1c15e08c7567019df6b2,AWAITING REVIEW,2024-02-15T14:13:45.808000Z,2024-02-15T14:25:23.725000Z,,2024-02-15T14:25:24.357242Z,698.0,CVPIIDEI,527,32,Male,White,United States,United States,United States,English,No,Full-Time,Not Applicable
63d7ff8dba0dc23728426ecd,<b>Statistics can be pretty misleading sometimes.,Highly disagree,10/94,Somewhat agree,3,1708006516863,1708006520472,\Somewhat agree\,\Somewhat agree\,\3\,1708006519711,1708006519711,2848,2848,3609,buq,qns-item-noham,10,72448,0.0-1.0-0.9,65ce1c15e08c7567019df6b2,AWAITING REVIEW,2024-02-15T14:13:45.808000Z,2024-02-15T14:25:23.725000Z,,2024-02-15T14:25:24.357242Z,698.0,CVPIIDEI,527,32,Male,White,United States,United States,United States,English,No,Full-Time,Not Applicable
63d7ff8dba0dc23728426ecd,<b>I have lots of beliefs that I?m only sort of sure about.,Highly disagree,11/94,Highly disagree,1,1708006520483,1708006528927,\Highly disagree\,\Highly disagree\,\1\,1708006527447,1708006527447,6964,6964,8444,buq,qns-item-noham,11,80903,0.0-1.0-0.10,65ce1c15e08c7567019df6b2,AWAITING REVIEW,2024-02-15T14:13:45.808000Z,2024-02-15T14:25:23.725000Z,,2024-02-15T14:25:24.357242Z,698.0,CVPIIDEI,527,32,Male,White,United States,United States,United States,English,No,Full-Time,Not Applicable
63d7ff8dba0dc23728426ecd,"<b>If I go to my favorite restaurant and the food is surprisingly bad, it reminds me there are many disappointments in life.",Highly disagree,12/94,Highly disagree,1,1708006528934,1708006537879,\Highly disagree\,\Highly disagree\,\1\,1708006536386,1708006536386,7452,7452,8945,buq,qns-item-noham,12,89855,0.0-1.0-0.11,65ce1c15e08c7567019df6b2,AWAITING REVIEW,2024-02-15T14:13:45.808000Z,2024-02-15T14:25:23.725000Z,,2024-02-15T14:25:24.357242Z,698.0,CVPIIDEI,527,32,Male,White,United States,United States,United States,English,No,Full-Time,Not Applicable
63d7ff8dba0dc23728426ecd,"<b>If you are paying attention, please select ?Somewhat agree?",Highly disagree,13/94,Somewhat agree,3,1708006537887,1708006541731,\Somewhat agree\,\Somewhat agree\,\3\,1708006540993,1708006540993,3106,3106,3844,buq,qns-item-noham,13,93707,0.0-1.0-0.12,65ce1c15e08c7567019df6b2,AWAITING REVIEW,2024-02-15T14:13:45.808000Z,2024-02-15T14:25:23.725000Z,,2024-02-15T14:25:24.357242Z,698.0,CVPIIDEI,527,32,Male,White,United States,United States,United States,English,No,Full-Time,Not Applicable
63d7ff8dba0dc23728426ecd,"<b>When I talk to others, I often worry I?ll convince them of something I didn?t mean to.",Highly disagree,14/94,Highly disagree,1,1708006541739,1708006549547,\Somewhat disagree\,\Highly disagree\,\2\,1708006546674,1708006548523,4935,6784,7808,buq,qns-item-noham,14,101523,0.0-1.0-0.13,65ce1c15e08c7567019df6b2,AWAITING REVIEW,2024-02-15T14:13:45.808000Z,2024-02-15T14:25:23.725000Z,,2024-02-15T14:25:24.357242Z,698.0,CVPIIDEI,527,32,Male,White,United States,United States,United States,English,No,Full-Time,Not Applicable
63d7ff8dba0dc23728426ecd,<b>I would need to learn something utterly shocking about my party in order to change my political views.,Highly disagree,15/94,Somewhat disagree,2,1708006549552,1708006562539,\Somewhat disagree\,\Somewhat disagree\,\2\,1708006561613,1708006561613,12061,12061,12987,buq,qns-item-noham,15,114515,0.0-1.0-0.14,65ce1c15e08c7567019df6b2,AWAITING REVIEW,2024-02-15T14:13:45.808000Z,2024-02-15T14:25:23.725000Z,,2024-02-15T14:25:24.357242Z,698.0,CVPIIDEI,527,32,Male,White,United States,United States,United States,English,No,Full-Time,Not Applicable
63d7ff8dba0dc23728426ecd,"<b>When I have new experiences, I tend to think of them as unique.",Highly disagree,16/94,Somewhat agree,3,1708006562551,1708006569050,\Somewhat agree\,\Somewhat agree\,\3\,1708006568143,1708006568143,5592,5592,6499,buq,qns-item-noham,16,121026,0.0-1.0-0.15,65ce1c15e08c7567019df6b2,AWAITING REVIEW,2024-02-15T14:13:45.808000Z,2024-02-15T14:25:23.725000Z,,2024-02-15T14:25:24.357242Z,698.0,CVPIIDEI,527,32,Male,White,United States,United States,United States,English,No,Full-Time,Not Applicable
63d7ff8dba0dc23728426ecd,<b>I change my mind about specific policies pretty frequently.,Highly disagree,17/94,Somewhat disagree,2,1708006569057,1708006578391,\Somewhat disagree\,\Somewhat disagree\,\2\,1708006577244,1708006577244,8187,8187,9334,buq,qns-item-noham,17,130367,0.0-1.0-0.16,65ce1c15e08c7567019df6b2,AWAITING REVIEW,2024-02-15T14:13:45.808000Z,2024-02-15T14:25:23.725000Z,,2024-02-15T14:25:24.357242Z,698.0,CVPIIDEI,527,32,Male,White,United States,United States,United States,English,No,Full-Time,Not Applicable
63d7ff8dba0dc23728426ecd,"<b>If a politician in my political party supports something I disagree with, I give them the benefit of the doubt, as such issues often involve hidden complexities that aren?t obvious.   ",Highly disagree,18/94,Somewhat disagree,2,1708006578395,1708006588428,\Somewhat disagree\,\Somewhat disagree\,\2\,1708006587381,1708006587381,8986,8986,10033,buq,qns-item-noham,18,140404,0.0-1.0-0.17,65ce1c15e08c7567019df6b2,AWAITING REVIEW,2024-02-15T14:13:45.808000Z,2024-02-15T14:25:23.725000Z,,2024-02-15T14:25:24.357242Z,698.0,CVPIIDEI,527,32,Male,White,United States,United States,United States,English,No,Full-Time,Not Applicable
63d7ff8dba0dc23728426ecd,<b>People?s bad politics are usually motivated by hatefulness.,Highly disagree,19/94,Somewhat agree,3,1708006588433,1708006595247,\Somewhat agree\,\Somewhat agree\,\3\,1708006594034,1708006594034,5601,5601,6814,buq,qns-item-noham,19,147223,0.0-1.0-0.18,65ce1c15e08c7567019df6b2,AWAITING REVIEW,2024-02-15T14:13:45.808000Z,2024-02-15T14:25:23.725000Z,,2024-02-15T14:25:24.357242Z,698.0,CVPIIDEI,527,32,Male,White,United States,United States,United States,English,No,Full-Time,Not Applicable
63d7ff8dba0dc23728426ecd,<b>I think a lot about how to reconcile my beliefs with one another.,Highly disagree,20/94,Somewhat disagree,2,1708006595251,1708006600348,\Somewhat disagree\,\Somewhat disagree\,\2\,1708006599570,1708006599570,4319,4319,5097,buq,qns-item-noham,20,152324,0.0-1.0-0.19,65ce1c15e08c7567019df6b2,AWAITING REVIEW,2024-02-15T14:13:45.808000Z,2024-02-15T14:25:23.725000Z,,2024-02-15T14:25:24.357242Z,698.0,CVPIIDEI,527,32,Male,White,United States,United States,United States,English,No,Full-Time,Not Applicable
63d7ff8dba0dc23728426ecd,<b>I might have false beliefs about important topics.,Highly disagree,21/94,Somewhat disagree,2,1708006600362,1708006606128,\Highly disagree\,\Somewhat disagree\,\1\,1708006603262,1708006605110,2900,4748,5766,buq,qns-item-noham,21,158104,0.0-1.0-0.20,65ce1c15e08c7567019df6b2,AWAITING REVIEW,2024-02-15T14:13:45.808000Z,2024-02-15T14:25:23.725000Z,,2024-02-15T14:25:24.357242Z,698.0,CVPIIDEI,527,32,Male,White,United States,United States,United States,English,No,Full-Time,Not Applicable
63d7ff8dba0dc23728426ecd,"<b>If a good friend of mine does something unexpected that upsets me, I feel like I don?t know them anymore.",Highly disagree,22/94,Somewhat disagree,2,1708006606132,1708006611410,\Somewhat disagree\,\Somewhat disagree\,\2\,1708006610425,1708006610425,4293,4293,5278,buq,qns-item-noham,22,163386,0.0-1.0-0.21,65ce1c15e08c7567019df6b2,AWAITING REVIEW,2024-02-15T14:13:45.808000Z,2024-02-15T14:25:23.725000Z,,2024-02-15T14:25:24.357242Z,698.0,CVPIIDEI,527,32,Male,White,United States,United States,United States,English,No,Full-Time,Not Applicable
63d7ff8dba0dc23728426ecd,<b>Other people?s beliefs are often incoherent.,Highly disagree,23/94,Somewhat agree,3,1708006611416,1708006618819,\Somewhat agree\,\Somewhat agree\,\3\,1708006617228,1708006617228,5812,5812,7403,buq,qns-item-noham,23,170795,0.0-1.0-0.22,65ce1c15e08c7567019df6b2,AWAITING REVIEW,2024-02-15T14:13:45.808000Z,2024-02-15T14:25:23.725000Z,,2024-02-15T14:25:24.357242Z,698.0,CVPIIDEI,527,32,Male,White,United States,United States,United States,English,No,Full-Time,Not Applicable
63d7ff8dba0dc23728426ecd,"<b>Every now and then, a new experience will unsettle beliefs I?ve had for a while.",Highly disagree,24/94,Somewhat disagree,2,1708006618821,1708006626765,\Somewhat disagree\,\Somewhat disagree\,\2\,1708006625524,1708006625524,6703,6703,7944,buq,qns-item-noham,24,178741,0.0-1.0-0.23,65ce1c15e08c7567019df6b2,AWAITING REVIEW,2024-02-15T14:13:45.808000Z,2024-02-15T14:25:23.725000Z,,2024-02-15T14:25:24.357242Z,698.0,CVPIIDEI,527,32,Male,White,United States,United States,United States,English,No,Full-Time,Not Applicable
63d7ff8dba0dc23728426ecd,<b>Some policies I agree with in principle are so bad I don?t support them. ,Highly disagree,25/94,Somewhat agree,3,1708006626771,1708006633854,\Somewhat agree\,\Somewhat agree\,\3\,1708006632661,1708006632661,5890,5890,7083,buq,qns-item-noham,25,185830,0.0-1.0-0.24,65ce1c15e08c7567019df6b2,AWAITING REVIEW,2024-02-15T14:13:45.808000Z,2024-02-15T14:25:23.725000Z,,2024-02-15T14:25:24.357242Z,698.0,CVPIIDEI,527,32,Male,White,United States,United States,United States,English,No,Full-Time,Not Applicable
63d7ff8dba0dc23728426ecd,<b>I?m pretty sure I?ve accidentally spread false information.,Highly disagree,26/94,Somewhat agree,3,1708006633859,1708006638158,\Somewhat agree\,\Somewhat agree\,\3\,1708006637289,1708006637289,3430,3430,4299,buq,qns-item-noham,26,190134,0.0-1.0-0.25,65ce1c15e08c7567019df6b2,AWAITING REVIEW,2024-02-15T14:13:45.808000Z,2024-02-15T14:25:23.725000Z,,2024-02-15T14:25:24.357242Z,698.0,CVPIIDEI,527,32,Male,White,United States,United States,United States,English,No,Full-Time,Not Applicable
63d7ff8dba0dc23728426ecd,"<b>If I go to my favorite restaurant and the food is unexpectedly bad, then they have changed owners.",Highly disagree,27/94,Somewhat disagree,2,1708006638161,1708006647052,\Somewhat disagree\,\Somewhat disagree\,\2\,1708006645732,1708006645732,7571,7571,8891,buq,qns-item-noham,27,199028,0.0-1.0-0.26,65ce1c15e08c7567019df6b2,AWAITING REVIEW,2024-02-15T14:13:45.808000Z,2024-02-15T14:25:23.725000Z,,2024-02-15T14:25:24.357242Z,698.0,CVPIIDEI,527,32,Male,White,United States,United States,United States,English,No,Full-Time,Not Applicable
63d7ff8dba0dc23728426ecd,"<b>In politics, it?s important to trust your friends and family.",Highly disagree,28/94,Somewhat disagree,2,1708006647058,1708006653173,\Somewhat disagree\,\Somewhat disagree\,\2\,1708006651895,1708006651895,4837,4837,6115,buq,qns-item-noham,28,205149,0.0-1.0-0.27,65ce1c15e08c7567019df6b2,AWAITING REVIEW,2024-02-15T14:13:45.808000Z,2024-02-15T14:25:23.725000Z,,2024-02-15T14:25:24.357242Z,698.0,CVPIIDEI,527,32,Male,White,United States,United States,United States,English,No,Full-Time,Not Applicable
63d7ff8dba0dc23728426ecd,<b>It?s OK to have some conflicting beliefs.,Highly disagree,29/94,Highly agree,4,1708006653178,1708006658251,\Highly agree\,\Highly agree\,\4\,1708006657346,1708006657346,4168,4168,5073,buq,qns-item-noham,29,210227,0.0-1.0-0.28,65ce1c15e08c7567019df6b2,AWAITING REVIEW,2024-02-15T14:13:45.808000Z,2024-02-15T14:25:23.725000Z,,2024-02-15T14:25:24.357242Z,698.0,CVPIIDEI,527,32,Male,White,United States,United States,United States,English,No,Full-Time,Not Applicable
63d7ff8dba0dc23728426ecd,<b>Listening to people I disagree with makes my opinions better.,Highly disagree,30/94,Highly agree,4,1708006658262,1708006663756,\Highly agree\,\Highly agree\,\4\,1708006662825,1708006662825,4563,4563,5494,buq,qns-item-noham,30,215732,0.0-1.0-0.29,65ce1c15e08c7567019df6b2,AWAITING REVIEW,2024-02-15T14:13:45.808000Z,2024-02-15T14:25:23.725000Z,,2024-02-15T14:25:24.357242Z,698.0,CVPIIDEI,527,32,Male,White,United States,United States,United States,English,No,Full-Time,Not Applicable
63d7ff8dba0dc23728426ecd,<b>My moral compass sometimes makes it harder to determine what?s true.,Highly disagree,31/94,Highly disagree,1,1708006663772,1708006669780,\Highly disagree\,\Highly disagree\,\1\,1708006668248,1708006668248,4476,4476,6008,buq,qns-item-noham,31,221756,0.0-1.0-0.30,65ce1c15e08c7567019df6b2,AWAITING REVIEW,2024-02-15T14:13:45.808000Z,2024-02-15T14:25:23.725000Z,,2024-02-15T14:25:24.357242Z,698.0,CVPIIDEI,527,32,Male,White,United States,United States,United States,English,No,Full-Time,Not Applicable
63d7ff8dba0dc23728426ecd,<b>Evidence pointing in the wrong direction isn?t really evidence at all.,Highly disagree,32/94,Highly agree,4,1708006669786,1708006679319,\Highly agree\,\Highly agree\,\4\,1708006678473,1708006678473,8687,8687,9533,buq,qns-item-noham,32,231295,0.0-1.0-0.31,65ce1c15e08c7567019df6b2,AWAITING REVIEW,2024-02-15T14:13:45.808000Z,2024-02-15T14:25:23.725000Z,,2024-02-15T14:25:24.357242Z,698.0,CVPIIDEI,527,32,Male,White,United States,United States,United States,English,No,Full-Time,Not Applicable
63d7ff8dba0dc23728426ecd,"<b>If the political party I support messes up, it makes me think politics is rotten.",Highly disagree,33/94,Highly agree,4,1708006679325,1708006684507,\Highly agree\,\Highly agree\,\4\,1708006682947,1708006682947,3622,3622,5182,buq,qns-item-noham,33,236483,0.0-1.0-0.32,65ce1c15e08c7567019df6b2,AWAITING REVIEW,2024-02-15T14:13:45.808000Z,2024-02-15T14:25:23.725000Z,,2024-02-15T14:25:24.357242Z,698.0,CVPIIDEI,527,32,Male,White,United States,United States,United States,English,No,Full-Time,Not Applicable
63d7ff8dba0dc23728426ecd,<b>Lots of important topics can only really be understood by some groups of people.,Highly disagree,34/94,Somewhat disagree,2,1708006684514,1708006693061,\Somewhat disagree\,\Somewhat disagree\,\2\,1708006691907,1708006691907,7393,7393,8547,buq,qns-item-noham,34,245037,0.0-1.0-0.33,65ce1c15e08c7567019df6b2,AWAITING REVIEW,2024-02-15T14:13:45.808000Z,2024-02-15T14:25:23.725000Z,,2024-02-15T14:25:24.357242Z,698.0,CVPIIDEI,527,32,Male,White,United States,United States,United States,English,No,Full-Time,Not Applicable
63d7ff8dba0dc23728426ecd,<b>Having conflicting beliefs means you haven?t thought about them enough.,Highly disagree,35/94,Somewhat disagree,2,1708006693066,1708006707861,\Somewhat disagree\,\Somewhat disagree\,\2\,1708006705593,1708006705593,12527,12527,14795,buq,qns-item-noham,35,259837,0.0-1.0-0.34,65ce1c15e08c7567019df6b2,AWAITING REVIEW,2024-02-15T14:13:45.808000Z,2024-02-15T14:25:23.725000Z,,2024-02-15T14:25:24.357242Z,698.0,CVPIIDEI,527,32,Male,White,United States,United States,United States,English,No,Full-Time,Not Applicable
63d7ff8dba0dc23728426ecd,<b>I do not often change my political opinions.,Highly disagree,36/94,Somewhat agree,3,1708006707867,1708006712197,\Somewhat agree\,\Somewhat agree\,\3\,1708006710730,1708006710730,2863,2863,4330,buq,qns-item-noham,36,264174,0.0-1.0-0.35,65ce1c15e08c7567019df6b2,AWAITING REVIEW,2024-02-15T14:13:45.808000Z,2024-02-15T14:25:23.725000Z,,2024-02-15T14:25:24.357242Z,698.0,CVPIIDEI,527,32,Male,White,United States,United States,United States,English,No,Full-Time,Not Applicable
63d7ff8dba0dc23728426ecd,<b>It?s difficult to not have at least some conflicting beliefs.,Highly disagree,37/94,Somewhat agree,3,1708006712203,1708006719761,\Somewhat agree\,\Somewhat agree\,\3\,1708006718878,1708006718878,6675,6675,7558,buq,qns-item-noham,37,271737,0.0-1.0-0.36,65ce1c15e08c7567019df6b2,AWAITING REVIEW,2024-02-15T14:13:45.808000Z,2024-02-15T14:25:23.725000Z,,2024-02-15T14:25:24.357242Z,698.0,CVPIIDEI,527,32,Male,White,United States,United States,United States,English,No,Full-Time,Not Applicable
63d7ff8dba0dc23728426ecd,<b>Wishful thinking causes a lot of problems.,Highly disagree,38/94,Somewhat agree,3,1708006719772,1708006725201,\Somewhat agree\,\Somewhat agree\,\3\,1708006724414,1708006724414,4642,4642,5429,buq,qns-item-noham,38,277177,0.0-1.0-0.37,65ce1c15e08c7567019df6b2,AWAITING REVIEW,2024-02-15T14:13:45.808000Z,2024-02-15T14:25:23.725000Z,,2024-02-15T14:25:24.357242Z,698.0,CVPIIDEI,527,32,Male,White,United States,United States,United States,English,No,Full-Time,Not Applicable
63d7ff8dba0dc23728426ecd,<b>I judge a food item only once I try it many times.,Highly disagree,39/94,Somewhat disagree,2,1708006725212,1708006735313,\Somewhat disagree\,\Somewhat disagree\,\2\,1708006734476,1708006734476,9264,9264,10101,buq,qns-item-noham,39,287289,0.0-1.0-0.38,65ce1c15e08c7567019df6b2,AWAITING REVIEW,2024-02-15T14:13:45.808000Z,2024-02-15T14:25:23.725000Z,,2024-02-15T14:25:24.357242Z,698.0,CVPIIDEI,527,32,Male,White,United States,United States,United States,English,No,Full-Time,Not Applicable
63d7ff8dba0dc23728426ecd,"<b>When a person holds conflicting beliefs, they should really try to figure out what?s wrong.",Highly disagree,40/94,Somewhat disagree,2,1708006735319,1708006744702,\Somewhat disagree\,\Somewhat disagree\,\2\,1708006743599,1708006743599,8280,8280,9383,buq,qns-item-noham,40,296678,0.0-1.0-0.39,65ce1c15e08c7567019df6b2,AWAITING REVIEW,2024-02-15T14:13:45.808000Z,2024-02-15T14:25:23.725000Z,,2024-02-15T14:25:24.357242Z,698.0,CVPIIDEI,527,32,Male,White,United States,United States,United States,English,No,Full-Time,Not Applicable
63d7ff8dba0dc23728426ecd,<b>Knowing what?s important in life is easy.,Highly disagree,41/94,Somewhat disagree,2,1708006744708,1708006748748,\Somewhat disagree\,\Somewhat disagree\,\2\,1708006747635,1708006747635,2927,2927,4040,buq,qns-item-noham,41,300724,0.0-1.0-0.40,65ce1c15e08c7567019df6b2,AWAITING REVIEW,2024-02-15T14:13:45.808000Z,2024-02-15T14:25:23.725000Z,,2024-02-15T14:25:24.357242Z,698.0,CVPIIDEI,527,32,Male,White,United States,United States,United States,English,No,Full-Time,Not Applicable
63d7ff8dba0dc23728426ecd,<b>I swim across the Atlantic Ocean to get to work every day.,Highly disagree,42/94,Highly disagree,1,1708006748753,1708006754187,\Highly disagree\,\Highly disagree\,\1\,1708006751808,1708006751808,3055,3055,5434,buq,qns-item-noham,42,306163,0.0-1.0-0.41,65ce1c15e08c7567019df6b2,AWAITING REVIEW,2024-02-15T14:13:45.808000Z,2024-02-15T14:25:23.725000Z,,2024-02-15T14:25:24.357242Z,698.0,CVPIIDEI,527,32,Male,White,United States,United States,United States,English,No,Full-Time,Not Applicable
63d7ff8dba0dc23728426ecd,"<b>Sometimes, you just have to ignore evidence that you know is wrong.",Highly disagree,43/94,Somewhat disagree,2,1708006754192,1708006759900,\Somewhat disagree\,\Somewhat disagree\,\2\,1708006759109,1708006759109,4917,4917,5708,buq,qns-item-noham,43,311877,0.0-1.0-0.42,65ce1c15e08c7567019df6b2,AWAITING REVIEW,2024-02-15T14:13:45.808000Z,2024-02-15T14:25:23.725000Z,,2024-02-15T14:25:24.357242Z,698.0,CVPIIDEI,527,32,Male,White,United States,United States,United States,English,No,Full-Time,Not Applicable
63d7ff8dba0dc23728426ecd,<b>I have had some false beliefs.,Highly disagree,44/94,Somewhat disagree,2,1708006759909,1708006763511,\Somewhat disagree\,\Somewhat disagree\,\2\,1708006762673,1708006762673,2764,2764,3602,buq,qns-item-noham,44,315487,0.0-1.0-0.43,65ce1c15e08c7567019df6b2,AWAITING REVIEW,2024-02-15T14:13:45.808000Z,2024-02-15T14:25:23.725000Z,,2024-02-15T14:25:24.357242Z,698.0,CVPIIDEI,527,32,Male,White,United States,United States,United States,English,No,Full-Time,Not Applicable
63d7ff8dba0dc23728426ecd,"<b>If one friend does something that upsets me, I sometimes start to distrust people in general.",Highly disagree,45/94,Somewhat agree,3,1708006763525,1708006773572,\Somewhat agree\,\Somewhat agree\,\3\,1708006772471,1708006772471,8946,8946,10047,buq,qns-item-noham,45,325548,0.0-1.0-0.44,65ce1c15e08c7567019df6b2,AWAITING REVIEW,2024-02-15T14:13:45.808000Z,2024-02-15T14:25:23.725000Z,,2024-02-15T14:25:24.357242Z,698.0,CVPIIDEI,527,32,Male,White,United States,United States,United States,English,No,Full-Time,Not Applicable
63d7ff8dba0dc23728426ecd,<b>The facts about most important matters are easy to find.,Highly disagree,46/94,Somewhat agree,3,1708006773577,1708006787874,\Somewhat agree\,\Somewhat agree\,\3\,1708006786989,1708006786989,13412,13412,14297,buq,qns-item-noham,46,339850,0.0-1.0-0.45,65ce1c15e08c7567019df6b2,AWAITING REVIEW,2024-02-15T14:13:45.808000Z,2024-02-15T14:25:23.725000Z,,2024-02-15T14:25:24.357242Z,698.0,CVPIIDEI,527,32,Male,White,United States,United States,United States,English,No,Full-Time,Not Applicable
63d7ff8dba0dc23728426ecd,<b>It?s better to know what?s true than to know what?s moral.,Highly disagree,47/94,Somewhat agree,3,1708006787880,1708006794867,\Somewhat agree\,\Somewhat agree\,\3\,1708006793703,1708006793703,5823,5823,6987,buq,qns-item-noham,47,346843,0.0-1.0-0.46,65ce1c15e08c7567019df6b2,AWAITING REVIEW,2024-02-15T14:13:45.808000Z,2024-02-15T14:25:23.725000Z,,2024-02-15T14:25:24.357242Z,698.0,CVPIIDEI,527,32,Male,White,United States,United States,United States,English,No,Full-Time,Not Applicable
63d7ff8dba0dc23728426ecd,<b>I used to think the world was less complicated than I do now.,Highly disagree,48/94,Highly agree,4,1708006794873,1708006800056,\Highly agree\,\Highly agree\,\4\,1708006799165,1708006799165,4292,4292,5183,buq,qns-item-noham,48,352032,0.0-1.0-0.47,65ce1c15e08c7567019df6b2,AWAITING REVIEW,2024-02-15T14:13:45.808000Z,2024-02-15T14:25:23.725000Z,,2024-02-15T14:25:24.357242Z,698.0,CVPIIDEI,527,32,Male,White,United States,United States,United States,English,No,Full-Time,Not Applicable
63d7ff8dba0dc23728426ecd,<b>People are usually completely right or completely wrong.,Highly disagree,49/94,Somewhat disagree,2,1708006800064,1708006807176,\Somewhat disagree\,\Somewhat disagree\,\2\,1708006806075,1708006806075,6011,6011,7112,buq,qns-item-noham,49,359152,0.0-1.0-0.48,65ce1c15e08c7567019df6b2,AWAITING REVIEW,2024-02-15T14:13:45.808000Z,2024-02-15T14:25:23.725000Z,,2024-02-15T14:25:24.357242Z,698.0,CVPIIDEI,527,32,Male,White,United States,United States,United States,English,No,Full-Time,Not Applicable
63d7ff8dba0dc23728426ecd,<b>I spend a lot of time considering alternatives to my beliefs.,Highly disagree,50/94,Highly disagree,1,1708006807182,1708006812884,\Highly disagree\,\Highly disagree\,\1\,1708006811934,1708006811934,4752,4752,5702,buq,qns-item-noham,50,364860,0.0-1.0-0.49,65ce1c15e08c7567019df6b2,AWAITING REVIEW,2024-02-15T14:13:45.808000Z,2024-02-15T14:25:23.725000Z,,2024-02-15T14:25:24.357242Z,698.0,CVPIIDEI,527,32,Male,White,United States,United States,United States,English,No,Full-Time,Not Applicable
63d7ff8dba0dc23728426ecd,"<b>Political enemies need to be defeated, not convinced.",Highly disagree,51/94,Somewhat disagree,2,1708006812891,1708006821970,\Somewhat disagree\,\Somewhat disagree\,\2\,1708006821017,1708006821017,8126,8126,9079,buq,qns-item-noham,51,373946,0.0-1.0-0.50,65ce1c15e08c7567019df6b2,AWAITING REVIEW,2024-02-15T14:13:45.808000Z,2024-02-15T14:25:23.725000Z,,2024-02-15T14:25:24.357242Z,698.0,CVPIIDEI,527,32,Male,White,United States,United States,United States,English,No,Full-Time,Not Applicable
63d7ff8dba0dc23728426ecd,<b>I form my political views only after meticulously gathering historical and present information about their policies.,Highly disagree,52/94,Somewhat agree,3,1708006821977,1708006835778,\Somewhat agree\,\Somewhat agree\,\3\,1708006834886,1708006834886,12909,12909,13801,buq,qns-item-noham,52,387754,0.0-1.0-0.51,65ce1c15e08c7567019df6b2,AWAITING REVIEW,2024-02-15T14:13:45.808000Z,2024-02-15T14:25:23.725000Z,,2024-02-15T14:25:24.357242Z,698.0,CVPIIDEI,527,32,Male,White,United States,United States,United States,English,No,Full-Time,Not Applicable
63d7ff8dba0dc23728426ecd,<b>It is difficult for me to remember the last time I was surprised by politics.,Highly disagree,53/94,Somewhat disagree,2,1708006835785,1708006844749,\Somewhat agree\,\Somewhat disagree\,\3\,1708006841532,1708006843637,5747,7852,8964,buq,qns-item-noham,53,396726,0.0-1.0-0.52,65ce1c15e08c7567019df6b2,AWAITING REVIEW,2024-02-15T14:13:45.808000Z,2024-02-15T14:25:23.725000Z,,2024-02-15T14:25:24.357242Z,698.0,CVPIIDEI,527,32,Male,White,United States,United States,United States,English,No,Full-Time,Not Applicable
63d7ff8dba0dc23728426ecd,"<b>When I find out I?m wrong, I think a lot about my related beliefs.",Highly disagree,54/94,Somewhat disagree,2,1708006844754,1708006850884,\Somewhat disagree\,\Somewhat disagree\,\2\,1708006849862,1708006849862,5108,5108,6130,buq,qns-item-noham,54,402860,0.0-1.0-0.53,65ce1c15e08c7567019df6b2,AWAITING REVIEW,2024-02-15T14:13:45.808000Z,2024-02-15T14:25:23.725000Z,,2024-02-15T14:25:24.357242Z,698.0,CVPIIDEI,527,32,Male,White,United States,United States,United States,English,No,Full-Time,Not Applicable
63d7ff8dba0dc23728426ecd,"<b>If the political party I support messes up, it makes me think you can?t trust anyone these days",Highly disagree,55/94,Somewhat agree,3,1708006850889,1708006857483,\Somewhat agree\,\Somewhat agree\,\3\,1708006856724,1708006856724,5835,5835,6594,buq,qns-item-noham,55,409459,0.0-1.0-0.54,65ce1c15e08c7567019df6b2,AWAITING REVIEW,2024-02-15T14:13:45.808000Z,2024-02-15T14:25:23.725000Z,,2024-02-15T14:25:24.357242Z,698.0,CVPIIDEI,527,32,Male,White,United States,United States,United States,English,No,Full-Time,Not Applicable
63d7ff8dba0dc23728426ecd,<b>People?s brains turn off when they talk about politics.,Highly disagree,56/94,Highly agree,4,1708006857490,1708006860989,\Highly agree\,\Highly agree\,\4\,1708006860064,1708006860064,2574,2574,3499,buq,qns-item-noham,56,412966,0.0-1.0-0.55,65ce1c15e08c7567019df6b2,AWAITING REVIEW,2024-02-15T14:13:45.808000Z,2024-02-15T14:25:23.725000Z,,2024-02-15T14:25:24.357242Z,698.0,CVPIIDEI,527,32,Male,White,United States,United States,United States,English,No,Full-Time,Not Applicable
63d7ff8dba0dc23728426ecd,<b>People who are wrong are usually just ignoring the obvious.,Highly disagree,57/94,Somewhat disagree,2,1708006861008,1708006868945,\Somewhat agree\,\Somewhat disagree\,\3\,1708006866770,1708006867713,5762,6705,7937,buq,qns-item-noham,57,420921,0.0-1.0-0.56,65ce1c15e08c7567019df6b2,AWAITING REVIEW,2024-02-15T14:13:45.808000Z,2024-02-15T14:25:23.725000Z,,2024-02-15T14:25:24.357242Z,698.0,CVPIIDEI,527,32,Male,White,United States,United States,United States,English,No,Full-Time,Not Applicable
63d7ff8dba0dc23728426ecd,"<b>When forming my views on people, I rely more on what they are like now rather than rely on my past experience with them.",Highly disagree,58/94,Somewhat agree,3,1708006868949,1708006885307,\Somewhat disagree\,\Somewhat agree\,\2\,1708006875168,1708006884433,6219,15484,16358,buq,qns-item-noham,58,437283,0.0-1.0-0.57,65ce1c15e08c7567019df6b2,AWAITING REVIEW,2024-02-15T14:13:45.808000Z,2024-02-15T14:25:23.725000Z,,2024-02-15T14:25:24.357242Z,698.0,CVPIIDEI,527,32,Male,White,United States,United States,United States,English,No,Full-Time,Not Applicable
63d7ff8dba0dc23728426ecd,"<b>When people contradict my beliefs, I usually know about their evidence already.",Highly disagree,59/94,Somewhat disagree,2,1708006885312,1708006890917,\Somewhat disagree\,\Somewhat disagree\,\2\,1708006890030,1708006890030,4718,4718,5605,buq,qns-item-noham,59,442893,0.0-1.0-0.58,65ce1c15e08c7567019df6b2,AWAITING REVIEW,2024-02-15T14:13:45.808000Z,2024-02-15T14:25:23.725000Z,,2024-02-15T14:25:24.357242Z,698.0,CVPIIDEI,527,32,Male,White,United States,United States,United States,English,No,Full-Time,Not Applicable
63d7ff8dba0dc23728426ecd,<b>Figuring out what?s true and what?s false mainly requires a strong moral compass.,Highly disagree,60/94,Somewhat agree,3,1708006890927,1708006897177,\Somewhat agree\,\Somewhat agree\,\3\,1708006896208,1708006896208,5281,5281,6250,buq,qns-item-noham,60,449153,0.0-1.0-0.59,65ce1c15e08c7567019df6b2,AWAITING REVIEW,2024-02-15T14:13:45.808000Z,2024-02-15T14:25:23.725000Z,,2024-02-15T14:25:24.357242Z,698.0,CVPIIDEI,527,32,Male,White,United States,United States,United States,English,No,Full-Time,Not Applicable
63d7ff8dba0dc23728426ecd,"<b>Usually I?m wrong about simple things, not complicated ones.",Highly disagree,61/94,Somewhat disagree,2,1708006897184,1708006903894,\Somewhat disagree\,\Somewhat disagree\,\2\,1708006902933,1708006902933,5749,5749,6710,buq,qns-item-noham,61,455870,0.0-1.0-0.60,65ce1c15e08c7567019df6b2,AWAITING REVIEW,2024-02-15T14:13:45.808000Z,2024-02-15T14:25:23.725000Z,,2024-02-15T14:25:24.357242Z,698.0,CVPIIDEI,527,32,Male,White,United States,United States,United States,English,No,Full-Time,Not Applicable
63d7ff8dba0dc23728426ecd,<b>Getting all the information I want about important things is hard.,Highly disagree,62/94,Somewhat agree,3,1708006903898,1708006912650,\Somewhat agree\,\Somewhat agree\,\3\,1708006911744,1708006911744,7846,7846,8752,buq,qns-item-noham,62,464627,0.0-1.0-0.61,65ce1c15e08c7567019df6b2,AWAITING REVIEW,2024-02-15T14:13:45.808000Z,2024-02-15T14:25:23.725000Z,,2024-02-15T14:25:24.357242Z,698.0,CVPIIDEI,527,32,Male,White,United States,United States,United States,English,No,Full-Time,Not Applicable
63d7ff8dba0dc23728426ecd,<b>Most false beliefs spread because people try to deceive one another.,Highly disagree,63/94,Somewhat agree,3,1708006912663,1708006917529,\Somewhat agree\,\Somewhat agree\,\3\,1708006916755,1708006916755,4092,4092,4866,buq,qns-item-noham,63,469505,0.0-1.0-0.62,65ce1c15e08c7567019df6b2,AWAITING REVIEW,2024-02-15T14:13:45.808000Z,2024-02-15T14:25:23.725000Z,,2024-02-15T14:25:24.357242Z,698.0,CVPIIDEI,527,32,Male,White,United States,United States,United States,English,No,Full-Time,Not Applicable
63d7ff8dba0dc23728426ecd,<b>I can usually find something to agree with in most people?s beliefs.,Highly disagree,64/94,Somewhat agree,3,1708006917538,1708006922712,\Somewhat agree\,\Somewhat agree\,\3\,1708006921753,1708006921753,4215,4215,5174,buq,qns-item-noham,64,474689,0.0-1.0-0.63,65ce1c15e08c7567019df6b2,AWAITING REVIEW,2024-02-15T14:13:45.808000Z,2024-02-15T14:25:23.725000Z,,2024-02-15T14:25:24.357242Z,698.0,CVPIIDEI,527,32,Male,White,United States,United States,United States,English,No,Full-Time,Not Applicable
63d7ff8dba0dc23728426ecd,<b>I only form my views of people once I get to know them very well.,Highly disagree,65/94,Somewhat agree,3,1708006922726,1708006928035,\Somewhat agree\,\Somewhat agree\,\3\,1708006926182,1708006926182,3456,3456,5309,buq,qns-item-noham,65,480011,0.0-1.0-0.64,65ce1c15e08c7567019df6b2,AWAITING REVIEW,2024-02-15T14:13:45.808000Z,2024-02-15T14:25:23.725000Z,,2024-02-15T14:25:24.357242Z,698.0,CVPIIDEI,527,32,Male,White,United States,United States,United States,English,No,Full-Time,Not Applicable
63d7ff8dba0dc23728426ecd,"<b>When people tell me important things about the world, I usually believe them.",Highly disagree,66/94,Somewhat disagree,2,1708006928038,1708006933665,\Somewhat disagree\,\Somewhat disagree\,\2\,1708006931151,1708006931151,3113,3113,5627,buq,qns-item-noham,66,485641,0.0-1.0-0.65,65ce1c15e08c7567019df6b2,AWAITING REVIEW,2024-02-15T14:13:45.808000Z,2024-02-15T14:25:23.725000Z,,2024-02-15T14:25:24.357242Z,698.0,CVPIIDEI,527,32,Male,White,United States,United States,United States,English,No,Full-Time,Not Applicable
63d7ff8dba0dc23728426ecd,"<b>If a friend does something that upsets me, it reminds me what an unpredictable place the world is.",Highly disagree,67/94,Somewhat agree,3,1708006933672,1708006940007,\Somewhat agree\,\Somewhat agree\,\3\,1708006939144,1708006939144,5472,5472,6335,buq,qns-item-noham,67,491984,0.0-1.0-0.66,65ce1c15e08c7567019df6b2,AWAITING REVIEW,2024-02-15T14:13:45.808000Z,2024-02-15T14:25:23.725000Z,,2024-02-15T14:25:24.357242Z,698.0,CVPIIDEI,527,32,Male,White,United States,United States,United States,English,No,Full-Time,Not Applicable
63d7ff8dba0dc23728426ecd,<b>People tend to believe whatever is good for their friends.,Highly disagree,68/94,Somewhat agree,3,1708006940014,1708006947067,\Somewhat agree\,\Somewhat agree\,\3\,1708006944503,1708006946271,4489,6257,7053,buq,qns-item-noham,68,499043,0.0-1.0-0.67,65ce1c15e08c7567019df6b2,AWAITING REVIEW,2024-02-15T14:13:45.808000Z,2024-02-15T14:25:23.725000Z,,2024-02-15T14:25:24.357242Z,698.0,CVPIIDEI,527,32,Male,White,United States,United States,United States,English,No,Full-Time,Not Applicable
63d7ff8dba0dc23728426ecd,<b>I used to be more certain my beliefs were true.,Highly disagree,69/94,Somewhat disagree,2,1708006947073,1708006952820,\Somewhat disagree\,\Somewhat disagree\,\2\,1708006951773,1708006951773,4700,4700,5747,buq,qns-item-noham,69,504796,0.0-1.0-0.68,65ce1c15e08c7567019df6b2,AWAITING REVIEW,2024-02-15T14:13:45.808000Z,2024-02-15T14:25:23.725000Z,,2024-02-15T14:25:24.357242Z,698.0,CVPIIDEI,527,32,Male,White,United States,United States,United States,English,No,Full-Time,Not Applicable
63d7ff8dba0dc23728426ecd,<b>It?s often pretty easy to figure out whether something is true based on who said it.,Highly disagree,70/94,Somewhat disagree,2,1708006952824,1708006960223,\Somewhat disagree\,\Somewhat disagree\,\2\,1708006959489,1708006959489,6665,6665,7399,buq,qns-item-noham,70,512199,0.0-1.0-0.69,65ce1c15e08c7567019df6b2,AWAITING REVIEW,2024-02-15T14:13:45.808000Z,2024-02-15T14:25:23.725000Z,,2024-02-15T14:25:24.357242Z,698.0,CVPIIDEI,527,32,Male,White,United States,United States,United States,English,No,Full-Time,Not Applicable
63d7ff8dba0dc23728426ecd,<b>I transform into a hummingbird every day.,Highly disagree,71/94,Highly disagree,1,1708006960239,1708006965139,\Highly disagree\,\Highly disagree\,\1\,1708006964135,1708006964135,3896,3896,4900,buq,qns-item-noham,71,517115,0.0-1.0-0.70,65ce1c15e08c7567019df6b2,AWAITING REVIEW,2024-02-15T14:13:45.808000Z,2024-02-15T14:25:23.725000Z,,2024-02-15T14:25:24.357242Z,698.0,CVPIIDEI,527,32,Male,White,United States,United States,United States,English,No,Full-Time,Not Applicable
63d7ff8dba0dc23728426ecd,<b>I think a lot about arguments against my views.,Highly disagree,72/94,Somewhat disagree,2,1708006965141,1708006972015,\Somewhat disagree\,\Somewhat disagree\,\2\,1708006971322,1708006971322,6181,6181,6874,buq,qns-item-noham,72,523992,0.0-1.0-0.71,65ce1c15e08c7567019df6b2,AWAITING REVIEW,2024-02-15T14:13:45.808000Z,2024-02-15T14:25:23.725000Z,,2024-02-15T14:25:24.357242Z,698.0,CVPIIDEI,527,32,Male,White,United States,United States,United States,English,No,Full-Time,Not Applicable
63d7ff8dba0dc23728426ecd,<b>Personal experience is usually more important than facts and figures.,Highly disagree,73/94,Somewhat agree,3,1708006972020,1708006979272,\Somewhat agree\,\Somewhat agree\,\3\,1708006978342,1708006978342,6322,6322,7252,buq,qns-item-noham,73,531248,0.0-1.0-0.72,65ce1c15e08c7567019df6b2,AWAITING REVIEW,2024-02-15T14:13:45.808000Z,2024-02-15T14:25:23.725000Z,,2024-02-15T14:25:24.357242Z,698.0,CVPIIDEI,527,32,Male,White,United States,United States,United States,English,No,Full-Time,Not Applicable
63d7ff8dba0dc23728426ecd,<b>I?ve been tricked before about important matters.,Highly disagree,74/94,Somewhat agree,3,1708006979277,1708006983824,\Somewhat agree\,\Somewhat agree\,\3\,1708006982784,1708006982784,3507,3507,4547,buq,qns-item-noham,74,535801,0.0-1.0-0.73,65ce1c15e08c7567019df6b2,AWAITING REVIEW,2024-02-15T14:13:45.808000Z,2024-02-15T14:25:23.725000Z,,2024-02-15T14:25:24.357242Z,698.0,CVPIIDEI,527,32,Male,White,United States,United States,United States,English,No,Full-Time,Not Applicable
63d7ff8dba0dc23728426ecd,<b>I would need to be totally wowed if I were to change my opinion of a restaurant I don?t like.,Highly disagree,75/94,Highly agree,4,1708006983832,1708006990523,\Highly agree\,\Highly agree\,\4\,1708006989705,1708006989705,5873,5873,6691,buq,qns-item-noham,75,542500,0.0-1.0-0.74,65ce1c15e08c7567019df6b2,AWAITING REVIEW,2024-02-15T14:13:45.808000Z,2024-02-15T14:25:23.725000Z,,2024-02-15T14:25:24.357242Z,698.0,CVPIIDEI,527,32,Male,White,United States,United States,United States,English,No,Full-Time,Not Applicable
63d7ff8dba0dc23728426ecd,<b>I care a lot about politics.,Highly disagree,76/94,Highly disagree,1,1708006990534,1708006993569,\Highly disagree\,\Highly disagree\,\1\,1708006992835,1708006992835,2301,2301,3035,buq,qns-item-noham,76,545545,0.0-1.0-0.75,65ce1c15e08c7567019df6b2,AWAITING REVIEW,2024-02-15T14:13:45.808000Z,2024-02-15T14:25:23.725000Z,,2024-02-15T14:25:24.357242Z,698.0,CVPIIDEI,527,32,Male,White,United States,United States,United States,English,No,Full-Time,Not Applicable
63d7ff8dba0dc23728426ecd,<b>There are some topics I?ve been really wrong about.,Highly disagree,77/94,Somewhat agree,3,1708006993572,1708006998910,\Somewhat agree\,\Somewhat agree\,\3\,1708006997672,1708006997672,4100,4100,5338,buq,qns-item-noham,77,550886,0.0-1.0-0.76,65ce1c15e08c7567019df6b2,AWAITING REVIEW,2024-02-15T14:13:45.808000Z,2024-02-15T14:25:23.725000Z,,2024-02-15T14:25:24.357242Z,698.0,CVPIIDEI,527,32,Male,White,United States,United States,United States,English,No,Full-Time,Not Applicable
63d7ff8dba0dc23728426ecd,<b>Most beliefs can be supported with at least some evidence.,Highly disagree,78/94,Somewhat agree,3,1708006998916,1708007004141,\Somewhat agree\,\Somewhat agree\,\3\,1708007003200,1708007003200,4284,4284,5225,buq,qns-item-noham,78,556117,0.0-1.0-0.77,65ce1c15e08c7567019df6b2,AWAITING REVIEW,2024-02-15T14:13:45.808000Z,2024-02-15T14:25:23.725000Z,,2024-02-15T14:25:24.357242Z,698.0,CVPIIDEI,527,32,Male,White,United States,United States,United States,English,No,Full-Time,Not Applicable
63d7ff8dba0dc23728426ecd,<b>Other people make life out to be more complicated than it really is.,Highly disagree,79/94,Somewhat agree,3,1708007004148,1708007011271,\Somewhat agree\,\Somewhat agree\,\3\,1708007010429,1708007010429,6281,6281,7123,buq,qns-item-noham,79,563247,0.0-1.0-0.78,65ce1c15e08c7567019df6b2,AWAITING REVIEW,2024-02-15T14:13:45.808000Z,2024-02-15T14:25:23.725000Z,,2024-02-15T14:25:24.357242Z,698.0,CVPIIDEI,527,32,Male,White,United States,United States,United States,English,No,Full-Time,Not Applicable
63d7ff8dba0dc23728426ecd,"<b>Policy details don?t matter much, just the big picture.",Highly disagree,80/94,Somewhat agree,3,1708007011280,1708007018259,\Somewhat agree\,\Somewhat agree\,\3\,1708007015539,1708007015539,4259,4259,6979,buq,qns-item-noham,80,570235,0.0-1.0-0.79,65ce1c15e08c7567019df6b2,AWAITING REVIEW,2024-02-15T14:13:45.808000Z,2024-02-15T14:25:23.725000Z,,2024-02-15T14:25:24.357242Z,698.0,CVPIIDEI,527,32,Male,White,United States,United States,United States,English,No,Full-Time,Not Applicable
63d7ff8dba0dc23728426ecd,<b>I know my friends so well they can hardly ever surprise me.,Highly disagree,81/94,Somewhat disagree,2,1708007018263,1708007022782,\Somewhat disagree\,\Somewhat disagree\,\2\,1708007021711,1708007021711,3448,3448,4519,buq,qns-item-noham,81,574758,0.0-1.0-0.80,65ce1c15e08c7567019df6b2,AWAITING REVIEW,2024-02-15T14:13:45.808000Z,2024-02-15T14:25:23.725000Z,,2024-02-15T14:25:24.357242Z,698.0,CVPIIDEI,527,32,Male,White,United States,United States,United States,English,No,Full-Time,Not Applicable
63d7ff8dba0dc23728426ecd,<b>I do not often change my views on people.,Highly disagree,82/94,Somewhat agree,3,1708007022787,1708007026504,\Somewhat agree\,\Somewhat agree\,\3\,1708007025681,1708007025681,2894,2894,3717,buq,qns-item-noham,82,578480,0.0-1.0-0.81,65ce1c15e08c7567019df6b2,AWAITING REVIEW,2024-02-15T14:13:45.808000Z,2024-02-15T14:25:23.725000Z,,2024-02-15T14:25:24.357242Z,698.0,CVPIIDEI,527,32,Male,White,United States,United States,United States,English,No,Full-Time,Not Applicable
63d7ff8dba0dc23728426ecd,<b>I?m more certain about my beliefs than I used to be.,Highly disagree,83/94,Somewhat agree,3,1708007026515,1708007033730,\Somewhat agree\,\Somewhat agree\,\3\,1708007032826,1708007032826,6311,6311,7215,buq,qns-item-noham,83,585706,0.0-1.0-0.82,65ce1c15e08c7567019df6b2,AWAITING REVIEW,2024-02-15T14:13:45.808000Z,2024-02-15T14:25:23.725000Z,,2024-02-15T14:25:24.357242Z,698.0,CVPIIDEI,527,32,Male,White,United States,United States,United States,English,No,Full-Time,Not Applicable
63d7ff8dba0dc23728426ecd,<b>People often tell falsehoods unintentionally.,Highly disagree,84/94,Somewhat disagree,2,1708007033736,1708007037386,\Somewhat disagree\,\Somewhat disagree\,\2\,1708007036523,1708007036523,2787,2787,3650,buq,qns-item-noham,84,589362,0.0-1.0-0.83,65ce1c15e08c7567019df6b2,AWAITING REVIEW,2024-02-15T14:13:45.808000Z,2024-02-15T14:25:23.725000Z,,2024-02-15T14:25:24.357242Z,698.0,CVPIIDEI,527,32,Male,White,United States,United States,United States,English,No,Full-Time,Not Applicable
63d7ff8dba0dc23728426ecd,<b>Most people don?t know much about most things.,Highly disagree,85/94,Highly agree,4,1708007037392,1708007048564,\Highly agree\,\Highly agree\,\4\,1708007046963,1708007046963,9571,9571,11172,buq,qns-item-noham,85,600540,0.0-1.0-0.84,65ce1c15e08c7567019df6b2,AWAITING REVIEW,2024-02-15T14:13:45.808000Z,2024-02-15T14:25:23.725000Z,,2024-02-15T14:25:24.357242Z,698.0,CVPIIDEI,527,32,Male,White,United States,United States,United States,English,No,Full-Time,Not Applicable
63d7ff8dba0dc23728426ecd,"<b>If I find out something new about someone, I easily change my views about them.",Highly disagree,86/94,Somewhat disagree,2,1708007048570,1708007057193,\Somewhat disagree\,\Somewhat disagree\,\2\,1708007055861,1708007055861,7291,7291,8623,buq,qns-item-noham,86,609169,0.0-1.0-0.85,65ce1c15e08c7567019df6b2,AWAITING REVIEW,2024-02-15T14:13:45.808000Z,2024-02-15T14:25:23.725000Z,,2024-02-15T14:25:24.357242Z,698.0,CVPIIDEI,527,32,Male,White,United States,United States,United States,English,No,Full-Time,Not Applicable
63d7ff8dba0dc23728426ecd,<b>Having true beliefs is difficult.,Highly disagree,87/94,Somewhat disagree,2,1708007057201,1708007061478,\Somewhat disagree\,\Somewhat disagree\,\2\,1708007060528,1708007060528,3327,3327,4277,buq,qns-item-noham,87,613454,0.0-1.0-0.86,65ce1c15e08c7567019df6b2,AWAITING REVIEW,2024-02-15T14:13:45.808000Z,2024-02-15T14:25:23.725000Z,,2024-02-15T14:25:24.357242Z,698.0,CVPIIDEI,527,32,Male,White,United States,United States,United States,English,No,Full-Time,Not Applicable
63d7ff8dba0dc23728426ecd,<b>I don?t try new foods since I know I won?t like them.,Highly disagree,88/94,Somewhat disagree,2,1708007061484,1708007066544,\Somewhat disagree\,\Somewhat disagree\,\2\,1708007065660,1708007065660,4176,4176,5060,buq,qns-item-noham,88,618520,0.0-1.0-0.87,65ce1c15e08c7567019df6b2,AWAITING REVIEW,2024-02-15T14:13:45.808000Z,2024-02-15T14:25:23.725000Z,,2024-02-15T14:25:24.357242Z,698.0,CVPIIDEI,527,32,Male,White,United States,United States,United States,English,No,Full-Time,Not Applicable
63d7ff8dba0dc23728426ecd,<b>Other people trick each other a lot.,Highly disagree,89/94,Somewhat agree,3,1708007066553,1708007070325,\Somewhat agree\,\Somewhat agree\,\3\,1708007069502,1708007069502,2949,2949,3772,buq,qns-item-noham,89,622301,0.0-1.0-0.88,65ce1c15e08c7567019df6b2,AWAITING REVIEW,2024-02-15T14:13:45.808000Z,2024-02-15T14:25:23.725000Z,,2024-02-15T14:25:24.357242Z,698.0,CVPIIDEI,527,32,Male,White,United States,United States,United States,English,No,Full-Time,Not Applicable
63d7ff8dba0dc23728426ecd,<b>I would need to learn a lot about a person for my opinion of them to be swayed.,Highly disagree,90/94,Somewhat agree,3,1708007070332,1708007076445,\Somewhat agree\,\Somewhat agree\,\3\,1708007075363,1708007075363,5031,5031,6113,buq,qns-item-noham,90,628421,0.0-1.0-0.89,65ce1c15e08c7567019df6b2,AWAITING REVIEW,2024-02-15T14:13:45.808000Z,2024-02-15T14:25:23.725000Z,,2024-02-15T14:25:24.357242Z,698.0,CVPIIDEI,527,32,Male,White,United States,United States,United States,English,No,Full-Time,Not Applicable
63d7ff8dba0dc23728426ecd,<b>People can?t usually trick me when it comes to topics I care about.,Highly disagree,91/94,Somewhat agree,3,1708007076450,1708007081202,\Somewhat agree\,\Somewhat agree\,\3\,1708007080427,1708007080427,3977,3977,4752,buq,qns-item-noham,91,633178,0.0-1.0-0.90,65ce1c15e08c7567019df6b2,AWAITING REVIEW,2024-02-15T14:13:45.808000Z,2024-02-15T14:25:23.725000Z,,2024-02-15T14:25:24.357242Z,698.0,CVPIIDEI,527,32,Male,White,United States,United States,United States,English,No,Full-Time,Not Applicable
63d7ff8dba0dc23728426ecd,<b>I do not often change my views on food.,Highly disagree,92/94,Somewhat disagree,2,1708007081208,1708007085970,\Somewhat disagree\,\Somewhat disagree\,\2\,1708007085047,1708007085047,3839,3839,4762,buq,qns-item-noham,92,637946,0.0-1.0-0.91,65ce1c15e08c7567019df6b2,AWAITING REVIEW,2024-02-15T14:13:45.808000Z,2024-02-15T14:25:23.725000Z,,2024-02-15T14:25:24.357242Z,698.0,CVPIIDEI,527,32,Male,White,United States,United States,United States,English,No,Full-Time,Not Applicable
63d7ff8dba0dc23728426ecd,<b>Specific policies are often very important to me.,Highly disagree,93/94,Somewhat disagree,2,1708007085979,1708007089789,\Somewhat disagree\,\Somewhat disagree\,\2\,1708007089050,1708007089050,3071,3071,3810,buq,qns-item-noham,93,641765,0.0-1.0-0.92,65ce1c15e08c7567019df6b2,AWAITING REVIEW,2024-02-15T14:13:45.808000Z,2024-02-15T14:25:23.725000Z,,2024-02-15T14:25:24.357242Z,698.0,CVPIIDEI,527,32,Male,White,United States,United States,United States,English,No,Full-Time,Not Applicable
63d7ff8dba0dc23728426ecd,<b>Most people are woefully under-informed.,Highly disagree,94/94,Somewhat agree,3,1708007089797,1708007093089,\Somewhat agree\,\Somewhat agree\,\3\,1708007092250,1708007092250,2453,2453,3292,buq,qns-item-noham,94,645065,0.0-1.0-0.93,65ce1c15e08c7567019df6b2,AWAITING REVIEW,2024-02-15T14:13:45.808000Z,2024-02-15T14:25:23.725000Z,,2024-02-15T14:25:24.357242Z,698.0,CVPIIDEI,527,32,Male,White,United States,United States,United States,English,No,Full-Time,Not Applicable
63d7ff8dba0dc23728426ecd,,,,,,,,,,,,,,,,,,,,,65ce1c15e08c7567019df6b2,AWAITING REVIEW,2024-02-15T14:13:45.808000Z,2024-02-15T14:25:23.725000Z,,2024-02-15T14:25:24.357242Z,698.0,CVPIIDEI,527,32,Male,White,United States,United States,United States,English,No,Full-Time,Not Applicable
