PROLIFIC_PID,Question,qns_options,quest_num,answer,answer_num,question_load_timestamp,next_btn_timestamp,text_selected,final_text_selected,option_num_selected,preview_timestamps,final_text_selected_time_stamp,rt_first_option_click,rt_final_option_click,rt_submit_click,questionnaire,trial_type,trial_index,time_elapsed,internal_node_id,Demographic_Submission id,Demographic_Status,Demographic_Started at,Demographic_Completed at,Demographic_Reviewed at,Demographic_Archived at,Demographic_Time taken,Demographic_Completion code,Demographic_Total approvals,Demographic_Age,Demographic_Sex,Demographic_Ethnicity simplified,Demographic_Country of birth,Demographic_Country of residence,Demographic_Nationality,Demographic_Language,Demographic_Student status,Demographic_Employment status,Demographic_Custom study tncs accepted at
60fcc31e3a77261c13174e6f,<b>Knowing what?s true and knowing what to do about it are usually basically the same.,Highly disagree,1/94,Highly disagree,1,1708006674349,1708006687625,\Highly disagree\,\Highly disagree\,\1\,1708006686311,1708006686311,11962,11962,13276,buq,qns-item-noham,1,22755,0.0-1.0-0.0,65ce1ca528f429596f8d547a,AWAITING REVIEW,2024-02-15T14:16:11.272000Z,2024-02-15T14:28:38.148000Z,,2024-02-15T14:28:39.011683Z,747.0,CVPIIDEI,345,35,Female,White,United States,United States,United States,English,No,Part-Time,Not Applicable
60fcc31e3a77261c13174e6f,<b>Most people just believe whatever is convenient for them.,Highly disagree,2/94,Somewhat agree,3,1708006687629,1708006692863,\Somewhat agree\,\Somewhat agree\,\3\,1708006691780,1708006691780,4151,4151,5234,buq,qns-item-noham,2,27993,0.0-1.0-0.1,65ce1ca528f429596f8d547a,AWAITING REVIEW,2024-02-15T14:16:11.272000Z,2024-02-15T14:28:38.148000Z,,2024-02-15T14:28:39.011683Z,747.0,CVPIIDEI,345,35,Female,White,United States,United States,United States,English,No,Part-Time,Not Applicable
60fcc31e3a77261c13174e6f,<b>Having some big beliefs helps me sort out minor ones.,Highly disagree,3/94,Somewhat agree,3,1708006692866,1708006698615,\Somewhat agree\,\Somewhat agree\,\3\,1708006697295,1708006697295,4429,4429,5749,buq,qns-item-noham,3,33746,0.0-1.0-0.2,65ce1ca528f429596f8d547a,AWAITING REVIEW,2024-02-15T14:16:11.272000Z,2024-02-15T14:28:38.148000Z,,2024-02-15T14:28:39.011683Z,747.0,CVPIIDEI,345,35,Female,White,United States,United States,United States,English,No,Part-Time,Not Applicable
60fcc31e3a77261c13174e6f,<b>Political questions are usually pretty complicated.,Highly disagree,4/94,Highly agree,4,1708006698620,1708006703111,\Highly agree\,\Highly agree\,\4\,1708006702064,1708006702064,3444,3444,4491,buq,qns-item-noham,4,38241,0.0-1.0-0.3,65ce1ca528f429596f8d547a,AWAITING REVIEW,2024-02-15T14:16:11.272000Z,2024-02-15T14:28:38.148000Z,,2024-02-15T14:28:39.011683Z,747.0,CVPIIDEI,345,35,Female,White,United States,United States,United States,English,No,Part-Time,Not Applicable
60fcc31e3a77261c13174e6f,<b>Figuring out what?s important in life requires learning a lot of facts.,Highly disagree,5/94,Somewhat agree,3,1708006703114,1708006716454,\Somewhat agree\,\Somewhat agree\,\3\,1708006710665,1708006715479,7551,12365,13340,buq,qns-item-noham,5,51584,0.0-1.0-0.4,65ce1ca528f429596f8d547a,AWAITING REVIEW,2024-02-15T14:16:11.272000Z,2024-02-15T14:28:38.148000Z,,2024-02-15T14:28:39.011683Z,747.0,CVPIIDEI,345,35,Female,White,United States,United States,United States,English,No,Part-Time,Not Applicable
60fcc31e3a77261c13174e6f,<b>It is difficult for me to remember the last time I was surprised by politics.,Highly disagree,6/94,Somewhat disagree,2,1708006716457,1708006723381,\Somewhat disagree\,\Somewhat disagree\,\2\,1708006722167,1708006722167,5710,5710,6924,buq,qns-item-noham,6,58511,0.0-1.0-0.5,65ce1ca528f429596f8d547a,AWAITING REVIEW,2024-02-15T14:16:11.272000Z,2024-02-15T14:28:38.148000Z,,2024-02-15T14:28:39.011683Z,747.0,CVPIIDEI,345,35,Female,White,United States,United States,United States,English,No,Part-Time,Not Applicable
60fcc31e3a77261c13174e6f,<b>People?s false beliefs are understandable.,Highly disagree,7/94,Somewhat disagree,2,1708006723384,1708006729026,\Somewhat disagree\,\Somewhat disagree\,\2\,1708006727758,1708006727758,4374,4374,5642,buq,qns-item-noham,7,64156,0.0-1.0-0.6,65ce1ca528f429596f8d547a,AWAITING REVIEW,2024-02-15T14:16:11.272000Z,2024-02-15T14:28:38.148000Z,,2024-02-15T14:28:39.011683Z,747.0,CVPIIDEI,345,35,Female,White,United States,United States,United States,English,No,Part-Time,Not Applicable
60fcc31e3a77261c13174e6f,<b>I spend a lot of time trying to be informed about politics.,Highly disagree,8/94,Highly disagree,1,1708006729029,1708006734555,\Highly disagree\,\Highly disagree\,\1\,1708006733418,1708006733418,4389,4389,5526,buq,qns-item-noham,8,69685,0.0-1.0-0.7,65ce1ca528f429596f8d547a,AWAITING REVIEW,2024-02-15T14:16:11.272000Z,2024-02-15T14:28:38.148000Z,,2024-02-15T14:28:39.011683Z,747.0,CVPIIDEI,345,35,Female,White,United States,United States,United States,English,No,Part-Time,Not Applicable
60fcc31e3a77261c13174e6f,<b>I think a lot about whether my beliefs are right.,Highly disagree,9/94,Somewhat agree,3,1708006734559,1708006738769,\Somewhat agree\,\Somewhat agree\,\3\,1708006737402,1708006737402,2843,2843,4210,buq,qns-item-noham,9,73899,0.0-1.0-0.8,65ce1ca528f429596f8d547a,AWAITING REVIEW,2024-02-15T14:16:11.272000Z,2024-02-15T14:28:38.148000Z,,2024-02-15T14:28:39.011683Z,747.0,CVPIIDEI,345,35,Female,White,United States,United States,United States,English,No,Part-Time,Not Applicable
60fcc31e3a77261c13174e6f,<b>Statistics can be pretty misleading sometimes.,Highly disagree,10/94,Somewhat agree,3,1708006738772,1708006743697,\Somewhat agree\,\Somewhat agree\,\3\,1708006742585,1708006742585,3813,3813,4925,buq,qns-item-noham,10,78827,0.0-1.0-0.9,65ce1ca528f429596f8d547a,AWAITING REVIEW,2024-02-15T14:16:11.272000Z,2024-02-15T14:28:38.148000Z,,2024-02-15T14:28:39.011683Z,747.0,CVPIIDEI,345,35,Female,White,United States,United States,United States,English,No,Part-Time,Not Applicable
60fcc31e3a77261c13174e6f,<b>I have lots of beliefs that I?m only sort of sure about.,Highly disagree,11/94,Somewhat disagree,2,1708006743700,1708006751197,\Somewhat disagree\,\Somewhat disagree\,\2\,1708006749954,1708006749954,6254,6254,7497,buq,qns-item-noham,11,86327,0.0-1.0-0.10,65ce1ca528f429596f8d547a,AWAITING REVIEW,2024-02-15T14:16:11.272000Z,2024-02-15T14:28:38.148000Z,,2024-02-15T14:28:39.011683Z,747.0,CVPIIDEI,345,35,Female,White,United States,United States,United States,English,No,Part-Time,Not Applicable
60fcc31e3a77261c13174e6f,"<b>If I go to my favorite restaurant and the food is surprisingly bad, it reminds me there are many disappointments in life.",Highly disagree,12/94,Somewhat disagree,2,1708006751200,1708006759248,\Somewhat disagree\,\Somewhat disagree\,\2\,1708006757871,1708006757871,6671,6671,8048,buq,qns-item-noham,12,94378,0.0-1.0-0.11,65ce1ca528f429596f8d547a,AWAITING REVIEW,2024-02-15T14:16:11.272000Z,2024-02-15T14:28:38.148000Z,,2024-02-15T14:28:39.011683Z,747.0,CVPIIDEI,345,35,Female,White,United States,United States,United States,English,No,Part-Time,Not Applicable
60fcc31e3a77261c13174e6f,"<b>If you are paying attention, please select ?Somewhat agree?",Highly disagree,13/94,Somewhat agree,3,1708006759251,1708006763970,\Somewhat agree\,\Somewhat agree\,\3\,1708006762563,1708006762563,3312,3312,4719,buq,qns-item-noham,13,99100,0.0-1.0-0.12,65ce1ca528f429596f8d547a,AWAITING REVIEW,2024-02-15T14:16:11.272000Z,2024-02-15T14:28:38.148000Z,,2024-02-15T14:28:39.011683Z,747.0,CVPIIDEI,345,35,Female,White,United States,United States,United States,English,No,Part-Time,Not Applicable
60fcc31e3a77261c13174e6f,"<b>When I talk to others, I often worry I?ll convince them of something I didn?t mean to.",Highly disagree,14/94,Highly disagree,1,1708006763973,1708006773163,\Highly disagree\,\Highly disagree\,\1\,1708006772039,1708006772039,8066,8066,9190,buq,qns-item-noham,14,108294,0.0-1.0-0.13,65ce1ca528f429596f8d547a,AWAITING REVIEW,2024-02-15T14:16:11.272000Z,2024-02-15T14:28:38.148000Z,,2024-02-15T14:28:39.011683Z,747.0,CVPIIDEI,345,35,Female,White,United States,United States,United States,English,No,Part-Time,Not Applicable
60fcc31e3a77261c13174e6f,<b>I would need to learn something utterly shocking about my party in order to change my political views.,Highly disagree,15/94,Highly agree,4,1708006773166,1708006778595,\Highly agree\,\Highly agree\,\4\,1708006777454,1708006777454,4288,4288,5429,buq,qns-item-noham,15,113725,0.0-1.0-0.14,65ce1ca528f429596f8d547a,AWAITING REVIEW,2024-02-15T14:16:11.272000Z,2024-02-15T14:28:38.148000Z,,2024-02-15T14:28:39.011683Z,747.0,CVPIIDEI,345,35,Female,White,United States,United States,United States,English,No,Part-Time,Not Applicable
60fcc31e3a77261c13174e6f,"<b>When I have new experiences, I tend to think of them as unique.",Highly disagree,16/94,Somewhat agree,3,1708006778598,1708006786566,\Somewhat agree\,\Somewhat agree\,\3\,1708006785614,1708006785614,7016,7016,7968,buq,qns-item-noham,16,121696,0.0-1.0-0.15,65ce1ca528f429596f8d547a,AWAITING REVIEW,2024-02-15T14:16:11.272000Z,2024-02-15T14:28:38.148000Z,,2024-02-15T14:28:39.011683Z,747.0,CVPIIDEI,345,35,Female,White,United States,United States,United States,English,No,Part-Time,Not Applicable
60fcc31e3a77261c13174e6f,<b>I change my mind about specific policies pretty frequently.,Highly disagree,17/94,Highly disagree,1,1708006786569,1708006791903,\Highly disagree\,\Highly disagree\,\1\,1708006790774,1708006790774,4205,4205,5334,buq,qns-item-noham,17,127033,0.0-1.0-0.16,65ce1ca528f429596f8d547a,AWAITING REVIEW,2024-02-15T14:16:11.272000Z,2024-02-15T14:28:38.148000Z,,2024-02-15T14:28:39.011683Z,747.0,CVPIIDEI,345,35,Female,White,United States,United States,United States,English,No,Part-Time,Not Applicable
60fcc31e3a77261c13174e6f,"<b>If a politician in my political party supports something I disagree with, I give them the benefit of the doubt, as such issues often involve hidden complexities that aren?t obvious.   ",Highly disagree,18/94,Somewhat agree,3,1708006791906,1708006800253,\Somewhat agree\,\Somewhat agree\,\3\,1708006798578,1708006798578,6672,6672,8347,buq,qns-item-noham,18,135383,0.0-1.0-0.17,65ce1ca528f429596f8d547a,AWAITING REVIEW,2024-02-15T14:16:11.272000Z,2024-02-15T14:28:38.148000Z,,2024-02-15T14:28:39.011683Z,747.0,CVPIIDEI,345,35,Female,White,United States,United States,United States,English,No,Part-Time,Not Applicable
60fcc31e3a77261c13174e6f,<b>People?s bad politics are usually motivated by hatefulness.,Highly disagree,19/94,Somewhat agree,3,1708006800256,1708006807543,\Somewhat agree\,\Somewhat agree\,\3\,1708006806407,1708006806407,6151,6151,7287,buq,qns-item-noham,19,142673,0.0-1.0-0.18,65ce1ca528f429596f8d547a,AWAITING REVIEW,2024-02-15T14:16:11.272000Z,2024-02-15T14:28:38.148000Z,,2024-02-15T14:28:39.011683Z,747.0,CVPIIDEI,345,35,Female,White,United States,United States,United States,English,No,Part-Time,Not Applicable
60fcc31e3a77261c13174e6f,<b>I think a lot about how to reconcile my beliefs with one another.,Highly disagree,20/94,Highly disagree,1,1708006807546,1708006812823,\Highly disagree\,\Highly disagree\,\1\,1708006811738,1708006811738,4192,4192,5277,buq,qns-item-noham,20,147953,0.0-1.0-0.19,65ce1ca528f429596f8d547a,AWAITING REVIEW,2024-02-15T14:16:11.272000Z,2024-02-15T14:28:38.148000Z,,2024-02-15T14:28:39.011683Z,747.0,CVPIIDEI,345,35,Female,White,United States,United States,United States,English,No,Part-Time,Not Applicable
60fcc31e3a77261c13174e6f,<b>I might have false beliefs about important topics.,Highly disagree,21/94,Somewhat agree,3,1708006812826,1708006818569,\Somewhat agree\,\Somewhat agree\,\3\,1708006816671,1708006816671,3845,3845,5743,buq,qns-item-noham,21,153700,0.0-1.0-0.20,65ce1ca528f429596f8d547a,AWAITING REVIEW,2024-02-15T14:16:11.272000Z,2024-02-15T14:28:38.148000Z,,2024-02-15T14:28:39.011683Z,747.0,CVPIIDEI,345,35,Female,White,United States,United States,United States,English,No,Part-Time,Not Applicable
60fcc31e3a77261c13174e6f,"<b>If a good friend of mine does something unexpected that upsets me, I feel like I don?t know them anymore.",Highly disagree,22/94,Somewhat agree,3,1708006818573,1708006827855,\Somewhat disagree\,\Somewhat agree\,\2\,1708006824873,1708006826448,6300,7875,9282,buq,qns-item-noham,22,162986,0.0-1.0-0.21,65ce1ca528f429596f8d547a,AWAITING REVIEW,2024-02-15T14:16:11.272000Z,2024-02-15T14:28:38.148000Z,,2024-02-15T14:28:39.011683Z,747.0,CVPIIDEI,345,35,Female,White,United States,United States,United States,English,No,Part-Time,Not Applicable
60fcc31e3a77261c13174e6f,<b>Other people?s beliefs are often incoherent.,Highly disagree,23/94,Somewhat agree,3,1708006827859,1708006834587,\Somewhat disagree\,\Somewhat agree\,\2\,1708006831855,1708006833353,3996,5494,6728,buq,qns-item-noham,23,169717,0.0-1.0-0.22,65ce1ca528f429596f8d547a,AWAITING REVIEW,2024-02-15T14:16:11.272000Z,2024-02-15T14:28:38.148000Z,,2024-02-15T14:28:39.011683Z,747.0,CVPIIDEI,345,35,Female,White,United States,United States,United States,English,No,Part-Time,Not Applicable
60fcc31e3a77261c13174e6f,"<b>Every now and then, a new experience will unsettle beliefs I?ve had for a while.",Highly disagree,24/94,Somewhat disagree,2,1708006834590,1708006839500,\Somewhat disagree\,\Somewhat disagree\,\2\,1708006838453,1708006838453,3863,3863,4910,buq,qns-item-noham,24,174630,0.0-1.0-0.23,65ce1ca528f429596f8d547a,AWAITING REVIEW,2024-02-15T14:16:11.272000Z,2024-02-15T14:28:38.148000Z,,2024-02-15T14:28:39.011683Z,747.0,CVPIIDEI,345,35,Female,White,United States,United States,United States,English,No,Part-Time,Not Applicable
60fcc31e3a77261c13174e6f,<b>Some policies I agree with in principle are so bad I don?t support them. ,Highly disagree,25/94,Highly disagree,1,1708006839503,1708006846500,\Highly disagree\,\Highly disagree\,\1\,1708006845139,1708006845139,5636,5636,6997,buq,qns-item-noham,25,181630,0.0-1.0-0.24,65ce1ca528f429596f8d547a,AWAITING REVIEW,2024-02-15T14:16:11.272000Z,2024-02-15T14:28:38.148000Z,,2024-02-15T14:28:39.011683Z,747.0,CVPIIDEI,345,35,Female,White,United States,United States,United States,English,No,Part-Time,Not Applicable
60fcc31e3a77261c13174e6f,<b>I?m pretty sure I?ve accidentally spread false information.,Highly disagree,26/94,Somewhat agree,3,1708006846503,1708006853660,\Somewhat agree\,\Somewhat agree\,\3\,1708006852383,1708006852383,5880,5880,7157,buq,qns-item-noham,26,188791,0.0-1.0-0.25,65ce1ca528f429596f8d547a,AWAITING REVIEW,2024-02-15T14:16:11.272000Z,2024-02-15T14:28:38.148000Z,,2024-02-15T14:28:39.011683Z,747.0,CVPIIDEI,345,35,Female,White,United States,United States,United States,English,No,Part-Time,Not Applicable
60fcc31e3a77261c13174e6f,"<b>If I go to my favorite restaurant and the food is unexpectedly bad, then they have changed owners.",Highly disagree,27/94,Highly disagree,1,1708006853663,1708006861865,\Highly disagree\,\Highly disagree\,\1\,1708006860688,1708006860688,7025,7025,8202,buq,qns-item-noham,27,196995,0.0-1.0-0.26,65ce1ca528f429596f8d547a,AWAITING REVIEW,2024-02-15T14:16:11.272000Z,2024-02-15T14:28:38.148000Z,,2024-02-15T14:28:39.011683Z,747.0,CVPIIDEI,345,35,Female,White,United States,United States,United States,English,No,Part-Time,Not Applicable
60fcc31e3a77261c13174e6f,"<b>In politics, it?s important to trust your friends and family.",Highly disagree,28/94,Highly disagree,1,1708006861867,1708006867364,\Highly disagree\,\Highly disagree\,\1\,1708006866319,1708006866319,4452,4452,5497,buq,qns-item-noham,28,202494,0.0-1.0-0.27,65ce1ca528f429596f8d547a,AWAITING REVIEW,2024-02-15T14:16:11.272000Z,2024-02-15T14:28:38.148000Z,,2024-02-15T14:28:39.011683Z,747.0,CVPIIDEI,345,35,Female,White,United States,United States,United States,English,No,Part-Time,Not Applicable
60fcc31e3a77261c13174e6f,<b>It?s OK to have some conflicting beliefs.,Highly disagree,29/94,Highly agree,4,1708006867366,1708006870934,\Highly agree\,\Highly agree\,\4\,1708006869863,1708006869863,2497,2497,3568,buq,qns-item-noham,29,206064,0.0-1.0-0.28,65ce1ca528f429596f8d547a,AWAITING REVIEW,2024-02-15T14:16:11.272000Z,2024-02-15T14:28:38.148000Z,,2024-02-15T14:28:39.011683Z,747.0,CVPIIDEI,345,35,Female,White,United States,United States,United States,English,No,Part-Time,Not Applicable
60fcc31e3a77261c13174e6f,<b>Listening to people I disagree with makes my opinions better.,Highly disagree,30/94,Highly agree,4,1708006870937,1708006875508,\Highly agree\,\Highly agree\,\4\,1708006874424,1708006874424,3487,3487,4571,buq,qns-item-noham,30,210638,0.0-1.0-0.29,65ce1ca528f429596f8d547a,AWAITING REVIEW,2024-02-15T14:16:11.272000Z,2024-02-15T14:28:38.148000Z,,2024-02-15T14:28:39.011683Z,747.0,CVPIIDEI,345,35,Female,White,United States,United States,United States,English,No,Part-Time,Not Applicable
60fcc31e3a77261c13174e6f,<b>My moral compass sometimes makes it harder to determine what?s true.,Highly disagree,31/94,Somewhat disagree,2,1708006875510,1708006881184,\Somewhat disagree\,\Somewhat disagree\,\2\,1708006879945,1708006879945,4435,4435,5674,buq,qns-item-noham,31,216314,0.0-1.0-0.30,65ce1ca528f429596f8d547a,AWAITING REVIEW,2024-02-15T14:16:11.272000Z,2024-02-15T14:28:38.148000Z,,2024-02-15T14:28:39.011683Z,747.0,CVPIIDEI,345,35,Female,White,United States,United States,United States,English,No,Part-Time,Not Applicable
60fcc31e3a77261c13174e6f,<b>Evidence pointing in the wrong direction isn?t really evidence at all.,Highly disagree,32/94,Highly disagree,1,1708006881187,1708006886028,\Highly disagree\,\Highly disagree\,\1\,1708006884838,1708006884838,3651,3651,4841,buq,qns-item-noham,32,221158,0.0-1.0-0.31,65ce1ca528f429596f8d547a,AWAITING REVIEW,2024-02-15T14:16:11.272000Z,2024-02-15T14:28:38.148000Z,,2024-02-15T14:28:39.011683Z,747.0,CVPIIDEI,345,35,Female,White,United States,United States,United States,English,No,Part-Time,Not Applicable
60fcc31e3a77261c13174e6f,"<b>If the political party I support messes up, it makes me think politics is rotten.",Highly disagree,33/94,Somewhat agree,3,1708006886031,1708006891622,\Somewhat agree\,\Somewhat agree\,\3\,1708006890585,1708006890585,4554,4554,5591,buq,qns-item-noham,33,226753,0.0-1.0-0.32,65ce1ca528f429596f8d547a,AWAITING REVIEW,2024-02-15T14:16:11.272000Z,2024-02-15T14:28:38.148000Z,,2024-02-15T14:28:39.011683Z,747.0,CVPIIDEI,345,35,Female,White,United States,United States,United States,English,No,Part-Time,Not Applicable
60fcc31e3a77261c13174e6f,<b>Lots of important topics can only really be understood by some groups of people.,Highly disagree,34/94,Somewhat disagree,2,1708006891625,1708006898545,\Somewhat disagree\,\Somewhat disagree\,\2\,1708006896908,1708006896908,5283,5283,6920,buq,qns-item-noham,34,233675,0.0-1.0-0.33,65ce1ca528f429596f8d547a,AWAITING REVIEW,2024-02-15T14:16:11.272000Z,2024-02-15T14:28:38.148000Z,,2024-02-15T14:28:39.011683Z,747.0,CVPIIDEI,345,35,Female,White,United States,United States,United States,English,No,Part-Time,Not Applicable
60fcc31e3a77261c13174e6f,<b>Having conflicting beliefs means you haven?t thought about them enough.,Highly disagree,35/94,Highly disagree,1,1708006898548,1708006904720,\Highly disagree\,\Highly disagree\,\1\,1708006903603,1708006903603,5055,5055,6172,buq,qns-item-noham,35,239850,0.0-1.0-0.34,65ce1ca528f429596f8d547a,AWAITING REVIEW,2024-02-15T14:16:11.272000Z,2024-02-15T14:28:38.148000Z,,2024-02-15T14:28:39.011683Z,747.0,CVPIIDEI,345,35,Female,White,United States,United States,United States,English,No,Part-Time,Not Applicable
60fcc31e3a77261c13174e6f,<b>I do not often change my political opinions.,Highly disagree,36/94,Highly agree,4,1708006904724,1708006911282,\Somewhat agree\,\Highly agree\,\3\,1708006908478,1708006910187,3754,5463,6558,buq,qns-item-noham,36,246413,0.0-1.0-0.35,65ce1ca528f429596f8d547a,AWAITING REVIEW,2024-02-15T14:16:11.272000Z,2024-02-15T14:28:38.148000Z,,2024-02-15T14:28:39.011683Z,747.0,CVPIIDEI,345,35,Female,White,United States,United States,United States,English,No,Part-Time,Not Applicable
60fcc31e3a77261c13174e6f,<b>It?s difficult to not have at least some conflicting beliefs.,Highly disagree,37/94,Highly agree,4,1708006911286,1708006915837,\Highly agree\,\Highly agree\,\4\,1708006914803,1708006914803,3517,3517,4551,buq,qns-item-noham,37,250967,0.0-1.0-0.36,65ce1ca528f429596f8d547a,AWAITING REVIEW,2024-02-15T14:16:11.272000Z,2024-02-15T14:28:38.148000Z,,2024-02-15T14:28:39.011683Z,747.0,CVPIIDEI,345,35,Female,White,United States,United States,United States,English,No,Part-Time,Not Applicable
60fcc31e3a77261c13174e6f,<b>Wishful thinking causes a lot of problems.,Highly disagree,38/94,Somewhat disagree,2,1708006915840,1708006922091,\Somewhat disagree\,\Somewhat disagree\,\2\,1708006920110,1708006920110,4270,4270,6251,buq,qns-item-noham,38,257221,0.0-1.0-0.37,65ce1ca528f429596f8d547a,AWAITING REVIEW,2024-02-15T14:16:11.272000Z,2024-02-15T14:28:38.148000Z,,2024-02-15T14:28:39.011683Z,747.0,CVPIIDEI,345,35,Female,White,United States,United States,United States,English,No,Part-Time,Not Applicable
60fcc31e3a77261c13174e6f,<b>I judge a food item only once I try it many times.,Highly disagree,39/94,Somewhat agree,3,1708006922094,1708006927271,\Somewhat agree\,\Somewhat agree\,\3\,1708006926090,1708006926090,3996,3996,5177,buq,qns-item-noham,39,262401,0.0-1.0-0.38,65ce1ca528f429596f8d547a,AWAITING REVIEW,2024-02-15T14:16:11.272000Z,2024-02-15T14:28:38.148000Z,,2024-02-15T14:28:39.011683Z,747.0,CVPIIDEI,345,35,Female,White,United States,United States,United States,English,No,Part-Time,Not Applicable
60fcc31e3a77261c13174e6f,"<b>When a person holds conflicting beliefs, they should really try to figure out what?s wrong.",Highly disagree,40/94,Somewhat disagree,2,1708006927273,1708006934758,\Somewhat disagree\,\Somewhat disagree\,\2\,1708006933566,1708006933566,6293,6293,7485,buq,qns-item-noham,40,269888,0.0-1.0-0.39,65ce1ca528f429596f8d547a,AWAITING REVIEW,2024-02-15T14:16:11.272000Z,2024-02-15T14:28:38.148000Z,,2024-02-15T14:28:39.011683Z,747.0,CVPIIDEI,345,35,Female,White,United States,United States,United States,English,No,Part-Time,Not Applicable
60fcc31e3a77261c13174e6f,<b>Knowing what?s important in life is easy.,Highly disagree,41/94,Highly disagree,1,1708006934760,1708006938846,\Highly disagree\,\Highly disagree\,\1\,1708006937689,1708006937689,2929,2929,4086,buq,qns-item-noham,41,273976,0.0-1.0-0.40,65ce1ca528f429596f8d547a,AWAITING REVIEW,2024-02-15T14:16:11.272000Z,2024-02-15T14:28:38.148000Z,,2024-02-15T14:28:39.011683Z,747.0,CVPIIDEI,345,35,Female,White,United States,United States,United States,English,No,Part-Time,Not Applicable
60fcc31e3a77261c13174e6f,<b>I swim across the Atlantic Ocean to get to work every day.,Highly disagree,42/94,Highly disagree,1,1708006938849,1708006944984,\Highly disagree\,\Highly disagree\,\1\,1708006943221,1708006943221,4372,4372,6135,buq,qns-item-noham,42,280114,0.0-1.0-0.41,65ce1ca528f429596f8d547a,AWAITING REVIEW,2024-02-15T14:16:11.272000Z,2024-02-15T14:28:38.148000Z,,2024-02-15T14:28:39.011683Z,747.0,CVPIIDEI,345,35,Female,White,United States,United States,United States,English,No,Part-Time,Not Applicable
60fcc31e3a77261c13174e6f,"<b>Sometimes, you just have to ignore evidence that you know is wrong.",Highly disagree,43/94,Highly disagree,1,1708006944987,1708006951010,\Highly disagree\,\Highly disagree\,\1\,1708006949829,1708006949829,4842,4842,6023,buq,qns-item-noham,43,286141,0.0-1.0-0.42,65ce1ca528f429596f8d547a,AWAITING REVIEW,2024-02-15T14:16:11.272000Z,2024-02-15T14:28:38.148000Z,,2024-02-15T14:28:39.011683Z,747.0,CVPIIDEI,345,35,Female,White,United States,United States,United States,English,No,Part-Time,Not Applicable
60fcc31e3a77261c13174e6f,<b>I have had some false beliefs.,Highly disagree,44/94,Somewhat agree,3,1708006951014,1708006958651,\Somewhat disagree\,\Somewhat agree\,\2\,1708006954996,1708006957437,3982,6423,7637,buq,qns-item-noham,44,293781,0.0-1.0-0.43,65ce1ca528f429596f8d547a,AWAITING REVIEW,2024-02-15T14:16:11.272000Z,2024-02-15T14:28:38.148000Z,,2024-02-15T14:28:39.011683Z,747.0,CVPIIDEI,345,35,Female,White,United States,United States,United States,English,No,Part-Time,Not Applicable
60fcc31e3a77261c13174e6f,"<b>If one friend does something that upsets me, I sometimes start to distrust people in general.",Highly disagree,45/94,Somewhat disagree,2,1708006958654,1708006964933,\Somewhat disagree\,\Somewhat disagree\,\2\,1708006963280,1708006963280,4626,4626,6279,buq,qns-item-noham,45,300063,0.0-1.0-0.44,65ce1ca528f429596f8d547a,AWAITING REVIEW,2024-02-15T14:16:11.272000Z,2024-02-15T14:28:38.148000Z,,2024-02-15T14:28:39.011683Z,747.0,CVPIIDEI,345,35,Female,White,United States,United States,United States,English,No,Part-Time,Not Applicable
60fcc31e3a77261c13174e6f,<b>The facts about most important matters are easy to find.,Highly disagree,46/94,Highly disagree,1,1708006964936,1708006970156,\Highly disagree\,\Highly disagree\,\1\,1708006969027,1708006969027,4091,4091,5220,buq,qns-item-noham,46,305286,0.0-1.0-0.45,65ce1ca528f429596f8d547a,AWAITING REVIEW,2024-02-15T14:16:11.272000Z,2024-02-15T14:28:38.148000Z,,2024-02-15T14:28:39.011683Z,747.0,CVPIIDEI,345,35,Female,White,United States,United States,United States,English,No,Part-Time,Not Applicable
60fcc31e3a77261c13174e6f,<b>It?s better to know what?s true than to know what?s moral.,Highly disagree,47/94,Somewhat disagree,2,1708006970159,1708006976713,\Somewhat disagree\,\Somewhat disagree\,\2\,1708006975139,1708006975139,4980,4980,6554,buq,qns-item-noham,47,311843,0.0-1.0-0.46,65ce1ca528f429596f8d547a,AWAITING REVIEW,2024-02-15T14:16:11.272000Z,2024-02-15T14:28:38.148000Z,,2024-02-15T14:28:39.011683Z,747.0,CVPIIDEI,345,35,Female,White,United States,United States,United States,English,No,Part-Time,Not Applicable
60fcc31e3a77261c13174e6f,<b>I used to think the world was less complicated than I do now.,Highly disagree,48/94,Highly agree,4,1708006976716,1708006981504,\Highly agree\,\Highly agree\,\4\,1708006980310,1708006980310,3594,3594,4788,buq,qns-item-noham,48,316634,0.0-1.0-0.47,65ce1ca528f429596f8d547a,AWAITING REVIEW,2024-02-15T14:16:11.272000Z,2024-02-15T14:28:38.148000Z,,2024-02-15T14:28:39.011683Z,747.0,CVPIIDEI,345,35,Female,White,United States,United States,United States,English,No,Part-Time,Not Applicable
60fcc31e3a77261c13174e6f,<b>People are usually completely right or completely wrong.,Highly disagree,49/94,Somewhat disagree,2,1708006981507,1708006985425,\Somewhat disagree\,\Somewhat disagree\,\2\,1708006984285,1708006984285,2778,2778,3918,buq,qns-item-noham,49,320555,0.0-1.0-0.48,65ce1ca528f429596f8d547a,AWAITING REVIEW,2024-02-15T14:16:11.272000Z,2024-02-15T14:28:38.148000Z,,2024-02-15T14:28:39.011683Z,747.0,CVPIIDEI,345,35,Female,White,United States,United States,United States,English,No,Part-Time,Not Applicable
60fcc31e3a77261c13174e6f,<b>I spend a lot of time considering alternatives to my beliefs.,Highly disagree,50/94,Highly disagree,1,1708006985428,1708006989408,\Highly disagree\,\Highly disagree\,\1\,1708006988279,1708006988279,2851,2851,3980,buq,qns-item-noham,50,324538,0.0-1.0-0.49,65ce1ca528f429596f8d547a,AWAITING REVIEW,2024-02-15T14:16:11.272000Z,2024-02-15T14:28:38.148000Z,,2024-02-15T14:28:39.011683Z,747.0,CVPIIDEI,345,35,Female,White,United States,United States,United States,English,No,Part-Time,Not Applicable
60fcc31e3a77261c13174e6f,"<b>Political enemies need to be defeated, not convinced.",Highly disagree,51/94,Somewhat disagree,2,1708006989411,1708006996137,\Somewhat disagree\,\Somewhat disagree\,\2\,1708006994568,1708006994568,5157,5157,6726,buq,qns-item-noham,51,331267,0.0-1.0-0.50,65ce1ca528f429596f8d547a,AWAITING REVIEW,2024-02-15T14:16:11.272000Z,2024-02-15T14:28:38.148000Z,,2024-02-15T14:28:39.011683Z,747.0,CVPIIDEI,345,35,Female,White,United States,United States,United States,English,No,Part-Time,Not Applicable
60fcc31e3a77261c13174e6f,<b>I form my political views only after meticulously gathering historical and present information about their policies.,Highly disagree,52/94,Highly disagree,1,1708006996140,1708007002516,\Highly disagree\,\Highly disagree\,\1\,1708007001019,1708007001019,4879,4879,6376,buq,qns-item-noham,52,337646,0.0-1.0-0.51,65ce1ca528f429596f8d547a,AWAITING REVIEW,2024-02-15T14:16:11.272000Z,2024-02-15T14:28:38.148000Z,,2024-02-15T14:28:39.011683Z,747.0,CVPIIDEI,345,35,Female,White,United States,United States,United States,English,No,Part-Time,Not Applicable
60fcc31e3a77261c13174e6f,<b>It is difficult for me to remember the last time I was surprised by politics.,Highly disagree,53/94,Somewhat agree,3,1708007002519,1708007011053,\Somewhat agree\,\Somewhat agree\,\3\,1708007009421,1708007009421,6902,6902,8534,buq,qns-item-noham,53,346183,0.0-1.0-0.52,65ce1ca528f429596f8d547a,AWAITING REVIEW,2024-02-15T14:16:11.272000Z,2024-02-15T14:28:38.148000Z,,2024-02-15T14:28:39.011683Z,747.0,CVPIIDEI,345,35,Female,White,United States,United States,United States,English,No,Part-Time,Not Applicable
60fcc31e3a77261c13174e6f,"<b>When I find out I?m wrong, I think a lot about my related beliefs.",Highly disagree,54/94,Somewhat agree,3,1708007011056,1708007017073,\Somewhat agree\,\Somewhat agree\,\3\,1708007015896,1708007015896,4840,4840,6017,buq,qns-item-noham,54,352203,0.0-1.0-0.53,65ce1ca528f429596f8d547a,AWAITING REVIEW,2024-02-15T14:16:11.272000Z,2024-02-15T14:28:38.148000Z,,2024-02-15T14:28:39.011683Z,747.0,CVPIIDEI,345,35,Female,White,United States,United States,United States,English,No,Part-Time,Not Applicable
60fcc31e3a77261c13174e6f,"<b>If the political party I support messes up, it makes me think you can?t trust anyone these days",Highly disagree,55/94,Somewhat disagree,2,1708007017076,1708007022973,\Somewhat disagree\,\Somewhat disagree\,\2\,1708007021641,1708007021641,4565,4565,5897,buq,qns-item-noham,55,358103,0.0-1.0-0.54,65ce1ca528f429596f8d547a,AWAITING REVIEW,2024-02-15T14:16:11.272000Z,2024-02-15T14:28:38.148000Z,,2024-02-15T14:28:39.011683Z,747.0,CVPIIDEI,345,35,Female,White,United States,United States,United States,English,No,Part-Time,Not Applicable
60fcc31e3a77261c13174e6f,<b>People?s brains turn off when they talk about politics.,Highly disagree,56/94,Somewhat disagree,2,1708007022976,1708007029274,\Somewhat disagree\,\Somewhat disagree\,\2\,1708007028234,1708007028234,5258,5258,6298,buq,qns-item-noham,56,364404,0.0-1.0-0.55,65ce1ca528f429596f8d547a,AWAITING REVIEW,2024-02-15T14:16:11.272000Z,2024-02-15T14:28:38.148000Z,,2024-02-15T14:28:39.011683Z,747.0,CVPIIDEI,345,35,Female,White,United States,United States,United States,English,No,Part-Time,Not Applicable
60fcc31e3a77261c13174e6f,<b>People who are wrong are usually just ignoring the obvious.,Highly disagree,57/94,Somewhat disagree,2,1708007029277,1708007034559,\Somewhat disagree\,\Somewhat disagree\,\2\,1708007033422,1708007033422,4145,4145,5282,buq,qns-item-noham,57,369689,0.0-1.0-0.56,65ce1ca528f429596f8d547a,AWAITING REVIEW,2024-02-15T14:16:11.272000Z,2024-02-15T14:28:38.148000Z,,2024-02-15T14:28:39.011683Z,747.0,CVPIIDEI,345,35,Female,White,United States,United States,United States,English,No,Part-Time,Not Applicable
60fcc31e3a77261c13174e6f,"<b>When forming my views on people, I rely more on what they are like now rather than rely on my past experience with them.",Highly disagree,58/94,Somewhat disagree,2,1708007034562,1708007046463,\Somewhat disagree\,\Somewhat disagree\,\2\,1708007045438,1708007045438,10876,10876,11901,buq,qns-item-noham,58,381593,0.0-1.0-0.57,65ce1ca528f429596f8d547a,AWAITING REVIEW,2024-02-15T14:16:11.272000Z,2024-02-15T14:28:38.148000Z,,2024-02-15T14:28:39.011683Z,747.0,CVPIIDEI,345,35,Female,White,United States,United States,United States,English,No,Part-Time,Not Applicable
60fcc31e3a77261c13174e6f,"<b>When people contradict my beliefs, I usually know about their evidence already.",Highly disagree,59/94,Somewhat agree,3,1708007046466,1708007053266,\Somewhat agree\,\Somewhat agree\,\3\,1708007051884,1708007051884,5418,5418,6800,buq,qns-item-noham,59,388397,0.0-1.0-0.58,65ce1ca528f429596f8d547a,AWAITING REVIEW,2024-02-15T14:16:11.272000Z,2024-02-15T14:28:38.148000Z,,2024-02-15T14:28:39.011683Z,747.0,CVPIIDEI,345,35,Female,White,United States,United States,United States,English,No,Part-Time,Not Applicable
60fcc31e3a77261c13174e6f,<b>Figuring out what?s true and what?s false mainly requires a strong moral compass.,Highly disagree,60/94,Somewhat disagree,2,1708007053269,1708007059651,\Somewhat disagree\,\Somewhat disagree\,\2\,1708007058518,1708007058518,5249,5249,6382,buq,qns-item-noham,60,394781,0.0-1.0-0.59,65ce1ca528f429596f8d547a,AWAITING REVIEW,2024-02-15T14:16:11.272000Z,2024-02-15T14:28:38.148000Z,,2024-02-15T14:28:39.011683Z,747.0,CVPIIDEI,345,35,Female,White,United States,United States,United States,English,No,Part-Time,Not Applicable
60fcc31e3a77261c13174e6f,"<b>Usually I?m wrong about simple things, not complicated ones.",Highly disagree,61/94,Somewhat disagree,2,1708007059654,1708007071840,\Somewhat disagree\,\Somewhat disagree\,\2\,1708007064801,1708007070912,5147,11258,12186,buq,qns-item-noham,61,406970,0.0-1.0-0.60,65ce1ca528f429596f8d547a,AWAITING REVIEW,2024-02-15T14:16:11.272000Z,2024-02-15T14:28:38.148000Z,,2024-02-15T14:28:39.011683Z,747.0,CVPIIDEI,345,35,Female,White,United States,United States,United States,English,No,Part-Time,Not Applicable
60fcc31e3a77261c13174e6f,<b>Getting all the information I want about important things is hard.,Highly disagree,62/94,Highly agree,4,1708007071842,1708007078649,\Highly agree\,\Highly agree\,\4\,1708007077208,1708007077208,5366,5366,6807,buq,qns-item-noham,62,413779,0.0-1.0-0.61,65ce1ca528f429596f8d547a,AWAITING REVIEW,2024-02-15T14:16:11.272000Z,2024-02-15T14:28:38.148000Z,,2024-02-15T14:28:39.011683Z,747.0,CVPIIDEI,345,35,Female,White,United States,United States,United States,English,No,Part-Time,Not Applicable
60fcc31e3a77261c13174e6f,<b>Most false beliefs spread because people try to deceive one another.,Highly disagree,63/94,Somewhat disagree,2,1708007078652,1708007091888,\Somewhat disagree\,\Somewhat disagree\,\2\,1708007090752,1708007090752,12100,12100,13236,buq,qns-item-noham,63,427018,0.0-1.0-0.62,65ce1ca528f429596f8d547a,AWAITING REVIEW,2024-02-15T14:16:11.272000Z,2024-02-15T14:28:38.148000Z,,2024-02-15T14:28:39.011683Z,747.0,CVPIIDEI,345,35,Female,White,United States,United States,United States,English,No,Part-Time,Not Applicable
60fcc31e3a77261c13174e6f,<b>I can usually find something to agree with in most people?s beliefs.,Highly disagree,64/94,Highly disagree,1,1708007091891,1708007096079,\Highly disagree\,\Highly disagree\,\1\,1708007094959,1708007094959,3068,3068,4188,buq,qns-item-noham,64,431209,0.0-1.0-0.63,65ce1ca528f429596f8d547a,AWAITING REVIEW,2024-02-15T14:16:11.272000Z,2024-02-15T14:28:38.148000Z,,2024-02-15T14:28:39.011683Z,747.0,CVPIIDEI,345,35,Female,White,United States,United States,United States,English,No,Part-Time,Not Applicable
60fcc31e3a77261c13174e6f,<b>I only form my views of people once I get to know them very well.,Highly disagree,65/94,Somewhat disagree,2,1708007096082,1708007106874,\Somewhat agree\,\Somewhat disagree\,\3\,1708007099655,1708007104064,3573,7982,10792,buq,qns-item-noham,65,442004,0.0-1.0-0.64,65ce1ca528f429596f8d547a,AWAITING REVIEW,2024-02-15T14:16:11.272000Z,2024-02-15T14:28:38.148000Z,,2024-02-15T14:28:39.011683Z,747.0,CVPIIDEI,345,35,Female,White,United States,United States,United States,English,No,Part-Time,Not Applicable
60fcc31e3a77261c13174e6f,"<b>When people tell me important things about the world, I usually believe them.",Highly disagree,66/94,Somewhat disagree,2,1708007106877,1708007111924,\Somewhat disagree\,\Somewhat disagree\,\2\,1708007110866,1708007110866,3989,3989,5047,buq,qns-item-noham,66,447055,0.0-1.0-0.65,65ce1ca528f429596f8d547a,AWAITING REVIEW,2024-02-15T14:16:11.272000Z,2024-02-15T14:28:38.148000Z,,2024-02-15T14:28:39.011683Z,747.0,CVPIIDEI,345,35,Female,White,United States,United States,United States,English,No,Part-Time,Not Applicable
60fcc31e3a77261c13174e6f,"<b>If a friend does something that upsets me, it reminds me what an unpredictable place the world is.",Highly disagree,67/94,Somewhat agree,3,1708007111927,1708007119038,\Somewhat agree\,\Somewhat agree\,\3\,1708007117963,1708007117963,6036,6036,7111,buq,qns-item-noham,67,454168,0.0-1.0-0.66,65ce1ca528f429596f8d547a,AWAITING REVIEW,2024-02-15T14:16:11.272000Z,2024-02-15T14:28:38.148000Z,,2024-02-15T14:28:39.011683Z,747.0,CVPIIDEI,345,35,Female,White,United States,United States,United States,English,No,Part-Time,Not Applicable
60fcc31e3a77261c13174e6f,<b>People tend to believe whatever is good for their friends.,Highly disagree,68/94,Somewhat agree,3,1708007119041,1708007124154,\Somewhat agree\,\Somewhat agree\,\3\,1708007122941,1708007122941,3900,3900,5113,buq,qns-item-noham,68,459284,0.0-1.0-0.67,65ce1ca528f429596f8d547a,AWAITING REVIEW,2024-02-15T14:16:11.272000Z,2024-02-15T14:28:38.148000Z,,2024-02-15T14:28:39.011683Z,747.0,CVPIIDEI,345,35,Female,White,United States,United States,United States,English,No,Part-Time,Not Applicable
60fcc31e3a77261c13174e6f,<b>I used to be more certain my beliefs were true.,Highly disagree,69/94,Highly disagree,1,1708007124156,1708007134185,\Somewhat disagree\,\Highly disagree\,\2\,1708007128135,1708007133086,3979,8930,10029,buq,qns-item-noham,69,469315,0.0-1.0-0.68,65ce1ca528f429596f8d547a,AWAITING REVIEW,2024-02-15T14:16:11.272000Z,2024-02-15T14:28:38.148000Z,,2024-02-15T14:28:39.011683Z,747.0,CVPIIDEI,345,35,Female,White,United States,United States,United States,English,No,Part-Time,Not Applicable
60fcc31e3a77261c13174e6f,<b>It?s often pretty easy to figure out whether something is true based on who said it.,Highly disagree,70/94,Somewhat disagree,2,1708007134188,1708007140478,\Somewhat disagree\,\Somewhat disagree\,\2\,1708007138780,1708007138780,4592,4592,6290,buq,qns-item-noham,70,475608,0.0-1.0-0.69,65ce1ca528f429596f8d547a,AWAITING REVIEW,2024-02-15T14:16:11.272000Z,2024-02-15T14:28:38.148000Z,,2024-02-15T14:28:39.011683Z,747.0,CVPIIDEI,345,35,Female,White,United States,United States,United States,English,No,Part-Time,Not Applicable
60fcc31e3a77261c13174e6f,<b>I transform into a hummingbird every day.,Highly disagree,71/94,Highly disagree,1,1708007140481,1708007144498,\Highly disagree\,\Highly disagree\,\1\,1708007143136,1708007143136,2655,2655,4017,buq,qns-item-noham,71,479628,0.0-1.0-0.70,65ce1ca528f429596f8d547a,AWAITING REVIEW,2024-02-15T14:16:11.272000Z,2024-02-15T14:28:38.148000Z,,2024-02-15T14:28:39.011683Z,747.0,CVPIIDEI,345,35,Female,White,United States,United States,United States,English,No,Part-Time,Not Applicable
60fcc31e3a77261c13174e6f,<b>I think a lot about arguments against my views.,Highly disagree,72/94,Highly disagree,1,1708007144501,1708007148596,\Highly disagree\,\Highly disagree\,\1\,1708007147428,1708007147428,2927,2927,4095,buq,qns-item-noham,72,483726,0.0-1.0-0.71,65ce1ca528f429596f8d547a,AWAITING REVIEW,2024-02-15T14:16:11.272000Z,2024-02-15T14:28:38.148000Z,,2024-02-15T14:28:39.011683Z,747.0,CVPIIDEI,345,35,Female,White,United States,United States,United States,English,No,Part-Time,Not Applicable
60fcc31e3a77261c13174e6f,<b>Personal experience is usually more important than facts and figures.,Highly disagree,73/94,Highly disagree,1,1708007148599,1708007157706,\Somewhat disagree\,\Highly disagree\,\2\,1708007152595,1708007155512,3996,6913,9107,buq,qns-item-noham,73,492836,0.0-1.0-0.72,65ce1ca528f429596f8d547a,AWAITING REVIEW,2024-02-15T14:16:11.272000Z,2024-02-15T14:28:38.148000Z,,2024-02-15T14:28:39.011683Z,747.0,CVPIIDEI,345,35,Female,White,United States,United States,United States,English,No,Part-Time,Not Applicable
60fcc31e3a77261c13174e6f,<b>I?ve been tricked before about important matters.,Highly disagree,74/94,Somewhat disagree,2,1708007157709,1708007164236,\Somewhat disagree\,\Somewhat disagree\,\2\,1708007163083,1708007163083,5374,5374,6527,buq,qns-item-noham,74,499366,0.0-1.0-0.73,65ce1ca528f429596f8d547a,AWAITING REVIEW,2024-02-15T14:16:11.272000Z,2024-02-15T14:28:38.148000Z,,2024-02-15T14:28:39.011683Z,747.0,CVPIIDEI,345,35,Female,White,United States,United States,United States,English,No,Part-Time,Not Applicable
60fcc31e3a77261c13174e6f,<b>I would need to be totally wowed if I were to change my opinion of a restaurant I don?t like.,Highly disagree,75/94,Somewhat agree,3,1708007164239,1708007171731,\Somewhat agree\,\Somewhat agree\,\3\,1708007170714,1708007170714,6475,6475,7492,buq,qns-item-noham,75,506861,0.0-1.0-0.74,65ce1ca528f429596f8d547a,AWAITING REVIEW,2024-02-15T14:16:11.272000Z,2024-02-15T14:28:38.148000Z,,2024-02-15T14:28:39.011683Z,747.0,CVPIIDEI,345,35,Female,White,United States,United States,United States,English,No,Part-Time,Not Applicable
60fcc31e3a77261c13174e6f,<b>I care a lot about politics.,Highly disagree,76/94,Somewhat disagree,2,1708007171734,1708007175697,\Somewhat disagree\,\Somewhat disagree\,\2\,1708007174577,1708007174577,2843,2843,3963,buq,qns-item-noham,76,510827,0.0-1.0-0.75,65ce1ca528f429596f8d547a,AWAITING REVIEW,2024-02-15T14:16:11.272000Z,2024-02-15T14:28:38.148000Z,,2024-02-15T14:28:39.011683Z,747.0,CVPIIDEI,345,35,Female,White,United States,United States,United States,English,No,Part-Time,Not Applicable
60fcc31e3a77261c13174e6f,<b>There are some topics I?ve been really wrong about.,Highly disagree,77/94,Somewhat disagree,2,1708007175700,1708007180461,\Somewhat disagree\,\Somewhat disagree\,\2\,1708007179478,1708007179478,3778,3778,4761,buq,qns-item-noham,77,515592,0.0-1.0-0.76,65ce1ca528f429596f8d547a,AWAITING REVIEW,2024-02-15T14:16:11.272000Z,2024-02-15T14:28:38.148000Z,,2024-02-15T14:28:39.011683Z,747.0,CVPIIDEI,345,35,Female,White,United States,United States,United States,English,No,Part-Time,Not Applicable
60fcc31e3a77261c13174e6f,<b>Most beliefs can be supported with at least some evidence.,Highly disagree,78/94,Somewhat agree,3,1708007180464,1708007185146,\Somewhat agree\,\Somewhat agree\,\3\,1708007184127,1708007184127,3663,3663,4682,buq,qns-item-noham,78,520276,0.0-1.0-0.77,65ce1ca528f429596f8d547a,AWAITING REVIEW,2024-02-15T14:16:11.272000Z,2024-02-15T14:28:38.148000Z,,2024-02-15T14:28:39.011683Z,747.0,CVPIIDEI,345,35,Female,White,United States,United States,United States,English,No,Part-Time,Not Applicable
60fcc31e3a77261c13174e6f,<b>Other people make life out to be more complicated than it really is.,Highly disagree,79/94,Highly disagree,1,1708007185148,1708007190339,\Highly disagree\,\Highly disagree\,\1\,1708007189309,1708007189309,4161,4161,5191,buq,qns-item-noham,79,525469,0.0-1.0-0.78,65ce1ca528f429596f8d547a,AWAITING REVIEW,2024-02-15T14:16:11.272000Z,2024-02-15T14:28:38.148000Z,,2024-02-15T14:28:39.011683Z,747.0,CVPIIDEI,345,35,Female,White,United States,United States,United States,English,No,Part-Time,Not Applicable
60fcc31e3a77261c13174e6f,"<b>Policy details don?t matter much, just the big picture.",Highly disagree,80/94,Highly disagree,1,1708007190342,1708007198275,\Highly disagree\,\Highly disagree\,\1\,1708007197094,1708007197094,6752,6752,7933,buq,qns-item-noham,80,533405,0.0-1.0-0.79,65ce1ca528f429596f8d547a,AWAITING REVIEW,2024-02-15T14:16:11.272000Z,2024-02-15T14:28:38.148000Z,,2024-02-15T14:28:39.011683Z,747.0,CVPIIDEI,345,35,Female,White,United States,United States,United States,English,No,Part-Time,Not Applicable
60fcc31e3a77261c13174e6f,<b>I know my friends so well they can hardly ever surprise me.,Highly disagree,81/94,Somewhat disagree,2,1708007198277,1708007204088,\Somewhat disagree\,\Somewhat disagree\,\2\,1708007203046,1708007203046,4769,4769,5811,buq,qns-item-noham,81,539218,0.0-1.0-0.80,65ce1ca528f429596f8d547a,AWAITING REVIEW,2024-02-15T14:16:11.272000Z,2024-02-15T14:28:38.148000Z,,2024-02-15T14:28:39.011683Z,747.0,CVPIIDEI,345,35,Female,White,United States,United States,United States,English,No,Part-Time,Not Applicable
60fcc31e3a77261c13174e6f,<b>I do not often change my views on people.,Highly disagree,82/94,Somewhat agree,3,1708007204090,1708007208394,\Somewhat agree\,\Somewhat agree\,\3\,1708007207233,1708007207233,3143,3143,4304,buq,qns-item-noham,82,543524,0.0-1.0-0.81,65ce1ca528f429596f8d547a,AWAITING REVIEW,2024-02-15T14:16:11.272000Z,2024-02-15T14:28:38.148000Z,,2024-02-15T14:28:39.011683Z,747.0,CVPIIDEI,345,35,Female,White,United States,United States,United States,English,No,Part-Time,Not Applicable
60fcc31e3a77261c13174e6f,<b>I?m more certain about my beliefs than I used to be.,Highly disagree,83/94,Somewhat agree,3,1708007208397,1708007213553,\Somewhat agree\,\Somewhat agree\,\3\,1708007212577,1708007212577,4180,4180,5156,buq,qns-item-noham,83,548683,0.0-1.0-0.82,65ce1ca528f429596f8d547a,AWAITING REVIEW,2024-02-15T14:16:11.272000Z,2024-02-15T14:28:38.148000Z,,2024-02-15T14:28:39.011683Z,747.0,CVPIIDEI,345,35,Female,White,United States,United States,United States,English,No,Part-Time,Not Applicable
60fcc31e3a77261c13174e6f,<b>People often tell falsehoods unintentionally.,Highly disagree,84/94,Highly agree,4,1708007213555,1708007217944,\Highly agree\,\Highly agree\,\4\,1708007216856,1708007216856,3301,3301,4389,buq,qns-item-noham,84,553074,0.0-1.0-0.83,65ce1ca528f429596f8d547a,AWAITING REVIEW,2024-02-15T14:16:11.272000Z,2024-02-15T14:28:38.148000Z,,2024-02-15T14:28:39.011683Z,747.0,CVPIIDEI,345,35,Female,White,United States,United States,United States,English,No,Part-Time,Not Applicable
60fcc31e3a77261c13174e6f,<b>Most people don?t know much about most things.,Highly disagree,85/94,Highly agree,4,1708007217947,1708007222800,\Highly agree\,\Highly agree\,\4\,1708007221040,1708007221040,3093,3093,4853,buq,qns-item-noham,85,557930,0.0-1.0-0.84,65ce1ca528f429596f8d547a,AWAITING REVIEW,2024-02-15T14:16:11.272000Z,2024-02-15T14:28:38.148000Z,,2024-02-15T14:28:39.011683Z,747.0,CVPIIDEI,345,35,Female,White,United States,United States,United States,English,No,Part-Time,Not Applicable
60fcc31e3a77261c13174e6f,"<b>If I find out something new about someone, I easily change my views about them.",Highly disagree,86/94,Somewhat disagree,2,1708007222802,1708007227401,\Somewhat disagree\,\Somewhat disagree\,\2\,1708007226207,1708007226207,3405,3405,4599,buq,qns-item-noham,86,562531,0.0-1.0-0.85,65ce1ca528f429596f8d547a,AWAITING REVIEW,2024-02-15T14:16:11.272000Z,2024-02-15T14:28:38.148000Z,,2024-02-15T14:28:39.011683Z,747.0,CVPIIDEI,345,35,Female,White,United States,United States,United States,English,No,Part-Time,Not Applicable
60fcc31e3a77261c13174e6f,<b>Having true beliefs is difficult.,Highly disagree,87/94,Somewhat agree,3,1708007227403,1708007232776,\Somewhat agree\,\Somewhat agree\,\3\,1708007231681,1708007231681,4278,4278,5373,buq,qns-item-noham,87,567906,0.0-1.0-0.86,65ce1ca528f429596f8d547a,AWAITING REVIEW,2024-02-15T14:16:11.272000Z,2024-02-15T14:28:38.148000Z,,2024-02-15T14:28:39.011683Z,747.0,CVPIIDEI,345,35,Female,White,United States,United States,United States,English,No,Part-Time,Not Applicable
60fcc31e3a77261c13174e6f,<b>I don?t try new foods since I know I won?t like them.,Highly disagree,88/94,Highly disagree,1,1708007232779,1708007237143,\Highly disagree\,\Highly disagree\,\1\,1708007236027,1708007236027,3248,3248,4364,buq,qns-item-noham,88,572273,0.0-1.0-0.87,65ce1ca528f429596f8d547a,AWAITING REVIEW,2024-02-15T14:16:11.272000Z,2024-02-15T14:28:38.148000Z,,2024-02-15T14:28:39.011683Z,747.0,CVPIIDEI,345,35,Female,White,United States,United States,United States,English,No,Part-Time,Not Applicable
60fcc31e3a77261c13174e6f,<b>Other people trick each other a lot.,Highly disagree,89/94,Somewhat agree,3,1708007237146,1708007240564,\Somewhat agree\,\Somewhat agree\,\3\,1708007239542,1708007239542,2396,2396,3418,buq,qns-item-noham,89,575694,0.0-1.0-0.88,65ce1ca528f429596f8d547a,AWAITING REVIEW,2024-02-15T14:16:11.272000Z,2024-02-15T14:28:38.148000Z,,2024-02-15T14:28:39.011683Z,747.0,CVPIIDEI,345,35,Female,White,United States,United States,United States,English,No,Part-Time,Not Applicable
60fcc31e3a77261c13174e6f,<b>I would need to learn a lot about a person for my opinion of them to be swayed.,Highly disagree,90/94,Somewhat agree,3,1708007240567,1708007245491,\Somewhat agree\,\Somewhat agree\,\3\,1708007244486,1708007244486,3919,3919,4924,buq,qns-item-noham,90,580621,0.0-1.0-0.89,65ce1ca528f429596f8d547a,AWAITING REVIEW,2024-02-15T14:16:11.272000Z,2024-02-15T14:28:38.148000Z,,2024-02-15T14:28:39.011683Z,747.0,CVPIIDEI,345,35,Female,White,United States,United States,United States,English,No,Part-Time,Not Applicable
60fcc31e3a77261c13174e6f,<b>People can?t usually trick me when it comes to topics I care about.,Highly disagree,91/94,Somewhat agree,3,1708007245494,1708007250319,\Somewhat agree\,\Somewhat agree\,\3\,1708007249228,1708007249228,3734,3734,4825,buq,qns-item-noham,91,585449,0.0-1.0-0.90,65ce1ca528f429596f8d547a,AWAITING REVIEW,2024-02-15T14:16:11.272000Z,2024-02-15T14:28:38.148000Z,,2024-02-15T14:28:39.011683Z,747.0,CVPIIDEI,345,35,Female,White,United States,United States,United States,English,No,Part-Time,Not Applicable
60fcc31e3a77261c13174e6f,<b>I do not often change my views on food.,Highly disagree,92/94,Somewhat disagree,2,1708007250322,1708007254281,\Somewhat disagree\,\Somewhat disagree\,\2\,1708007253235,1708007253235,2913,2913,3959,buq,qns-item-noham,92,589411,0.0-1.0-0.91,65ce1ca528f429596f8d547a,AWAITING REVIEW,2024-02-15T14:16:11.272000Z,2024-02-15T14:28:38.148000Z,,2024-02-15T14:28:39.011683Z,747.0,CVPIIDEI,345,35,Female,White,United States,United States,United States,English,No,Part-Time,Not Applicable
60fcc31e3a77261c13174e6f,<b>Specific policies are often very important to me.,Highly disagree,93/94,Somewhat disagree,2,1708007254283,1708007259807,\Somewhat disagree\,\Somewhat disagree\,\2\,1708007258730,1708007258730,4447,4447,5524,buq,qns-item-noham,93,594938,0.0-1.0-0.92,65ce1ca528f429596f8d547a,AWAITING REVIEW,2024-02-15T14:16:11.272000Z,2024-02-15T14:28:38.148000Z,,2024-02-15T14:28:39.011683Z,747.0,CVPIIDEI,345,35,Female,White,United States,United States,United States,English,No,Part-Time,Not Applicable
60fcc31e3a77261c13174e6f,<b>Most people are woefully under-informed.,Highly disagree,94/94,Highly agree,4,1708007259810,1708007263220,\Highly agree\,\Highly agree\,\4\,1708007261994,1708007261994,2184,2184,3410,buq,qns-item-noham,94,598350,0.0-1.0-0.93,65ce1ca528f429596f8d547a,AWAITING REVIEW,2024-02-15T14:16:11.272000Z,2024-02-15T14:28:38.148000Z,,2024-02-15T14:28:39.011683Z,747.0,CVPIIDEI,345,35,Female,White,United States,United States,United States,English,No,Part-Time,Not Applicable
60fcc31e3a77261c13174e6f,,,,,,,,,,,,,,,,,,,,,65ce1ca528f429596f8d547a,AWAITING REVIEW,2024-02-15T14:16:11.272000Z,2024-02-15T14:28:38.148000Z,,2024-02-15T14:28:39.011683Z,747.0,CVPIIDEI,345,35,Female,White,United States,United States,United States,English,No,Part-Time,Not Applicable
