PROLIFIC_PID,Question,qns_options,quest_num,answer,answer_num,question_load_timestamp,next_btn_timestamp,text_selected,final_text_selected,option_num_selected,preview_timestamps,final_text_selected_time_stamp,rt_first_option_click,rt_final_option_click,rt_submit_click,questionnaire,trial_type,trial_index,time_elapsed,internal_node_id,Demographic_Submission id,Demographic_Status,Demographic_Started at,Demographic_Completed at,Demographic_Reviewed at,Demographic_Archived at,Demographic_Time taken,Demographic_Completion code,Demographic_Total approvals,Demographic_Age,Demographic_Sex,Demographic_Ethnicity simplified,Demographic_Country of birth,Demographic_Country of residence,Demographic_Nationality,Demographic_Language,Demographic_Student status,Demographic_Employment status,Demographic_Custom study tncs accepted at
6117efedb574017076d5b499,<b>Knowing what?s true and knowing what to do about it are usually basically the same.,Highly disagree,1/94,Somewhat disagree,2,1708006808515,1708006817081,\Somewhat disagree\,\Somewhat disagree\,\2\,1708006815593,1708006815593,7078,7078,8566,buq,qns-item-noham,1,36213,0.0-1.0-0.0,65ce1d1d9fe78a673a71da9f,AWAITING REVIEW,2024-02-15T14:18:11.065000Z,2024-02-15T14:35:22.893000Z,,2024-02-15T14:35:23.549306Z,1032.0,CVPIIDEI,2480,31,Female,White,United States,United States,United States,English,DATA_EXPIRED,DATA_EXPIRED,Not Applicable
6117efedb574017076d5b499,<b>Most people just believe whatever is convenient for them.,Highly disagree,2/94,Somewhat agree,3,1708006817086,1708006821801,\Somewhat agree\,\Somewhat agree\,\3\,1708006821210,1708006821210,4124,4124,4715,buq,qns-item-noham,2,40932,0.0-1.0-0.1,65ce1d1d9fe78a673a71da9f,AWAITING REVIEW,2024-02-15T14:18:11.065000Z,2024-02-15T14:35:22.893000Z,,2024-02-15T14:35:23.549306Z,1032.0,CVPIIDEI,2480,31,Female,White,United States,United States,United States,English,DATA_EXPIRED,DATA_EXPIRED,Not Applicable
6117efedb574017076d5b499,<b>Having some big beliefs helps me sort out minor ones.,Highly disagree,3/94,Highly agree,4,1708006821803,1708006826419,\Highly agree\,\Highly agree\,\4\,1708006825873,1708006825873,4070,4070,4616,buq,qns-item-noham,3,45550,0.0-1.0-0.2,65ce1d1d9fe78a673a71da9f,AWAITING REVIEW,2024-02-15T14:18:11.065000Z,2024-02-15T14:35:22.893000Z,,2024-02-15T14:35:23.549306Z,1032.0,CVPIIDEI,2480,31,Female,White,United States,United States,United States,English,DATA_EXPIRED,DATA_EXPIRED,Not Applicable
6117efedb574017076d5b499,<b>Political questions are usually pretty complicated.,Highly disagree,4/94,Highly agree,4,1708006826420,1708006830346,\Highly agree\,\Highly agree\,\4\,1708006829673,1708006829673,3253,3253,3926,buq,qns-item-noham,4,49477,0.0-1.0-0.3,65ce1d1d9fe78a673a71da9f,AWAITING REVIEW,2024-02-15T14:18:11.065000Z,2024-02-15T14:35:22.893000Z,,2024-02-15T14:35:23.549306Z,1032.0,CVPIIDEI,2480,31,Female,White,United States,United States,United States,English,DATA_EXPIRED,DATA_EXPIRED,Not Applicable
6117efedb574017076d5b499,<b>Figuring out what?s important in life requires learning a lot of facts.,Highly disagree,5/94,Somewhat agree,3,1708006830347,1708006837849,\Somewhat agree\,\Somewhat agree\,\3\,1708006837105,1708006837105,6758,6758,7502,buq,qns-item-noham,5,56980,0.0-1.0-0.4,65ce1d1d9fe78a673a71da9f,AWAITING REVIEW,2024-02-15T14:18:11.065000Z,2024-02-15T14:35:22.893000Z,,2024-02-15T14:35:23.549306Z,1032.0,CVPIIDEI,2480,31,Female,White,United States,United States,United States,English,DATA_EXPIRED,DATA_EXPIRED,Not Applicable
6117efedb574017076d5b499,<b>It is difficult for me to remember the last time I was surprised by politics.,Highly disagree,6/94,Highly disagree,1,1708006837850,1708006840930,\Highly disagree\,\Highly disagree\,\1\,1708006840265,1708006840265,2415,2415,3080,buq,qns-item-noham,6,60061,0.0-1.0-0.5,65ce1d1d9fe78a673a71da9f,AWAITING REVIEW,2024-02-15T14:18:11.065000Z,2024-02-15T14:35:22.893000Z,,2024-02-15T14:35:23.549306Z,1032.0,CVPIIDEI,2480,31,Female,White,United States,United States,United States,English,DATA_EXPIRED,DATA_EXPIRED,Not Applicable
6117efedb574017076d5b499,<b>People?s false beliefs are understandable.,Highly disagree,7/94,Somewhat disagree,2,1708006840931,1708006846202,\Somewhat disagree\,\Somewhat disagree\,\2\,1708006844441,1708006844441,3510,3510,5271,buq,qns-item-noham,7,65333,0.0-1.0-0.6,65ce1d1d9fe78a673a71da9f,AWAITING REVIEW,2024-02-15T14:18:11.065000Z,2024-02-15T14:35:22.893000Z,,2024-02-15T14:35:23.549306Z,1032.0,CVPIIDEI,2480,31,Female,White,United States,United States,United States,English,DATA_EXPIRED,DATA_EXPIRED,Not Applicable
6117efedb574017076d5b499,<b>I spend a lot of time trying to be informed about politics.,Highly disagree,8/94,Somewhat disagree,2,1708006846203,1708006851457,\Somewhat disagree\,\Somewhat disagree\,\2\,1708006850961,1708006850961,4758,4758,5254,buq,qns-item-noham,8,70588,0.0-1.0-0.7,65ce1d1d9fe78a673a71da9f,AWAITING REVIEW,2024-02-15T14:18:11.065000Z,2024-02-15T14:35:22.893000Z,,2024-02-15T14:35:23.549306Z,1032.0,CVPIIDEI,2480,31,Female,White,United States,United States,United States,English,DATA_EXPIRED,DATA_EXPIRED,Not Applicable
6117efedb574017076d5b499,<b>I think a lot about whether my beliefs are right.,Highly disagree,9/94,Somewhat agree,3,1708006851459,1708006856753,\Somewhat agree\,\Somewhat agree\,\3\,1708006856265,1708006856265,4806,4806,5294,buq,qns-item-noham,9,75884,0.0-1.0-0.8,65ce1d1d9fe78a673a71da9f,AWAITING REVIEW,2024-02-15T14:18:11.065000Z,2024-02-15T14:35:22.893000Z,,2024-02-15T14:35:23.549306Z,1032.0,CVPIIDEI,2480,31,Female,White,United States,United States,United States,English,DATA_EXPIRED,DATA_EXPIRED,Not Applicable
6117efedb574017076d5b499,<b>Statistics can be pretty misleading sometimes.,Highly disagree,10/94,Somewhat agree,3,1708006856754,1708006869842,\Somewhat agree\,\Somewhat agree\,\3\,1708006869178,1708006869178,12424,12424,13088,buq,qns-item-noham,10,88973,0.0-1.0-0.9,65ce1d1d9fe78a673a71da9f,AWAITING REVIEW,2024-02-15T14:18:11.065000Z,2024-02-15T14:35:22.893000Z,,2024-02-15T14:35:23.549306Z,1032.0,CVPIIDEI,2480,31,Female,White,United States,United States,United States,English,DATA_EXPIRED,DATA_EXPIRED,Not Applicable
6117efedb574017076d5b499,<b>I have lots of beliefs that I?m only sort of sure about.,Highly disagree,11/94,Somewhat agree,3,1708006869843,1708006877217,\Somewhat agree\,\Somewhat agree\,\3\,1708006876665,1708006876665,6822,6822,7374,buq,qns-item-noham,11,96348,0.0-1.0-0.10,65ce1d1d9fe78a673a71da9f,AWAITING REVIEW,2024-02-15T14:18:11.065000Z,2024-02-15T14:35:22.893000Z,,2024-02-15T14:35:23.549306Z,1032.0,CVPIIDEI,2480,31,Female,White,United States,United States,United States,English,DATA_EXPIRED,DATA_EXPIRED,Not Applicable
6117efedb574017076d5b499,"<b>If I go to my favorite restaurant and the food is surprisingly bad, it reminds me there are many disappointments in life.",Highly disagree,12/94,Highly agree,4,1708006877218,1708006886353,\Somewhat disagree\,\Highly agree\,\2\,1708006885050,1708006885811,7832,8593,9135,buq,qns-item-noham,12,105484,0.0-1.0-0.11,65ce1d1d9fe78a673a71da9f,AWAITING REVIEW,2024-02-15T14:18:11.065000Z,2024-02-15T14:35:22.893000Z,,2024-02-15T14:35:23.549306Z,1032.0,CVPIIDEI,2480,31,Female,White,United States,United States,United States,English,DATA_EXPIRED,DATA_EXPIRED,Not Applicable
6117efedb574017076d5b499,"<b>If you are paying attention, please select ?Somewhat agree?",Highly disagree,13/94,Somewhat agree,3,1708006886354,1708006895817,\Somewhat agree\,\Somewhat agree\,\3\,1708006892417,1708006892417,6063,6063,9463,buq,qns-item-noham,13,114948,0.0-1.0-0.12,65ce1d1d9fe78a673a71da9f,AWAITING REVIEW,2024-02-15T14:18:11.065000Z,2024-02-15T14:35:22.893000Z,,2024-02-15T14:35:23.549306Z,1032.0,CVPIIDEI,2480,31,Female,White,United States,United States,United States,English,DATA_EXPIRED,DATA_EXPIRED,Not Applicable
6117efedb574017076d5b499,"<b>When I talk to others, I often worry I?ll convince them of something I didn?t mean to.",Highly disagree,14/94,Somewhat disagree,2,1708006895818,1708006904178,\Somewhat disagree\,\Somewhat disagree\,\2\,1708006903290,1708006903290,7472,7472,8360,buq,qns-item-noham,14,123309,0.0-1.0-0.13,65ce1d1d9fe78a673a71da9f,AWAITING REVIEW,2024-02-15T14:18:11.065000Z,2024-02-15T14:35:22.893000Z,,2024-02-15T14:35:23.549306Z,1032.0,CVPIIDEI,2480,31,Female,White,United States,United States,United States,English,DATA_EXPIRED,DATA_EXPIRED,Not Applicable
6117efedb574017076d5b499,<b>I would need to learn something utterly shocking about my party in order to change my political views.,Highly disagree,15/94,Somewhat disagree,2,1708006904179,1708006910281,\Somewhat disagree\,\Somewhat disagree\,\2\,1708006909713,1708006909713,5534,5534,6102,buq,qns-item-noham,15,129412,0.0-1.0-0.14,65ce1d1d9fe78a673a71da9f,AWAITING REVIEW,2024-02-15T14:18:11.065000Z,2024-02-15T14:35:22.893000Z,,2024-02-15T14:35:23.549306Z,1032.0,CVPIIDEI,2480,31,Female,White,United States,United States,United States,English,DATA_EXPIRED,DATA_EXPIRED,Not Applicable
6117efedb574017076d5b499,"<b>When I have new experiences, I tend to think of them as unique.",Highly disagree,16/94,Somewhat agree,3,1708006910283,1708006913985,\Somewhat agree\,\Somewhat agree\,\3\,1708006913337,1708006913337,3054,3054,3702,buq,qns-item-noham,16,133117,0.0-1.0-0.15,65ce1d1d9fe78a673a71da9f,AWAITING REVIEW,2024-02-15T14:18:11.065000Z,2024-02-15T14:35:22.893000Z,,2024-02-15T14:35:23.549306Z,1032.0,CVPIIDEI,2480,31,Female,White,United States,United States,United States,English,DATA_EXPIRED,DATA_EXPIRED,Not Applicable
6117efedb574017076d5b499,<b>I change my mind about specific policies pretty frequently.,Highly disagree,17/94,Highly disagree,1,1708006913987,1708006917794,\Highly disagree\,\Highly disagree\,\1\,1708006917097,1708006917097,3110,3110,3807,buq,qns-item-noham,17,136925,0.0-1.0-0.16,65ce1d1d9fe78a673a71da9f,AWAITING REVIEW,2024-02-15T14:18:11.065000Z,2024-02-15T14:35:22.893000Z,,2024-02-15T14:35:23.549306Z,1032.0,CVPIIDEI,2480,31,Female,White,United States,United States,United States,English,DATA_EXPIRED,DATA_EXPIRED,Not Applicable
6117efedb574017076d5b499,"<b>If a politician in my political party supports something I disagree with, I give them the benefit of the doubt, as such issues often involve hidden complexities that aren?t obvious.   ",Highly disagree,18/94,Somewhat agree,3,1708006917795,1708006927130,\Somewhat disagree\,\Somewhat agree\,\2\,1708006923385,1708006926505,5590,8710,9335,buq,qns-item-noham,18,146261,0.0-1.0-0.17,65ce1d1d9fe78a673a71da9f,AWAITING REVIEW,2024-02-15T14:18:11.065000Z,2024-02-15T14:35:22.893000Z,,2024-02-15T14:35:23.549306Z,1032.0,CVPIIDEI,2480,31,Female,White,United States,United States,United States,English,DATA_EXPIRED,DATA_EXPIRED,Not Applicable
6117efedb574017076d5b499,<b>People?s bad politics are usually motivated by hatefulness.,Highly disagree,19/94,Somewhat agree,3,1708006927131,1708006968985,\Somewhat agree\,\Somewhat agree\,\3\,1708006968489,1708006968489,41358,41358,41854,buq,qns-item-noham,19,188116,0.0-1.0-0.18,65ce1d1d9fe78a673a71da9f,AWAITING REVIEW,2024-02-15T14:18:11.065000Z,2024-02-15T14:35:22.893000Z,,2024-02-15T14:35:23.549306Z,1032.0,CVPIIDEI,2480,31,Female,White,United States,United States,United States,English,DATA_EXPIRED,DATA_EXPIRED,Not Applicable
6117efedb574017076d5b499,<b>I think a lot about how to reconcile my beliefs with one another.,Highly disagree,20/94,Highly agree,4,1708006968986,1708006979577,\Highly agree\,\Highly agree\,\4\,1708006979121,1708006979121,10135,10135,10591,buq,qns-item-noham,20,198708,0.0-1.0-0.19,65ce1d1d9fe78a673a71da9f,AWAITING REVIEW,2024-02-15T14:18:11.065000Z,2024-02-15T14:35:22.893000Z,,2024-02-15T14:35:23.549306Z,1032.0,CVPIIDEI,2480,31,Female,White,United States,United States,United States,English,DATA_EXPIRED,DATA_EXPIRED,Not Applicable
6117efedb574017076d5b499,<b>I might have false beliefs about important topics.,Highly disagree,21/94,Highly disagree,1,1708006979579,1708006985361,\Highly disagree\,\Highly disagree\,\1\,1708006984633,1708006984633,5054,5054,5782,buq,qns-item-noham,21,204492,0.0-1.0-0.20,65ce1d1d9fe78a673a71da9f,AWAITING REVIEW,2024-02-15T14:18:11.065000Z,2024-02-15T14:35:22.893000Z,,2024-02-15T14:35:23.549306Z,1032.0,CVPIIDEI,2480,31,Female,White,United States,United States,United States,English,DATA_EXPIRED,DATA_EXPIRED,Not Applicable
6117efedb574017076d5b499,"<b>If a good friend of mine does something unexpected that upsets me, I feel like I don?t know them anymore.",Highly disagree,22/94,Somewhat agree,3,1708006985362,1708007010289,\Somewhat agree\,\Somewhat agree\,\3\,1708007009745,1708007009745,24383,24383,24927,buq,qns-item-noham,22,229420,0.0-1.0-0.21,65ce1d1d9fe78a673a71da9f,AWAITING REVIEW,2024-02-15T14:18:11.065000Z,2024-02-15T14:35:22.893000Z,,2024-02-15T14:35:23.549306Z,1032.0,CVPIIDEI,2480,31,Female,White,United States,United States,United States,English,DATA_EXPIRED,DATA_EXPIRED,Not Applicable
6117efedb574017076d5b499,<b>Other people?s beliefs are often incoherent.,Highly disagree,23/94,Somewhat agree,3,1708007010290,1708007013513,\Somewhat agree\,\Somewhat agree\,\3\,1708007013033,1708007013033,2743,2743,3223,buq,qns-item-noham,23,232644,0.0-1.0-0.22,65ce1d1d9fe78a673a71da9f,AWAITING REVIEW,2024-02-15T14:18:11.065000Z,2024-02-15T14:35:22.893000Z,,2024-02-15T14:35:23.549306Z,1032.0,CVPIIDEI,2480,31,Female,White,United States,United States,United States,English,DATA_EXPIRED,DATA_EXPIRED,Not Applicable
6117efedb574017076d5b499,"<b>Every now and then, a new experience will unsettle beliefs I?ve had for a while.",Highly disagree,24/94,Highly agree,4,1708007013514,1708007018457,\Highly agree\,\Highly agree\,\4\,1708007017954,1708007017954,4440,4440,4943,buq,qns-item-noham,24,237588,0.0-1.0-0.23,65ce1d1d9fe78a673a71da9f,AWAITING REVIEW,2024-02-15T14:18:11.065000Z,2024-02-15T14:35:22.893000Z,,2024-02-15T14:35:23.549306Z,1032.0,CVPIIDEI,2480,31,Female,White,United States,United States,United States,English,DATA_EXPIRED,DATA_EXPIRED,Not Applicable
6117efedb574017076d5b499,<b>Some policies I agree with in principle are so bad I don?t support them. ,Highly disagree,25/94,Somewhat agree,3,1708007018459,1708007023817,\Somewhat agree\,\Somewhat agree\,\3\,1708007023329,1708007023329,4870,4870,5358,buq,qns-item-noham,25,242948,0.0-1.0-0.24,65ce1d1d9fe78a673a71da9f,AWAITING REVIEW,2024-02-15T14:18:11.065000Z,2024-02-15T14:35:22.893000Z,,2024-02-15T14:35:23.549306Z,1032.0,CVPIIDEI,2480,31,Female,White,United States,United States,United States,English,DATA_EXPIRED,DATA_EXPIRED,Not Applicable
6117efedb574017076d5b499,<b>I?m pretty sure I?ve accidentally spread false information.,Highly disagree,26/94,Highly disagree,1,1708007023818,1708007048905,\Highly disagree\,\Highly disagree\,\1\,1708007047241,1708007047241,23423,23423,25087,buq,qns-item-noham,26,268036,0.0-1.0-0.25,65ce1d1d9fe78a673a71da9f,AWAITING REVIEW,2024-02-15T14:18:11.065000Z,2024-02-15T14:35:22.893000Z,,2024-02-15T14:35:23.549306Z,1032.0,CVPIIDEI,2480,31,Female,White,United States,United States,United States,English,DATA_EXPIRED,DATA_EXPIRED,Not Applicable
6117efedb574017076d5b499,"<b>If I go to my favorite restaurant and the food is unexpectedly bad, then they have changed owners.",Highly disagree,27/94,Somewhat agree,3,1708007048906,1708007054249,\Somewhat agree\,\Somewhat agree\,\3\,1708007053688,1708007053688,4782,4782,5343,buq,qns-item-noham,27,273380,0.0-1.0-0.26,65ce1d1d9fe78a673a71da9f,AWAITING REVIEW,2024-02-15T14:18:11.065000Z,2024-02-15T14:35:22.893000Z,,2024-02-15T14:35:23.549306Z,1032.0,CVPIIDEI,2480,31,Female,White,United States,United States,United States,English,DATA_EXPIRED,DATA_EXPIRED,Not Applicable
6117efedb574017076d5b499,"<b>In politics, it?s important to trust your friends and family.",Highly disagree,28/94,Highly agree,4,1708007054250,1708007057728,\Highly agree\,\Highly agree\,\4\,1708007057113,1708007057113,2863,2863,3478,buq,qns-item-noham,28,276859,0.0-1.0-0.27,65ce1d1d9fe78a673a71da9f,AWAITING REVIEW,2024-02-15T14:18:11.065000Z,2024-02-15T14:35:22.893000Z,,2024-02-15T14:35:23.549306Z,1032.0,CVPIIDEI,2480,31,Female,White,United States,United States,United States,English,DATA_EXPIRED,DATA_EXPIRED,Not Applicable
6117efedb574017076d5b499,<b>It?s OK to have some conflicting beliefs.,Highly disagree,29/94,Somewhat agree,3,1708007057730,1708007061217,\Somewhat agree\,\Somewhat agree\,\3\,1708007060744,1708007060744,3014,3014,3487,buq,qns-item-noham,29,280348,0.0-1.0-0.28,65ce1d1d9fe78a673a71da9f,AWAITING REVIEW,2024-02-15T14:18:11.065000Z,2024-02-15T14:35:22.893000Z,,2024-02-15T14:35:23.549306Z,1032.0,CVPIIDEI,2480,31,Female,White,United States,United States,United States,English,DATA_EXPIRED,DATA_EXPIRED,Not Applicable
6117efedb574017076d5b499,<b>Listening to people I disagree with makes my opinions better.,Highly disagree,30/94,Somewhat disagree,2,1708007061218,1708007064505,\Somewhat disagree\,\Somewhat disagree\,\2\,1708007063984,1708007063984,2766,2766,3287,buq,qns-item-noham,30,283636,0.0-1.0-0.29,65ce1d1d9fe78a673a71da9f,AWAITING REVIEW,2024-02-15T14:18:11.065000Z,2024-02-15T14:35:22.893000Z,,2024-02-15T14:35:23.549306Z,1032.0,CVPIIDEI,2480,31,Female,White,United States,United States,United States,English,DATA_EXPIRED,DATA_EXPIRED,Not Applicable
6117efedb574017076d5b499,<b>My moral compass sometimes makes it harder to determine what?s true.,Highly disagree,31/94,Somewhat agree,3,1708007064506,1708007069049,\Somewhat agree\,\Somewhat agree\,\3\,1708007067185,1708007067185,2679,2679,4543,buq,qns-item-noham,31,288180,0.0-1.0-0.30,65ce1d1d9fe78a673a71da9f,AWAITING REVIEW,2024-02-15T14:18:11.065000Z,2024-02-15T14:35:22.893000Z,,2024-02-15T14:35:23.549306Z,1032.0,CVPIIDEI,2480,31,Female,White,United States,United States,United States,English,DATA_EXPIRED,DATA_EXPIRED,Not Applicable
6117efedb574017076d5b499,<b>Evidence pointing in the wrong direction isn?t really evidence at all.,Highly disagree,32/94,Somewhat agree,3,1708007069050,1708007073745,\Somewhat agree\,\Somewhat agree\,\3\,1708007072976,1708007072976,3926,3926,4695,buq,qns-item-noham,32,292876,0.0-1.0-0.31,65ce1d1d9fe78a673a71da9f,AWAITING REVIEW,2024-02-15T14:18:11.065000Z,2024-02-15T14:35:22.893000Z,,2024-02-15T14:35:23.549306Z,1032.0,CVPIIDEI,2480,31,Female,White,United States,United States,United States,English,DATA_EXPIRED,DATA_EXPIRED,Not Applicable
6117efedb574017076d5b499,"<b>If the political party I support messes up, it makes me think politics is rotten.",Highly disagree,33/94,Highly agree,4,1708007073746,1708007078913,\Highly agree\,\Highly agree\,\4\,1708007078384,1708007078384,4638,4638,5167,buq,qns-item-noham,33,298044,0.0-1.0-0.32,65ce1d1d9fe78a673a71da9f,AWAITING REVIEW,2024-02-15T14:18:11.065000Z,2024-02-15T14:35:22.893000Z,,2024-02-15T14:35:23.549306Z,1032.0,CVPIIDEI,2480,31,Female,White,United States,United States,United States,English,DATA_EXPIRED,DATA_EXPIRED,Not Applicable
6117efedb574017076d5b499,<b>Lots of important topics can only really be understood by some groups of people.,Highly disagree,34/94,Somewhat disagree,2,1708007078915,1708007082898,\Somewhat disagree\,\Somewhat disagree\,\2\,1708007082409,1708007082409,3494,3494,3983,buq,qns-item-noham,34,302029,0.0-1.0-0.33,65ce1d1d9fe78a673a71da9f,AWAITING REVIEW,2024-02-15T14:18:11.065000Z,2024-02-15T14:35:22.893000Z,,2024-02-15T14:35:23.549306Z,1032.0,CVPIIDEI,2480,31,Female,White,United States,United States,United States,English,DATA_EXPIRED,DATA_EXPIRED,Not Applicable
6117efedb574017076d5b499,<b>Having conflicting beliefs means you haven?t thought about them enough.,Highly disagree,35/94,Somewhat agree,3,1708007082899,1708007089289,\Somewhat agree\,\Somewhat agree\,\3\,1708007088456,1708007088456,5557,5557,6390,buq,qns-item-noham,35,308420,0.0-1.0-0.34,65ce1d1d9fe78a673a71da9f,AWAITING REVIEW,2024-02-15T14:18:11.065000Z,2024-02-15T14:35:22.893000Z,,2024-02-15T14:35:23.549306Z,1032.0,CVPIIDEI,2480,31,Female,White,United States,United States,United States,English,DATA_EXPIRED,DATA_EXPIRED,Not Applicable
6117efedb574017076d5b499,<b>I do not often change my political opinions.,Highly disagree,36/94,Highly agree,4,1708007089290,1708007097225,\Highly agree\,\Highly agree\,\4\,1708007096673,1708007096673,7383,7383,7935,buq,qns-item-noham,36,316356,0.0-1.0-0.35,65ce1d1d9fe78a673a71da9f,AWAITING REVIEW,2024-02-15T14:18:11.065000Z,2024-02-15T14:35:22.893000Z,,2024-02-15T14:35:23.549306Z,1032.0,CVPIIDEI,2480,31,Female,White,United States,United States,United States,English,DATA_EXPIRED,DATA_EXPIRED,Not Applicable
6117efedb574017076d5b499,<b>It?s difficult to not have at least some conflicting beliefs.,Highly disagree,37/94,Somewhat agree,3,1708007097226,1708007119986,\Somewhat agree\,\Somewhat agree\,\3\,1708007119449,1708007119449,22223,22223,22760,buq,qns-item-noham,37,339117,0.0-1.0-0.36,65ce1d1d9fe78a673a71da9f,AWAITING REVIEW,2024-02-15T14:18:11.065000Z,2024-02-15T14:35:22.893000Z,,2024-02-15T14:35:23.549306Z,1032.0,CVPIIDEI,2480,31,Female,White,United States,United States,United States,English,DATA_EXPIRED,DATA_EXPIRED,Not Applicable
6117efedb574017076d5b499,<b>Wishful thinking causes a lot of problems.,Highly disagree,38/94,Somewhat disagree,2,1708007119988,1708007125657,\Highly agree\,\Somewhat disagree\,\4\,1708007123641,1708007125154,3653,5166,5669,buq,qns-item-noham,38,344788,0.0-1.0-0.37,65ce1d1d9fe78a673a71da9f,AWAITING REVIEW,2024-02-15T14:18:11.065000Z,2024-02-15T14:35:22.893000Z,,2024-02-15T14:35:23.549306Z,1032.0,CVPIIDEI,2480,31,Female,White,United States,United States,United States,English,DATA_EXPIRED,DATA_EXPIRED,Not Applicable
6117efedb574017076d5b499,<b>I judge a food item only once I try it many times.,Highly disagree,39/94,Somewhat disagree,2,1708007125659,1708007134473,\Somewhat disagree\,\Somewhat disagree\,\2\,1708007133946,1708007133946,8287,8287,8814,buq,qns-item-noham,39,353604,0.0-1.0-0.38,65ce1d1d9fe78a673a71da9f,AWAITING REVIEW,2024-02-15T14:18:11.065000Z,2024-02-15T14:35:22.893000Z,,2024-02-15T14:35:23.549306Z,1032.0,CVPIIDEI,2480,31,Female,White,United States,United States,United States,English,DATA_EXPIRED,DATA_EXPIRED,Not Applicable
6117efedb574017076d5b499,"<b>When a person holds conflicting beliefs, they should really try to figure out what?s wrong.",Highly disagree,40/94,Somewhat agree,3,1708007134474,1708007139041,\Somewhat agree\,\Somewhat agree\,\3\,1708007138257,1708007138257,3783,3783,4567,buq,qns-item-noham,40,358172,0.0-1.0-0.39,65ce1d1d9fe78a673a71da9f,AWAITING REVIEW,2024-02-15T14:18:11.065000Z,2024-02-15T14:35:22.893000Z,,2024-02-15T14:35:23.549306Z,1032.0,CVPIIDEI,2480,31,Female,White,United States,United States,United States,English,DATA_EXPIRED,DATA_EXPIRED,Not Applicable
6117efedb574017076d5b499,<b>Knowing what?s important in life is easy.,Highly disagree,41/94,Somewhat disagree,2,1708007139043,1708007149753,\Somewhat disagree\,\Somewhat disagree\,\2\,1708007149289,1708007149289,10246,10246,10710,buq,qns-item-noham,41,368884,0.0-1.0-0.40,65ce1d1d9fe78a673a71da9f,AWAITING REVIEW,2024-02-15T14:18:11.065000Z,2024-02-15T14:35:22.893000Z,,2024-02-15T14:35:23.549306Z,1032.0,CVPIIDEI,2480,31,Female,White,United States,United States,United States,English,DATA_EXPIRED,DATA_EXPIRED,Not Applicable
6117efedb574017076d5b499,<b>I swim across the Atlantic Ocean to get to work every day.,Highly disagree,42/94,Highly disagree,1,1708007149754,1708007154553,\Highly disagree\,\Highly disagree\,\1\,1708007152641,1708007152641,2887,2887,4799,buq,qns-item-noham,42,373684,0.0-1.0-0.41,65ce1d1d9fe78a673a71da9f,AWAITING REVIEW,2024-02-15T14:18:11.065000Z,2024-02-15T14:35:22.893000Z,,2024-02-15T14:35:23.549306Z,1032.0,CVPIIDEI,2480,31,Female,White,United States,United States,United States,English,DATA_EXPIRED,DATA_EXPIRED,Not Applicable
6117efedb574017076d5b499,"<b>Sometimes, you just have to ignore evidence that you know is wrong.",Highly disagree,43/94,Highly agree,4,1708007154554,1708007159265,\Highly agree\,\Highly agree\,\4\,1708007158425,1708007158425,3871,3871,4711,buq,qns-item-noham,43,378396,0.0-1.0-0.42,65ce1d1d9fe78a673a71da9f,AWAITING REVIEW,2024-02-15T14:18:11.065000Z,2024-02-15T14:35:22.893000Z,,2024-02-15T14:35:23.549306Z,1032.0,CVPIIDEI,2480,31,Female,White,United States,United States,United States,English,DATA_EXPIRED,DATA_EXPIRED,Not Applicable
6117efedb574017076d5b499,<b>I have had some false beliefs.,Highly disagree,44/94,Somewhat disagree,2,1708007159266,1708007162194,\Somewhat disagree\,\Somewhat disagree\,\2\,1708007161689,1708007161689,2423,2423,2928,buq,qns-item-noham,44,381325,0.0-1.0-0.43,65ce1d1d9fe78a673a71da9f,AWAITING REVIEW,2024-02-15T14:18:11.065000Z,2024-02-15T14:35:22.893000Z,,2024-02-15T14:35:23.549306Z,1032.0,CVPIIDEI,2480,31,Female,White,United States,United States,United States,English,DATA_EXPIRED,DATA_EXPIRED,Not Applicable
6117efedb574017076d5b499,"<b>If one friend does something that upsets me, I sometimes start to distrust people in general.",Highly disagree,45/94,Somewhat agree,3,1708007162196,1708007168097,\Somewhat agree\,\Somewhat agree\,\3\,1708007167433,1708007167433,5237,5237,5901,buq,qns-item-noham,45,387228,0.0-1.0-0.44,65ce1d1d9fe78a673a71da9f,AWAITING REVIEW,2024-02-15T14:18:11.065000Z,2024-02-15T14:35:22.893000Z,,2024-02-15T14:35:23.549306Z,1032.0,CVPIIDEI,2480,31,Female,White,United States,United States,United States,English,DATA_EXPIRED,DATA_EXPIRED,Not Applicable
6117efedb574017076d5b499,<b>The facts about most important matters are easy to find.,Highly disagree,46/94,Somewhat disagree,2,1708007168098,1708007199033,\Somewhat disagree\,\Somewhat disagree\,\2\,1708007198594,1708007198594,30496,30496,30935,buq,qns-item-noham,46,418164,0.0-1.0-0.45,65ce1d1d9fe78a673a71da9f,AWAITING REVIEW,2024-02-15T14:18:11.065000Z,2024-02-15T14:35:22.893000Z,,2024-02-15T14:35:23.549306Z,1032.0,CVPIIDEI,2480,31,Female,White,United States,United States,United States,English,DATA_EXPIRED,DATA_EXPIRED,Not Applicable
6117efedb574017076d5b499,<b>It?s better to know what?s true than to know what?s moral.,Highly disagree,47/94,Somewhat agree,3,1708007199034,1708007203161,\Somewhat agree\,\Somewhat agree\,\3\,1708007202169,1708007202169,3135,3135,4127,buq,qns-item-noham,47,422292,0.0-1.0-0.46,65ce1d1d9fe78a673a71da9f,AWAITING REVIEW,2024-02-15T14:18:11.065000Z,2024-02-15T14:35:22.893000Z,,2024-02-15T14:35:23.549306Z,1032.0,CVPIIDEI,2480,31,Female,White,United States,United States,United States,English,DATA_EXPIRED,DATA_EXPIRED,Not Applicable
6117efedb574017076d5b499,<b>I used to think the world was less complicated than I do now.,Highly disagree,48/94,Somewhat agree,3,1708007203162,1708007207179,\Somewhat agree\,\Somewhat agree\,\3\,1708007206697,1708007206697,3535,3535,4017,buq,qns-item-noham,48,426310,0.0-1.0-0.47,65ce1d1d9fe78a673a71da9f,AWAITING REVIEW,2024-02-15T14:18:11.065000Z,2024-02-15T14:35:22.893000Z,,2024-02-15T14:35:23.549306Z,1032.0,CVPIIDEI,2480,31,Female,White,United States,United States,United States,English,DATA_EXPIRED,DATA_EXPIRED,Not Applicable
6117efedb574017076d5b499,<b>People are usually completely right or completely wrong.,Highly disagree,49/94,Somewhat agree,3,1708007207180,1708007212234,\Somewhat agree\,\Somewhat agree\,\3\,1708007211489,1708007211489,4309,4309,5054,buq,qns-item-noham,49,431365,0.0-1.0-0.48,65ce1d1d9fe78a673a71da9f,AWAITING REVIEW,2024-02-15T14:18:11.065000Z,2024-02-15T14:35:22.893000Z,,2024-02-15T14:35:23.549306Z,1032.0,CVPIIDEI,2480,31,Female,White,United States,United States,United States,English,DATA_EXPIRED,DATA_EXPIRED,Not Applicable
6117efedb574017076d5b499,<b>I spend a lot of time considering alternatives to my beliefs.,Highly disagree,50/94,Somewhat disagree,2,1708007212235,1708007225289,\Somewhat disagree\,\Somewhat disagree\,\2\,1708007224785,1708007224785,12550,12550,13054,buq,qns-item-noham,50,444420,0.0-1.0-0.49,65ce1d1d9fe78a673a71da9f,AWAITING REVIEW,2024-02-15T14:18:11.065000Z,2024-02-15T14:35:22.893000Z,,2024-02-15T14:35:23.549306Z,1032.0,CVPIIDEI,2480,31,Female,White,United States,United States,United States,English,DATA_EXPIRED,DATA_EXPIRED,Not Applicable
6117efedb574017076d5b499,"<b>Political enemies need to be defeated, not convinced.",Highly disagree,51/94,Somewhat disagree,2,1708007225290,1708007230897,\Somewhat disagree\,\Somewhat disagree\,\2\,1708007230273,1708007230273,4983,4983,5607,buq,qns-item-noham,51,450028,0.0-1.0-0.50,65ce1d1d9fe78a673a71da9f,AWAITING REVIEW,2024-02-15T14:18:11.065000Z,2024-02-15T14:35:22.893000Z,,2024-02-15T14:35:23.549306Z,1032.0,CVPIIDEI,2480,31,Female,White,United States,United States,United States,English,DATA_EXPIRED,DATA_EXPIRED,Not Applicable
6117efedb574017076d5b499,<b>I form my political views only after meticulously gathering historical and present information about their policies.,Highly disagree,52/94,Somewhat agree,3,1708007230898,1708007235026,\Somewhat agree\,\Somewhat agree\,\3\,1708007234473,1708007234473,3575,3575,4128,buq,qns-item-noham,52,454157,0.0-1.0-0.51,65ce1d1d9fe78a673a71da9f,AWAITING REVIEW,2024-02-15T14:18:11.065000Z,2024-02-15T14:35:22.893000Z,,2024-02-15T14:35:23.549306Z,1032.0,CVPIIDEI,2480,31,Female,White,United States,United States,United States,English,DATA_EXPIRED,DATA_EXPIRED,Not Applicable
6117efedb574017076d5b499,<b>It is difficult for me to remember the last time I was surprised by politics.,Highly disagree,53/94,Somewhat disagree,2,1708007235027,1708007237866,\Somewhat disagree\,\Somewhat disagree\,\2\,1708007237369,1708007237369,2342,2342,2839,buq,qns-item-noham,53,456997,0.0-1.0-0.52,65ce1d1d9fe78a673a71da9f,AWAITING REVIEW,2024-02-15T14:18:11.065000Z,2024-02-15T14:35:22.893000Z,,2024-02-15T14:35:23.549306Z,1032.0,CVPIIDEI,2480,31,Female,White,United States,United States,United States,English,DATA_EXPIRED,DATA_EXPIRED,Not Applicable
6117efedb574017076d5b499,"<b>When I find out I?m wrong, I think a lot about my related beliefs.",Highly disagree,54/94,Somewhat agree,3,1708007237867,1708007241481,\Somewhat agree\,\Somewhat agree\,\3\,1708007240961,1708007240961,3094,3094,3614,buq,qns-item-noham,54,460612,0.0-1.0-0.53,65ce1d1d9fe78a673a71da9f,AWAITING REVIEW,2024-02-15T14:18:11.065000Z,2024-02-15T14:35:22.893000Z,,2024-02-15T14:35:23.549306Z,1032.0,CVPIIDEI,2480,31,Female,White,United States,United States,United States,English,DATA_EXPIRED,DATA_EXPIRED,Not Applicable
6117efedb574017076d5b499,"<b>If the political party I support messes up, it makes me think you can?t trust anyone these days",Highly disagree,55/94,Somewhat disagree,2,1708007241483,1708007252210,\Somewhat disagree\,\Somewhat disagree\,\2\,1708007251697,1708007251697,10214,10214,10727,buq,qns-item-noham,55,471341,0.0-1.0-0.54,65ce1d1d9fe78a673a71da9f,AWAITING REVIEW,2024-02-15T14:18:11.065000Z,2024-02-15T14:35:22.893000Z,,2024-02-15T14:35:23.549306Z,1032.0,CVPIIDEI,2480,31,Female,White,United States,United States,United States,English,DATA_EXPIRED,DATA_EXPIRED,Not Applicable
6117efedb574017076d5b499,<b>People?s brains turn off when they talk about politics.,Highly disagree,56/94,Somewhat disagree,2,1708007252211,1708007256306,\Somewhat disagree\,\Somewhat disagree\,\2\,1708007255842,1708007255842,3631,3631,4095,buq,qns-item-noham,56,475437,0.0-1.0-0.55,65ce1d1d9fe78a673a71da9f,AWAITING REVIEW,2024-02-15T14:18:11.065000Z,2024-02-15T14:35:22.893000Z,,2024-02-15T14:35:23.549306Z,1032.0,CVPIIDEI,2480,31,Female,White,United States,United States,United States,English,DATA_EXPIRED,DATA_EXPIRED,Not Applicable
6117efedb574017076d5b499,<b>People who are wrong are usually just ignoring the obvious.,Highly disagree,57/94,Somewhat agree,3,1708007256307,1708007259889,\Somewhat agree\,\Somewhat agree\,\3\,1708007259434,1708007259434,3127,3127,3582,buq,qns-item-noham,57,479020,0.0-1.0-0.56,65ce1d1d9fe78a673a71da9f,AWAITING REVIEW,2024-02-15T14:18:11.065000Z,2024-02-15T14:35:22.893000Z,,2024-02-15T14:35:23.549306Z,1032.0,CVPIIDEI,2480,31,Female,White,United States,United States,United States,English,DATA_EXPIRED,DATA_EXPIRED,Not Applicable
6117efedb574017076d5b499,"<b>When forming my views on people, I rely more on what they are like now rather than rely on my past experience with them.",Highly disagree,58/94,Somewhat agree,3,1708007259891,1708007265986,\Somewhat agree\,\Somewhat agree\,\3\,1708007265553,1708007265553,5662,5662,6095,buq,qns-item-noham,58,485117,0.0-1.0-0.57,65ce1d1d9fe78a673a71da9f,AWAITING REVIEW,2024-02-15T14:18:11.065000Z,2024-02-15T14:35:22.893000Z,,2024-02-15T14:35:23.549306Z,1032.0,CVPIIDEI,2480,31,Female,White,United States,United States,United States,English,DATA_EXPIRED,DATA_EXPIRED,Not Applicable
6117efedb574017076d5b499,"<b>When people contradict my beliefs, I usually know about their evidence already.",Highly disagree,59/94,Somewhat agree,3,1708007265987,1708007271250,\Somewhat agree\,\Somewhat agree\,\3\,1708007270777,1708007270777,4790,4790,5263,buq,qns-item-noham,59,490381,0.0-1.0-0.58,65ce1d1d9fe78a673a71da9f,AWAITING REVIEW,2024-02-15T14:18:11.065000Z,2024-02-15T14:35:22.893000Z,,2024-02-15T14:35:23.549306Z,1032.0,CVPIIDEI,2480,31,Female,White,United States,United States,United States,English,DATA_EXPIRED,DATA_EXPIRED,Not Applicable
6117efedb574017076d5b499,<b>Figuring out what?s true and what?s false mainly requires a strong moral compass.,Highly disagree,60/94,Highly agree,4,1708007271251,1708007276937,\Highly agree\,\Highly agree\,\4\,1708007276273,1708007276273,5022,5022,5686,buq,qns-item-noham,60,496069,0.0-1.0-0.59,65ce1d1d9fe78a673a71da9f,AWAITING REVIEW,2024-02-15T14:18:11.065000Z,2024-02-15T14:35:22.893000Z,,2024-02-15T14:35:23.549306Z,1032.0,CVPIIDEI,2480,31,Female,White,United States,United States,United States,English,DATA_EXPIRED,DATA_EXPIRED,Not Applicable
6117efedb574017076d5b499,"<b>Usually I?m wrong about simple things, not complicated ones.",Highly disagree,61/94,Somewhat disagree,2,1708007276939,1708007280355,\Somewhat disagree\,\Somewhat disagree\,\2\,1708007279850,1708007279850,2911,2911,3416,buq,qns-item-noham,61,499486,0.0-1.0-0.60,65ce1d1d9fe78a673a71da9f,AWAITING REVIEW,2024-02-15T14:18:11.065000Z,2024-02-15T14:35:22.893000Z,,2024-02-15T14:35:23.549306Z,1032.0,CVPIIDEI,2480,31,Female,White,United States,United States,United States,English,DATA_EXPIRED,DATA_EXPIRED,Not Applicable
6117efedb574017076d5b499,<b>Getting all the information I want about important things is hard.,Highly disagree,62/94,Somewhat disagree,2,1708007280356,1708007286186,\Somewhat disagree\,\Somewhat disagree\,\2\,1708007285738,1708007285738,5382,5382,5830,buq,qns-item-noham,62,505317,0.0-1.0-0.61,65ce1d1d9fe78a673a71da9f,AWAITING REVIEW,2024-02-15T14:18:11.065000Z,2024-02-15T14:35:22.893000Z,,2024-02-15T14:35:23.549306Z,1032.0,CVPIIDEI,2480,31,Female,White,United States,United States,United States,English,DATA_EXPIRED,DATA_EXPIRED,Not Applicable
6117efedb574017076d5b499,<b>Most false beliefs spread because people try to deceive one another.,Highly disagree,63/94,Highly agree,4,1708007286187,1708007289994,\Highly agree\,\Highly agree\,\4\,1708007289465,1708007289465,3278,3278,3807,buq,qns-item-noham,63,509125,0.0-1.0-0.62,65ce1d1d9fe78a673a71da9f,AWAITING REVIEW,2024-02-15T14:18:11.065000Z,2024-02-15T14:35:22.893000Z,,2024-02-15T14:35:23.549306Z,1032.0,CVPIIDEI,2480,31,Female,White,United States,United States,United States,English,DATA_EXPIRED,DATA_EXPIRED,Not Applicable
6117efedb574017076d5b499,<b>I can usually find something to agree with in most people?s beliefs.,Highly disagree,64/94,Somewhat agree,3,1708007289995,1708007294995,\Somewhat agree\,\Somewhat agree\,\3\,1708007294505,1708007294505,4510,4510,5000,buq,qns-item-noham,64,514126,0.0-1.0-0.63,65ce1d1d9fe78a673a71da9f,AWAITING REVIEW,2024-02-15T14:18:11.065000Z,2024-02-15T14:35:22.893000Z,,2024-02-15T14:35:23.549306Z,1032.0,CVPIIDEI,2480,31,Female,White,United States,United States,United States,English,DATA_EXPIRED,DATA_EXPIRED,Not Applicable
6117efedb574017076d5b499,<b>I only form my views of people once I get to know them very well.,Highly disagree,65/94,Somewhat agree,3,1708007294996,1708007299545,\Somewhat agree\,\Somewhat agree\,\3\,1708007299065,1708007299065,4069,4069,4549,buq,qns-item-noham,65,518676,0.0-1.0-0.64,65ce1d1d9fe78a673a71da9f,AWAITING REVIEW,2024-02-15T14:18:11.065000Z,2024-02-15T14:35:22.893000Z,,2024-02-15T14:35:23.549306Z,1032.0,CVPIIDEI,2480,31,Female,White,United States,United States,United States,English,DATA_EXPIRED,DATA_EXPIRED,Not Applicable
6117efedb574017076d5b499,"<b>When people tell me important things about the world, I usually believe them.",Highly disagree,66/94,Somewhat disagree,2,1708007299546,1708007303641,\Somewhat disagree\,\Somewhat disagree\,\2\,1708007303113,1708007303113,3567,3567,4095,buq,qns-item-noham,66,522772,0.0-1.0-0.65,65ce1d1d9fe78a673a71da9f,AWAITING REVIEW,2024-02-15T14:18:11.065000Z,2024-02-15T14:35:22.893000Z,,2024-02-15T14:35:23.549306Z,1032.0,CVPIIDEI,2480,31,Female,White,United States,United States,United States,English,DATA_EXPIRED,DATA_EXPIRED,Not Applicable
6117efedb574017076d5b499,"<b>If a friend does something that upsets me, it reminds me what an unpredictable place the world is.",Highly disagree,67/94,Somewhat agree,3,1708007303642,1708007309826,\Somewhat disagree\,\Somewhat agree\,\2\,1708007307889,1708007309305,4247,5663,6184,buq,qns-item-noham,67,528957,0.0-1.0-0.66,65ce1d1d9fe78a673a71da9f,AWAITING REVIEW,2024-02-15T14:18:11.065000Z,2024-02-15T14:35:22.893000Z,,2024-02-15T14:35:23.549306Z,1032.0,CVPIIDEI,2480,31,Female,White,United States,United States,United States,English,DATA_EXPIRED,DATA_EXPIRED,Not Applicable
6117efedb574017076d5b499,<b>People tend to believe whatever is good for their friends.,Highly disagree,68/94,Somewhat agree,3,1708007309828,1708007312841,\Somewhat agree\,\Somewhat agree\,\3\,1708007312361,1708007312361,2533,2533,3013,buq,qns-item-noham,68,531972,0.0-1.0-0.67,65ce1d1d9fe78a673a71da9f,AWAITING REVIEW,2024-02-15T14:18:11.065000Z,2024-02-15T14:35:22.893000Z,,2024-02-15T14:35:23.549306Z,1032.0,CVPIIDEI,2480,31,Female,White,United States,United States,United States,English,DATA_EXPIRED,DATA_EXPIRED,Not Applicable
6117efedb574017076d5b499,<b>I used to be more certain my beliefs were true.,Highly disagree,69/94,Highly agree,4,1708007312843,1708007315929,\Highly agree\,\Highly agree\,\4\,1708007315281,1708007315281,2438,2438,3086,buq,qns-item-noham,69,535060,0.0-1.0-0.68,65ce1d1d9fe78a673a71da9f,AWAITING REVIEW,2024-02-15T14:18:11.065000Z,2024-02-15T14:35:22.893000Z,,2024-02-15T14:35:23.549306Z,1032.0,CVPIIDEI,2480,31,Female,White,United States,United States,United States,English,DATA_EXPIRED,DATA_EXPIRED,Not Applicable
6117efedb574017076d5b499,<b>It?s often pretty easy to figure out whether something is true based on who said it.,Highly disagree,70/94,Somewhat disagree,2,1708007315931,1708007377505,\Somewhat disagree\,\Somewhat disagree\,\2\,1708007377058,1708007377058,61127,61127,61574,buq,qns-item-noham,70,596636,0.0-1.0-0.69,65ce1d1d9fe78a673a71da9f,AWAITING REVIEW,2024-02-15T14:18:11.065000Z,2024-02-15T14:35:22.893000Z,,2024-02-15T14:35:23.549306Z,1032.0,CVPIIDEI,2480,31,Female,White,United States,United States,United States,English,DATA_EXPIRED,DATA_EXPIRED,Not Applicable
6117efedb574017076d5b499,<b>I transform into a hummingbird every day.,Highly disagree,71/94,Highly disagree,1,1708007377506,1708007383345,\Highly disagree\,\Highly disagree\,\1\,1708007382746,1708007382746,5240,5240,5839,buq,qns-item-noham,71,602476,0.0-1.0-0.70,65ce1d1d9fe78a673a71da9f,AWAITING REVIEW,2024-02-15T14:18:11.065000Z,2024-02-15T14:35:22.893000Z,,2024-02-15T14:35:23.549306Z,1032.0,CVPIIDEI,2480,31,Female,White,United States,United States,United States,English,DATA_EXPIRED,DATA_EXPIRED,Not Applicable
6117efedb574017076d5b499,<b>I think a lot about arguments against my views.,Highly disagree,72/94,Somewhat disagree,2,1708007383346,1708007386626,\Somewhat disagree\,\Somewhat disagree\,\2\,1708007386137,1708007386137,2791,2791,3280,buq,qns-item-noham,72,605757,0.0-1.0-0.71,65ce1d1d9fe78a673a71da9f,AWAITING REVIEW,2024-02-15T14:18:11.065000Z,2024-02-15T14:35:22.893000Z,,2024-02-15T14:35:23.549306Z,1032.0,CVPIIDEI,2480,31,Female,White,United States,United States,United States,English,DATA_EXPIRED,DATA_EXPIRED,Not Applicable
6117efedb574017076d5b499,<b>Personal experience is usually more important than facts and figures.,Highly disagree,73/94,Somewhat agree,3,1708007386628,1708007390905,\Somewhat agree\,\Somewhat agree\,\3\,1708007390441,1708007390441,3813,3813,4277,buq,qns-item-noham,73,610036,0.0-1.0-0.72,65ce1d1d9fe78a673a71da9f,AWAITING REVIEW,2024-02-15T14:18:11.065000Z,2024-02-15T14:35:22.893000Z,,2024-02-15T14:35:23.549306Z,1032.0,CVPIIDEI,2480,31,Female,White,United States,United States,United States,English,DATA_EXPIRED,DATA_EXPIRED,Not Applicable
6117efedb574017076d5b499,<b>I?ve been tricked before about important matters.,Highly disagree,74/94,Somewhat disagree,2,1708007390906,1708007394537,\Somewhat disagree\,\Somewhat disagree\,\2\,1708007394105,1708007394105,3199,3199,3631,buq,qns-item-noham,74,613668,0.0-1.0-0.73,65ce1d1d9fe78a673a71da9f,AWAITING REVIEW,2024-02-15T14:18:11.065000Z,2024-02-15T14:35:22.893000Z,,2024-02-15T14:35:23.549306Z,1032.0,CVPIIDEI,2480,31,Female,White,United States,United States,United States,English,DATA_EXPIRED,DATA_EXPIRED,Not Applicable
6117efedb574017076d5b499,<b>I would need to be totally wowed if I were to change my opinion of a restaurant I don?t like.,Highly disagree,75/94,Somewhat agree,3,1708007394538,1708007452450,\Somewhat agree\,\Somewhat agree\,\3\,1708007451937,1708007451937,57399,57399,57912,buq,qns-item-noham,75,671581,0.0-1.0-0.74,65ce1d1d9fe78a673a71da9f,AWAITING REVIEW,2024-02-15T14:18:11.065000Z,2024-02-15T14:35:22.893000Z,,2024-02-15T14:35:23.549306Z,1032.0,CVPIIDEI,2480,31,Female,White,United States,United States,United States,English,DATA_EXPIRED,DATA_EXPIRED,Not Applicable
6117efedb574017076d5b499,<b>I care a lot about politics.,Highly disagree,76/94,Somewhat disagree,2,1708007452451,1708007455250,\Somewhat disagree\,\Somewhat disagree\,\2\,1708007454801,1708007454801,2350,2350,2799,buq,qns-item-noham,76,674381,0.0-1.0-0.75,65ce1d1d9fe78a673a71da9f,AWAITING REVIEW,2024-02-15T14:18:11.065000Z,2024-02-15T14:35:22.893000Z,,2024-02-15T14:35:23.549306Z,1032.0,CVPIIDEI,2480,31,Female,White,United States,United States,United States,English,DATA_EXPIRED,DATA_EXPIRED,Not Applicable
6117efedb574017076d5b499,<b>There are some topics I?ve been really wrong about.,Highly disagree,77/94,Somewhat agree,3,1708007455251,1708007463802,\Somewhat agree\,\Somewhat agree\,\3\,1708007463225,1708007463225,7974,7974,8551,buq,qns-item-noham,77,682933,0.0-1.0-0.76,65ce1d1d9fe78a673a71da9f,AWAITING REVIEW,2024-02-15T14:18:11.065000Z,2024-02-15T14:35:22.893000Z,,2024-02-15T14:35:23.549306Z,1032.0,CVPIIDEI,2480,31,Female,White,United States,United States,United States,English,DATA_EXPIRED,DATA_EXPIRED,Not Applicable
6117efedb574017076d5b499,<b>Most beliefs can be supported with at least some evidence.,Highly disagree,78/94,Somewhat agree,3,1708007463803,1708007480537,\Somewhat agree\,\Somewhat agree\,\3\,1708007479905,1708007479905,16102,16102,16734,buq,qns-item-noham,78,699668,0.0-1.0-0.77,65ce1d1d9fe78a673a71da9f,AWAITING REVIEW,2024-02-15T14:18:11.065000Z,2024-02-15T14:35:22.893000Z,,2024-02-15T14:35:23.549306Z,1032.0,CVPIIDEI,2480,31,Female,White,United States,United States,United States,English,DATA_EXPIRED,DATA_EXPIRED,Not Applicable
6117efedb574017076d5b499,<b>Other people make life out to be more complicated than it really is.,Highly disagree,79/94,Somewhat agree,3,1708007480538,1708007495521,\Somewhat agree\,\Somewhat agree\,\3\,1708007494969,1708007494969,14431,14431,14983,buq,qns-item-noham,79,714653,0.0-1.0-0.78,65ce1d1d9fe78a673a71da9f,AWAITING REVIEW,2024-02-15T14:18:11.065000Z,2024-02-15T14:35:22.893000Z,,2024-02-15T14:35:23.549306Z,1032.0,CVPIIDEI,2480,31,Female,White,United States,United States,United States,English,DATA_EXPIRED,DATA_EXPIRED,Not Applicable
6117efedb574017076d5b499,"<b>Policy details don?t matter much, just the big picture.",Highly disagree,80/94,Somewhat disagree,2,1708007495523,1708007501026,\Somewhat disagree\,\Somewhat disagree\,\2\,1708007500250,1708007500250,4727,4727,5503,buq,qns-item-noham,80,720157,0.0-1.0-0.79,65ce1d1d9fe78a673a71da9f,AWAITING REVIEW,2024-02-15T14:18:11.065000Z,2024-02-15T14:35:22.893000Z,,2024-02-15T14:35:23.549306Z,1032.0,CVPIIDEI,2480,31,Female,White,United States,United States,United States,English,DATA_EXPIRED,DATA_EXPIRED,Not Applicable
6117efedb574017076d5b499,<b>I know my friends so well they can hardly ever surprise me.,Highly disagree,81/94,Somewhat agree,3,1708007501027,1708007504250,\Somewhat agree\,\Somewhat agree\,\3\,1708007503810,1708007503810,2783,2783,3223,buq,qns-item-noham,81,723381,0.0-1.0-0.80,65ce1d1d9fe78a673a71da9f,AWAITING REVIEW,2024-02-15T14:18:11.065000Z,2024-02-15T14:35:22.893000Z,,2024-02-15T14:35:23.549306Z,1032.0,CVPIIDEI,2480,31,Female,White,United States,United States,United States,English,DATA_EXPIRED,DATA_EXPIRED,Not Applicable
6117efedb574017076d5b499,<b>I do not often change my views on people.,Highly disagree,82/94,Highly agree,4,1708007504251,1708007507026,\Highly agree\,\Highly agree\,\4\,1708007506385,1708007506385,2134,2134,2775,buq,qns-item-noham,82,726157,0.0-1.0-0.81,65ce1d1d9fe78a673a71da9f,AWAITING REVIEW,2024-02-15T14:18:11.065000Z,2024-02-15T14:35:22.893000Z,,2024-02-15T14:35:23.549306Z,1032.0,CVPIIDEI,2480,31,Female,White,United States,United States,United States,English,DATA_EXPIRED,DATA_EXPIRED,Not Applicable
6117efedb574017076d5b499,<b>I?m more certain about my beliefs than I used to be.,Highly disagree,83/94,Highly agree,4,1708007507027,1708007509690,\Highly agree\,\Highly agree\,\4\,1708007509169,1708007509169,2142,2142,2663,buq,qns-item-noham,83,728821,0.0-1.0-0.82,65ce1d1d9fe78a673a71da9f,AWAITING REVIEW,2024-02-15T14:18:11.065000Z,2024-02-15T14:35:22.893000Z,,2024-02-15T14:35:23.549306Z,1032.0,CVPIIDEI,2480,31,Female,White,United States,United States,United States,English,DATA_EXPIRED,DATA_EXPIRED,Not Applicable
6117efedb574017076d5b499,<b>People often tell falsehoods unintentionally.,Highly disagree,84/94,Somewhat agree,3,1708007509691,1708007513746,\Somewhat agree\,\Somewhat agree\,\3\,1708007513233,1708007513233,3542,3542,4055,buq,qns-item-noham,84,732877,0.0-1.0-0.83,65ce1d1d9fe78a673a71da9f,AWAITING REVIEW,2024-02-15T14:18:11.065000Z,2024-02-15T14:35:22.893000Z,,2024-02-15T14:35:23.549306Z,1032.0,CVPIIDEI,2480,31,Female,White,United States,United States,United States,English,DATA_EXPIRED,DATA_EXPIRED,Not Applicable
6117efedb574017076d5b499,<b>Most people don?t know much about most things.,Highly disagree,85/94,Somewhat agree,3,1708007513747,1708007516873,\Somewhat agree\,\Somewhat agree\,\3\,1708007516425,1708007516425,2678,2678,3126,buq,qns-item-noham,85,736005,0.0-1.0-0.84,65ce1d1d9fe78a673a71da9f,AWAITING REVIEW,2024-02-15T14:18:11.065000Z,2024-02-15T14:35:22.893000Z,,2024-02-15T14:35:23.549306Z,1032.0,CVPIIDEI,2480,31,Female,White,United States,United States,United States,English,DATA_EXPIRED,DATA_EXPIRED,Not Applicable
6117efedb574017076d5b499,"<b>If I find out something new about someone, I easily change my views about them.",Highly disagree,86/94,Somewhat disagree,2,1708007516875,1708007520529,\Somewhat disagree\,\Somewhat disagree\,\2\,1708007520105,1708007520105,3230,3230,3654,buq,qns-item-noham,86,739660,0.0-1.0-0.85,65ce1d1d9fe78a673a71da9f,AWAITING REVIEW,2024-02-15T14:18:11.065000Z,2024-02-15T14:35:22.893000Z,,2024-02-15T14:35:23.549306Z,1032.0,CVPIIDEI,2480,31,Female,White,United States,United States,United States,English,DATA_EXPIRED,DATA_EXPIRED,Not Applicable
6117efedb574017076d5b499,<b>Having true beliefs is difficult.,Highly disagree,87/94,Highly agree,4,1708007520530,1708007523730,\Highly agree\,\Highly agree\,\4\,1708007522833,1708007522833,2303,2303,3200,buq,qns-item-noham,87,742861,0.0-1.0-0.86,65ce1d1d9fe78a673a71da9f,AWAITING REVIEW,2024-02-15T14:18:11.065000Z,2024-02-15T14:35:22.893000Z,,2024-02-15T14:35:23.549306Z,1032.0,CVPIIDEI,2480,31,Female,White,United States,United States,United States,English,DATA_EXPIRED,DATA_EXPIRED,Not Applicable
6117efedb574017076d5b499,<b>I don?t try new foods since I know I won?t like them.,Highly disagree,88/94,Somewhat agree,3,1708007523732,1708007528306,\Somewhat agree\,\Somewhat agree\,\3\,1708007527898,1708007527898,4166,4166,4574,buq,qns-item-noham,88,747437,0.0-1.0-0.87,65ce1d1d9fe78a673a71da9f,AWAITING REVIEW,2024-02-15T14:18:11.065000Z,2024-02-15T14:35:22.893000Z,,2024-02-15T14:35:23.549306Z,1032.0,CVPIIDEI,2480,31,Female,White,United States,United States,United States,English,DATA_EXPIRED,DATA_EXPIRED,Not Applicable
6117efedb574017076d5b499,<b>Other people trick each other a lot.,Highly disagree,89/94,Somewhat agree,3,1708007528307,1708007533570,\Somewhat disagree\,\Somewhat agree\,\2\,1708007530689,1708007533001,2382,4694,5263,buq,qns-item-noham,89,752701,0.0-1.0-0.88,65ce1d1d9fe78a673a71da9f,AWAITING REVIEW,2024-02-15T14:18:11.065000Z,2024-02-15T14:35:22.893000Z,,2024-02-15T14:35:23.549306Z,1032.0,CVPIIDEI,2480,31,Female,White,United States,United States,United States,English,DATA_EXPIRED,DATA_EXPIRED,Not Applicable
6117efedb574017076d5b499,<b>I would need to learn a lot about a person for my opinion of them to be swayed.,Highly disagree,90/94,Highly agree,4,1708007533571,1708007538442,\Highly agree\,\Highly agree\,\4\,1708007537938,1708007537938,4367,4367,4871,buq,qns-item-noham,90,757573,0.0-1.0-0.89,65ce1d1d9fe78a673a71da9f,AWAITING REVIEW,2024-02-15T14:18:11.065000Z,2024-02-15T14:35:22.893000Z,,2024-02-15T14:35:23.549306Z,1032.0,CVPIIDEI,2480,31,Female,White,United States,United States,United States,English,DATA_EXPIRED,DATA_EXPIRED,Not Applicable
6117efedb574017076d5b499,<b>People can?t usually trick me when it comes to topics I care about.,Highly disagree,91/94,Somewhat agree,3,1708007538444,1708007542650,\Somewhat agree\,\Somewhat agree\,\3\,1708007541161,1708007541161,2717,2717,4206,buq,qns-item-noham,91,761781,0.0-1.0-0.90,65ce1d1d9fe78a673a71da9f,AWAITING REVIEW,2024-02-15T14:18:11.065000Z,2024-02-15T14:35:22.893000Z,,2024-02-15T14:35:23.549306Z,1032.0,CVPIIDEI,2480,31,Female,White,United States,United States,United States,English,DATA_EXPIRED,DATA_EXPIRED,Not Applicable
6117efedb574017076d5b499,<b>I do not often change my views on food.,Highly disagree,92/94,Highly agree,4,1708007542651,1708007545594,\Highly agree\,\Highly agree\,\4\,1708007544953,1708007544953,2302,2302,2943,buq,qns-item-noham,92,764725,0.0-1.0-0.91,65ce1d1d9fe78a673a71da9f,AWAITING REVIEW,2024-02-15T14:18:11.065000Z,2024-02-15T14:35:22.893000Z,,2024-02-15T14:35:23.549306Z,1032.0,CVPIIDEI,2480,31,Female,White,United States,United States,United States,English,DATA_EXPIRED,DATA_EXPIRED,Not Applicable
6117efedb574017076d5b499,<b>Specific policies are often very important to me.,Highly disagree,93/94,Somewhat agree,3,1708007545595,1708007551521,\Somewhat agree\,\Somewhat agree\,\3\,1708007550857,1708007550857,5262,5262,5926,buq,qns-item-noham,93,770652,0.0-1.0-0.92,65ce1d1d9fe78a673a71da9f,AWAITING REVIEW,2024-02-15T14:18:11.065000Z,2024-02-15T14:35:22.893000Z,,2024-02-15T14:35:23.549306Z,1032.0,CVPIIDEI,2480,31,Female,White,United States,United States,United States,English,DATA_EXPIRED,DATA_EXPIRED,Not Applicable
6117efedb574017076d5b499,<b>Most people are woefully under-informed.,Highly disagree,94/94,Somewhat agree,3,1708007551523,1708007557201,\Somewhat disagree\,\Somewhat agree\,\2\,1708007554577,1708007556585,3054,5062,5678,buq,qns-item-noham,94,776332,0.0-1.0-0.93,65ce1d1d9fe78a673a71da9f,AWAITING REVIEW,2024-02-15T14:18:11.065000Z,2024-02-15T14:35:22.893000Z,,2024-02-15T14:35:23.549306Z,1032.0,CVPIIDEI,2480,31,Female,White,United States,United States,United States,English,DATA_EXPIRED,DATA_EXPIRED,Not Applicable
6117efedb574017076d5b499,,,,,,,,,,,,,,,,,,,,,65ce1d1d9fe78a673a71da9f,AWAITING REVIEW,2024-02-15T14:18:11.065000Z,2024-02-15T14:35:22.893000Z,,2024-02-15T14:35:23.549306Z,1032.0,CVPIIDEI,2480,31,Female,White,United States,United States,United States,English,DATA_EXPIRED,DATA_EXPIRED,Not Applicable
