PROLIFIC_PID,Question,qns_options,quest_num,answer,answer_num,question_load_timestamp,next_btn_timestamp,text_selected,final_text_selected,option_num_selected,preview_timestamps,final_text_selected_time_stamp,rt_first_option_click,rt_final_option_click,rt_submit_click,questionnaire,trial_type,trial_index,time_elapsed,internal_node_id,Demographic_Submission id,Demographic_Status,Demographic_Started at,Demographic_Completed at,Demographic_Reviewed at,Demographic_Archived at,Demographic_Time taken,Demographic_Completion code,Demographic_Total approvals,Demographic_Age,Demographic_Sex,Demographic_Ethnicity simplified,Demographic_Country of birth,Demographic_Country of residence,Demographic_Nationality,Demographic_Language,Demographic_Student status,Demographic_Employment status,Demographic_Custom study tncs accepted at
63e5257dc5aceb22cee2ddf1,<b>Knowing what?s true and knowing what to do about it are usually basically the same.,Highly disagree,1/94,Somewhat disagree,2,1708006949405,1708006967926,\Somewhat disagree\,\Somewhat disagree\,\2\,1708006965850,1708006965850,16445,16445,18521,buq,qns-item-noham,1,36041,0.0-1.0-0.0,65ce1dc2ae6c37b77f823330,AWAITING REVIEW,2024-02-15T14:21:02.858000Z,2024-02-15T14:38:11.439000Z,,2024-02-15T14:38:12.172788Z,1029.0,CVPIIDEI,2478,32,Male,DATA_EXPIRED,United States,United States,United States,English,DATA_EXPIRED,DATA_EXPIRED,Not Applicable
63e5257dc5aceb22cee2ddf1,<b>Most people just believe whatever is convenient for them.,Highly disagree,2/94,Somewhat agree,3,1708006967941,1708006977158,\Somewhat agree\,\Somewhat agree\,\3\,1708006975932,1708006975932,7991,7991,9217,buq,qns-item-noham,2,45273,0.0-1.0-0.1,65ce1dc2ae6c37b77f823330,AWAITING REVIEW,2024-02-15T14:21:02.858000Z,2024-02-15T14:38:11.439000Z,,2024-02-15T14:38:12.172788Z,1029.0,CVPIIDEI,2478,32,Male,DATA_EXPIRED,United States,United States,United States,English,DATA_EXPIRED,DATA_EXPIRED,Not Applicable
63e5257dc5aceb22cee2ddf1,<b>Having some big beliefs helps me sort out minor ones.,Highly disagree,3/94,Somewhat agree,3,1708006977161,1708006997368,\Somewhat agree\,\Somewhat agree\,\3\,1708006994480,1708006994480,17319,17319,20207,buq,qns-item-noham,3,65483,0.0-1.0-0.2,65ce1dc2ae6c37b77f823330,AWAITING REVIEW,2024-02-15T14:21:02.858000Z,2024-02-15T14:38:11.439000Z,,2024-02-15T14:38:12.172788Z,1029.0,CVPIIDEI,2478,32,Male,DATA_EXPIRED,United States,United States,United States,English,DATA_EXPIRED,DATA_EXPIRED,Not Applicable
63e5257dc5aceb22cee2ddf1,<b>Political questions are usually pretty complicated.,Highly disagree,4/94,Somewhat agree,3,1708006997371,1708007011960,\Somewhat agree\,\Somewhat agree\,\3\,1708007011245,1708007011245,13874,13874,14589,buq,qns-item-noham,4,80075,0.0-1.0-0.3,65ce1dc2ae6c37b77f823330,AWAITING REVIEW,2024-02-15T14:21:02.858000Z,2024-02-15T14:38:11.439000Z,,2024-02-15T14:38:12.172788Z,1029.0,CVPIIDEI,2478,32,Male,DATA_EXPIRED,United States,United States,United States,English,DATA_EXPIRED,DATA_EXPIRED,Not Applicable
63e5257dc5aceb22cee2ddf1,<b>Figuring out what?s important in life requires learning a lot of facts.,Highly disagree,5/94,Highly disagree,1,1708007011963,1708007026324,\Highly disagree\,\Highly disagree\,\1\,1708007022030,1708007022030,10067,10067,14361,buq,qns-item-noham,5,94439,0.0-1.0-0.4,65ce1dc2ae6c37b77f823330,AWAITING REVIEW,2024-02-15T14:21:02.858000Z,2024-02-15T14:38:11.439000Z,,2024-02-15T14:38:12.172788Z,1029.0,CVPIIDEI,2478,32,Male,DATA_EXPIRED,United States,United States,United States,English,DATA_EXPIRED,DATA_EXPIRED,Not Applicable
63e5257dc5aceb22cee2ddf1,<b>It is difficult for me to remember the last time I was surprised by politics.,Highly disagree,6/94,Highly disagree,1,1708007026327,1708007032524,\Highly disagree\,\Highly disagree\,\1\,1708007031068,1708007031068,4741,4741,6197,buq,qns-item-noham,6,100639,0.0-1.0-0.5,65ce1dc2ae6c37b77f823330,AWAITING REVIEW,2024-02-15T14:21:02.858000Z,2024-02-15T14:38:11.439000Z,,2024-02-15T14:38:12.172788Z,1029.0,CVPIIDEI,2478,32,Male,DATA_EXPIRED,United States,United States,United States,English,DATA_EXPIRED,DATA_EXPIRED,Not Applicable
63e5257dc5aceb22cee2ddf1,<b>People?s false beliefs are understandable.,Highly disagree,7/94,Somewhat disagree,2,1708007032528,1708007045179,\Somewhat disagree\,\Somewhat disagree\,\2\,1708007044002,1708007044002,11474,11474,12651,buq,qns-item-noham,7,113294,0.0-1.0-0.6,65ce1dc2ae6c37b77f823330,AWAITING REVIEW,2024-02-15T14:21:02.858000Z,2024-02-15T14:38:11.439000Z,,2024-02-15T14:38:12.172788Z,1029.0,CVPIIDEI,2478,32,Male,DATA_EXPIRED,United States,United States,United States,English,DATA_EXPIRED,DATA_EXPIRED,Not Applicable
63e5257dc5aceb22cee2ddf1,<b>I spend a lot of time trying to be informed about politics.,Highly disagree,8/94,Highly disagree,1,1708007045182,1708007050226,\Highly disagree\,\Highly disagree\,\1\,1708007048843,1708007048843,3661,3661,5044,buq,qns-item-noham,8,118341,0.0-1.0-0.7,65ce1dc2ae6c37b77f823330,AWAITING REVIEW,2024-02-15T14:21:02.858000Z,2024-02-15T14:38:11.439000Z,,2024-02-15T14:38:12.172788Z,1029.0,CVPIIDEI,2478,32,Male,DATA_EXPIRED,United States,United States,United States,English,DATA_EXPIRED,DATA_EXPIRED,Not Applicable
63e5257dc5aceb22cee2ddf1,<b>I think a lot about whether my beliefs are right.,Highly disagree,9/94,Highly disagree,1,1708007050229,1708007058877,\Highly disagree\,\Highly disagree\,\1\,1708007058077,1708007058077,7848,7848,8648,buq,qns-item-noham,9,126992,0.0-1.0-0.8,65ce1dc2ae6c37b77f823330,AWAITING REVIEW,2024-02-15T14:21:02.858000Z,2024-02-15T14:38:11.439000Z,,2024-02-15T14:38:12.172788Z,1029.0,CVPIIDEI,2478,32,Male,DATA_EXPIRED,United States,United States,United States,English,DATA_EXPIRED,DATA_EXPIRED,Not Applicable
63e5257dc5aceb22cee2ddf1,<b>Statistics can be pretty misleading sometimes.,Highly disagree,10/94,Highly agree,4,1708007058880,1708007071553,\Highly agree\,\Highly agree\,\4\,1708007062066,1708007062066,3186,3186,12673,buq,qns-item-noham,10,139668,0.0-1.0-0.9,65ce1dc2ae6c37b77f823330,AWAITING REVIEW,2024-02-15T14:21:02.858000Z,2024-02-15T14:38:11.439000Z,,2024-02-15T14:38:12.172788Z,1029.0,CVPIIDEI,2478,32,Male,DATA_EXPIRED,United States,United States,United States,English,DATA_EXPIRED,DATA_EXPIRED,Not Applicable
63e5257dc5aceb22cee2ddf1,<b>I have lots of beliefs that I?m only sort of sure about.,Highly disagree,11/94,Somewhat disagree,2,1708007071555,1708007080458,\Highly disagree\,\Somewhat disagree\,\1\,1708007076745,1708007078056,5190,6501,8903,buq,qns-item-noham,11,148573,0.0-1.0-0.10,65ce1dc2ae6c37b77f823330,AWAITING REVIEW,2024-02-15T14:21:02.858000Z,2024-02-15T14:38:11.439000Z,,2024-02-15T14:38:12.172788Z,1029.0,CVPIIDEI,2478,32,Male,DATA_EXPIRED,United States,United States,United States,English,DATA_EXPIRED,DATA_EXPIRED,Not Applicable
63e5257dc5aceb22cee2ddf1,"<b>If I go to my favorite restaurant and the food is surprisingly bad, it reminds me there are many disappointments in life.",Highly disagree,12/94,Somewhat disagree,2,1708007080462,1708007091487,\Somewhat disagree\,\Somewhat disagree\,\2\,1708007089728,1708007089728,9266,9266,11025,buq,qns-item-noham,12,159602,0.0-1.0-0.11,65ce1dc2ae6c37b77f823330,AWAITING REVIEW,2024-02-15T14:21:02.858000Z,2024-02-15T14:38:11.439000Z,,2024-02-15T14:38:12.172788Z,1029.0,CVPIIDEI,2478,32,Male,DATA_EXPIRED,United States,United States,United States,English,DATA_EXPIRED,DATA_EXPIRED,Not Applicable
63e5257dc5aceb22cee2ddf1,"<b>If you are paying attention, please select ?Somewhat agree?",Highly disagree,13/94,Somewhat agree,3,1708007091490,1708007096922,\Somewhat agree\,\Somewhat agree\,\3\,1708007095345,1708007095345,3855,3855,5432,buq,qns-item-noham,13,165037,0.0-1.0-0.12,65ce1dc2ae6c37b77f823330,AWAITING REVIEW,2024-02-15T14:21:02.858000Z,2024-02-15T14:38:11.439000Z,,2024-02-15T14:38:12.172788Z,1029.0,CVPIIDEI,2478,32,Male,DATA_EXPIRED,United States,United States,United States,English,DATA_EXPIRED,DATA_EXPIRED,Not Applicable
63e5257dc5aceb22cee2ddf1,"<b>When I talk to others, I often worry I?ll convince them of something I didn?t mean to.",Highly disagree,14/94,Highly disagree,1,1708007096923,1708007103802,\Highly disagree\,\Highly disagree\,\1\,1708007102516,1708007102516,5593,5593,6879,buq,qns-item-noham,14,171917,0.0-1.0-0.13,65ce1dc2ae6c37b77f823330,AWAITING REVIEW,2024-02-15T14:21:02.858000Z,2024-02-15T14:38:11.439000Z,,2024-02-15T14:38:12.172788Z,1029.0,CVPIIDEI,2478,32,Male,DATA_EXPIRED,United States,United States,United States,English,DATA_EXPIRED,DATA_EXPIRED,Not Applicable
63e5257dc5aceb22cee2ddf1,<b>I would need to learn something utterly shocking about my party in order to change my political views.,Highly disagree,15/94,Somewhat disagree,2,1708007103805,1708007119926,\Somewhat disagree\,\Somewhat disagree\,\2\,1708007118641,1708007118641,14836,14836,16121,buq,qns-item-noham,15,188042,0.0-1.0-0.14,65ce1dc2ae6c37b77f823330,AWAITING REVIEW,2024-02-15T14:21:02.858000Z,2024-02-15T14:38:11.439000Z,,2024-02-15T14:38:12.172788Z,1029.0,CVPIIDEI,2478,32,Male,DATA_EXPIRED,United States,United States,United States,English,DATA_EXPIRED,DATA_EXPIRED,Not Applicable
63e5257dc5aceb22cee2ddf1,"<b>When I have new experiences, I tend to think of them as unique.",Highly disagree,16/94,Somewhat agree,3,1708007119930,1708007129379,\Somewhat agree\,\Somewhat agree\,\3\,1708007127924,1708007127924,7994,7994,9449,buq,qns-item-noham,16,197494,0.0-1.0-0.15,65ce1dc2ae6c37b77f823330,AWAITING REVIEW,2024-02-15T14:21:02.858000Z,2024-02-15T14:38:11.439000Z,,2024-02-15T14:38:12.172788Z,1029.0,CVPIIDEI,2478,32,Male,DATA_EXPIRED,United States,United States,United States,English,DATA_EXPIRED,DATA_EXPIRED,Not Applicable
63e5257dc5aceb22cee2ddf1,<b>I change my mind about specific policies pretty frequently.,Highly disagree,17/94,Highly disagree,1,1708007129382,1708007135738,\Highly disagree\,\Highly disagree\,\1\,1708007134719,1708007134719,5337,5337,6356,buq,qns-item-noham,17,203853,0.0-1.0-0.16,65ce1dc2ae6c37b77f823330,AWAITING REVIEW,2024-02-15T14:21:02.858000Z,2024-02-15T14:38:11.439000Z,,2024-02-15T14:38:12.172788Z,1029.0,CVPIIDEI,2478,32,Male,DATA_EXPIRED,United States,United States,United States,English,DATA_EXPIRED,DATA_EXPIRED,Not Applicable
63e5257dc5aceb22cee2ddf1,"<b>If a politician in my political party supports something I disagree with, I give them the benefit of the doubt, as such issues often involve hidden complexities that aren?t obvious.   ",Highly disagree,18/94,Highly disagree,1,1708007135741,1708007155842,\Highly disagree\,\Highly disagree\,\1\,1708007154216,1708007154216,18475,18475,20101,buq,qns-item-noham,18,223957,0.0-1.0-0.17,65ce1dc2ae6c37b77f823330,AWAITING REVIEW,2024-02-15T14:21:02.858000Z,2024-02-15T14:38:11.439000Z,,2024-02-15T14:38:12.172788Z,1029.0,CVPIIDEI,2478,32,Male,DATA_EXPIRED,United States,United States,United States,English,DATA_EXPIRED,DATA_EXPIRED,Not Applicable
63e5257dc5aceb22cee2ddf1,<b>People?s bad politics are usually motivated by hatefulness.,Highly disagree,19/94,Somewhat disagree,2,1708007155845,1708007165670,\Somewhat disagree\,\Somewhat disagree\,\2\,1708007164772,1708007164772,8927,8927,9825,buq,qns-item-noham,19,233785,0.0-1.0-0.18,65ce1dc2ae6c37b77f823330,AWAITING REVIEW,2024-02-15T14:21:02.858000Z,2024-02-15T14:38:11.439000Z,,2024-02-15T14:38:12.172788Z,1029.0,CVPIIDEI,2478,32,Male,DATA_EXPIRED,United States,United States,United States,English,DATA_EXPIRED,DATA_EXPIRED,Not Applicable
63e5257dc5aceb22cee2ddf1,<b>I think a lot about how to reconcile my beliefs with one another.,Highly disagree,20/94,Highly disagree,1,1708007165674,1708007172756,\Highly disagree\,\Highly disagree\,\1\,1708007171761,1708007171761,6087,6087,7082,buq,qns-item-noham,20,240871,0.0-1.0-0.19,65ce1dc2ae6c37b77f823330,AWAITING REVIEW,2024-02-15T14:21:02.858000Z,2024-02-15T14:38:11.439000Z,,2024-02-15T14:38:12.172788Z,1029.0,CVPIIDEI,2478,32,Male,DATA_EXPIRED,United States,United States,United States,English,DATA_EXPIRED,DATA_EXPIRED,Not Applicable
63e5257dc5aceb22cee2ddf1,<b>I might have false beliefs about important topics.,Highly disagree,21/94,Somewhat disagree,2,1708007172760,1708007179891,\Somewhat disagree\,\Somewhat disagree\,\2\,1708007177912,1708007178543,5152,5783,7131,buq,qns-item-noham,21,248006,0.0-1.0-0.20,65ce1dc2ae6c37b77f823330,AWAITING REVIEW,2024-02-15T14:21:02.858000Z,2024-02-15T14:38:11.439000Z,,2024-02-15T14:38:12.172788Z,1029.0,CVPIIDEI,2478,32,Male,DATA_EXPIRED,United States,United States,United States,English,DATA_EXPIRED,DATA_EXPIRED,Not Applicable
63e5257dc5aceb22cee2ddf1,"<b>If a good friend of mine does something unexpected that upsets me, I feel like I don?t know them anymore.",Highly disagree,22/94,Somewhat disagree,2,1708007179894,1708007195651,\Highly disagree\,\Somewhat disagree\,\1\,1708007187680,1708007194026,7786,14132,15757,buq,qns-item-noham,22,263766,0.0-1.0-0.21,65ce1dc2ae6c37b77f823330,AWAITING REVIEW,2024-02-15T14:21:02.858000Z,2024-02-15T14:38:11.439000Z,,2024-02-15T14:38:12.172788Z,1029.0,CVPIIDEI,2478,32,Male,DATA_EXPIRED,United States,United States,United States,English,DATA_EXPIRED,DATA_EXPIRED,Not Applicable
63e5257dc5aceb22cee2ddf1,<b>Other people?s beliefs are often incoherent.,Highly disagree,23/94,Somewhat disagree,2,1708007195654,1708007200589,\Somewhat disagree\,\Somewhat disagree\,\2\,1708007199581,1708007199581,3927,3927,4935,buq,qns-item-noham,23,268704,0.0-1.0-0.22,65ce1dc2ae6c37b77f823330,AWAITING REVIEW,2024-02-15T14:21:02.858000Z,2024-02-15T14:38:11.439000Z,,2024-02-15T14:38:12.172788Z,1029.0,CVPIIDEI,2478,32,Male,DATA_EXPIRED,United States,United States,United States,English,DATA_EXPIRED,DATA_EXPIRED,Not Applicable
63e5257dc5aceb22cee2ddf1,"<b>Every now and then, a new experience will unsettle beliefs I?ve had for a while.",Highly disagree,24/94,Somewhat agree,3,1708007200593,1708007207188,\Somewhat agree\,\Somewhat agree\,\3\,1708007205914,1708007205914,5321,5321,6595,buq,qns-item-noham,24,275303,0.0-1.0-0.23,65ce1dc2ae6c37b77f823330,AWAITING REVIEW,2024-02-15T14:21:02.858000Z,2024-02-15T14:38:11.439000Z,,2024-02-15T14:38:12.172788Z,1029.0,CVPIIDEI,2478,32,Male,DATA_EXPIRED,United States,United States,United States,English,DATA_EXPIRED,DATA_EXPIRED,Not Applicable
63e5257dc5aceb22cee2ddf1,<b>Some policies I agree with in principle are so bad I don?t support them. ,Highly disagree,25/94,Somewhat agree,3,1708007207191,1708007216796,\Somewhat agree\,\Somewhat agree\,\3\,1708007216032,1708007216032,8841,8841,9605,buq,qns-item-noham,25,284911,0.0-1.0-0.24,65ce1dc2ae6c37b77f823330,AWAITING REVIEW,2024-02-15T14:21:02.858000Z,2024-02-15T14:38:11.439000Z,,2024-02-15T14:38:12.172788Z,1029.0,CVPIIDEI,2478,32,Male,DATA_EXPIRED,United States,United States,United States,English,DATA_EXPIRED,DATA_EXPIRED,Not Applicable
63e5257dc5aceb22cee2ddf1,<b>I?m pretty sure I?ve accidentally spread false information.,Highly disagree,26/94,Somewhat agree,3,1708007216798,1708007225480,\Somewhat agree\,\Somewhat agree\,\3\,1708007224583,1708007224583,7785,7785,8682,buq,qns-item-noham,26,293596,0.0-1.0-0.25,65ce1dc2ae6c37b77f823330,AWAITING REVIEW,2024-02-15T14:21:02.858000Z,2024-02-15T14:38:11.439000Z,,2024-02-15T14:38:12.172788Z,1029.0,CVPIIDEI,2478,32,Male,DATA_EXPIRED,United States,United States,United States,English,DATA_EXPIRED,DATA_EXPIRED,Not Applicable
63e5257dc5aceb22cee2ddf1,"<b>If I go to my favorite restaurant and the food is unexpectedly bad, then they have changed owners.",Highly disagree,27/94,Somewhat disagree,2,1708007225483,1708007234288,\Somewhat disagree\,\Somewhat disagree\,\2\,1708007233439,1708007233439,7956,7956,8805,buq,qns-item-noham,27,302403,0.0-1.0-0.26,65ce1dc2ae6c37b77f823330,AWAITING REVIEW,2024-02-15T14:21:02.858000Z,2024-02-15T14:38:11.439000Z,,2024-02-15T14:38:12.172788Z,1029.0,CVPIIDEI,2478,32,Male,DATA_EXPIRED,United States,United States,United States,English,DATA_EXPIRED,DATA_EXPIRED,Not Applicable
63e5257dc5aceb22cee2ddf1,"<b>In politics, it?s important to trust your friends and family.",Highly disagree,28/94,Somewhat disagree,2,1708007234291,1708007241577,\Somewhat disagree\,\Somewhat disagree\,\2\,1708007240631,1708007240631,6340,6340,7286,buq,qns-item-noham,28,309692,0.0-1.0-0.27,65ce1dc2ae6c37b77f823330,AWAITING REVIEW,2024-02-15T14:21:02.858000Z,2024-02-15T14:38:11.439000Z,,2024-02-15T14:38:12.172788Z,1029.0,CVPIIDEI,2478,32,Male,DATA_EXPIRED,United States,United States,United States,English,DATA_EXPIRED,DATA_EXPIRED,Not Applicable
63e5257dc5aceb22cee2ddf1,<b>It?s OK to have some conflicting beliefs.,Highly disagree,29/94,Highly agree,4,1708007241579,1708007248940,\Somewhat agree\,\Highly agree\,\3\,1708007245472,1708007246527,3893,4948,7361,buq,qns-item-noham,29,317056,0.0-1.0-0.28,65ce1dc2ae6c37b77f823330,AWAITING REVIEW,2024-02-15T14:21:02.858000Z,2024-02-15T14:38:11.439000Z,,2024-02-15T14:38:12.172788Z,1029.0,CVPIIDEI,2478,32,Male,DATA_EXPIRED,United States,United States,United States,English,DATA_EXPIRED,DATA_EXPIRED,Not Applicable
63e5257dc5aceb22cee2ddf1,<b>Listening to people I disagree with makes my opinions better.,Highly disagree,30/94,Somewhat agree,3,1708007248943,1708007261859,\Somewhat agree\,\Somewhat agree\,\3\,1708007260282,1708007260803,11339,11860,12916,buq,qns-item-noham,30,329974,0.0-1.0-0.29,65ce1dc2ae6c37b77f823330,AWAITING REVIEW,2024-02-15T14:21:02.858000Z,2024-02-15T14:38:11.439000Z,,2024-02-15T14:38:12.172788Z,1029.0,CVPIIDEI,2478,32,Male,DATA_EXPIRED,United States,United States,United States,English,DATA_EXPIRED,DATA_EXPIRED,Not Applicable
63e5257dc5aceb22cee2ddf1,<b>My moral compass sometimes makes it harder to determine what?s true.,Highly disagree,31/94,Somewhat agree,3,1708007261862,1708007269343,\Somewhat agree\,\Somewhat agree\,\3\,1708007267924,1708007267924,6062,6062,7481,buq,qns-item-noham,31,337458,0.0-1.0-0.30,65ce1dc2ae6c37b77f823330,AWAITING REVIEW,2024-02-15T14:21:02.858000Z,2024-02-15T14:38:11.439000Z,,2024-02-15T14:38:12.172788Z,1029.0,CVPIIDEI,2478,32,Male,DATA_EXPIRED,United States,United States,United States,English,DATA_EXPIRED,DATA_EXPIRED,Not Applicable
63e5257dc5aceb22cee2ddf1,<b>Evidence pointing in the wrong direction isn?t really evidence at all.,Highly disagree,32/94,Highly disagree,1,1708007269345,1708007275711,\Highly disagree\,\Highly disagree\,\1\,1708007274377,1708007274377,5032,5032,6366,buq,qns-item-noham,32,343826,0.0-1.0-0.31,65ce1dc2ae6c37b77f823330,AWAITING REVIEW,2024-02-15T14:21:02.858000Z,2024-02-15T14:38:11.439000Z,,2024-02-15T14:38:12.172788Z,1029.0,CVPIIDEI,2478,32,Male,DATA_EXPIRED,United States,United States,United States,English,DATA_EXPIRED,DATA_EXPIRED,Not Applicable
63e5257dc5aceb22cee2ddf1,"<b>If the political party I support messes up, it makes me think politics is rotten.",Highly disagree,33/94,Somewhat agree,3,1708007275713,1708007283329,\Somewhat agree\,\Somewhat agree\,\3\,1708007282480,1708007282480,6767,6767,7616,buq,qns-item-noham,33,351444,0.0-1.0-0.32,65ce1dc2ae6c37b77f823330,AWAITING REVIEW,2024-02-15T14:21:02.858000Z,2024-02-15T14:38:11.439000Z,,2024-02-15T14:38:12.172788Z,1029.0,CVPIIDEI,2478,32,Male,DATA_EXPIRED,United States,United States,United States,English,DATA_EXPIRED,DATA_EXPIRED,Not Applicable
63e5257dc5aceb22cee2ddf1,<b>Lots of important topics can only really be understood by some groups of people.,Highly disagree,34/94,Highly disagree,1,1708007283332,1708007290838,\Highly disagree\,\Highly disagree\,\1\,1708007289673,1708007289673,6341,6341,7506,buq,qns-item-noham,34,358953,0.0-1.0-0.33,65ce1dc2ae6c37b77f823330,AWAITING REVIEW,2024-02-15T14:21:02.858000Z,2024-02-15T14:38:11.439000Z,,2024-02-15T14:38:12.172788Z,1029.0,CVPIIDEI,2478,32,Male,DATA_EXPIRED,United States,United States,United States,English,DATA_EXPIRED,DATA_EXPIRED,Not Applicable
63e5257dc5aceb22cee2ddf1,<b>Having conflicting beliefs means you haven?t thought about them enough.,Highly disagree,35/94,Highly disagree,1,1708007290840,1708007297474,\Highly disagree\,\Highly disagree\,\1\,1708007296309,1708007296309,5469,5469,6634,buq,qns-item-noham,35,365589,0.0-1.0-0.34,65ce1dc2ae6c37b77f823330,AWAITING REVIEW,2024-02-15T14:21:02.858000Z,2024-02-15T14:38:11.439000Z,,2024-02-15T14:38:12.172788Z,1029.0,CVPIIDEI,2478,32,Male,DATA_EXPIRED,United States,United States,United States,English,DATA_EXPIRED,DATA_EXPIRED,Not Applicable
63e5257dc5aceb22cee2ddf1,<b>I do not often change my political opinions.,Highly disagree,36/94,Somewhat disagree,2,1708007297477,1708007306549,\Somewhat agree\,\Somewhat disagree\,\3\,1708007303225,1708007304887,5748,7410,9072,buq,qns-item-noham,36,374664,0.0-1.0-0.35,65ce1dc2ae6c37b77f823330,AWAITING REVIEW,2024-02-15T14:21:02.858000Z,2024-02-15T14:38:11.439000Z,,2024-02-15T14:38:12.172788Z,1029.0,CVPIIDEI,2478,32,Male,DATA_EXPIRED,United States,United States,United States,English,DATA_EXPIRED,DATA_EXPIRED,Not Applicable
63e5257dc5aceb22cee2ddf1,<b>It?s difficult to not have at least some conflicting beliefs.,Highly disagree,37/94,Highly agree,4,1708007306552,1708007315018,\Highly agree\,\Highly agree\,\4\,1708007313029,1708007313029,6477,6477,8466,buq,qns-item-noham,37,383133,0.0-1.0-0.36,65ce1dc2ae6c37b77f823330,AWAITING REVIEW,2024-02-15T14:21:02.858000Z,2024-02-15T14:38:11.439000Z,,2024-02-15T14:38:12.172788Z,1029.0,CVPIIDEI,2478,32,Male,DATA_EXPIRED,United States,United States,United States,English,DATA_EXPIRED,DATA_EXPIRED,Not Applicable
63e5257dc5aceb22cee2ddf1,<b>Wishful thinking causes a lot of problems.,Highly disagree,38/94,Somewhat agree,3,1708007315021,1708007320150,\Somewhat agree\,\Somewhat agree\,\3\,1708007318887,1708007318887,3866,3866,5129,buq,qns-item-noham,38,388265,0.0-1.0-0.37,65ce1dc2ae6c37b77f823330,AWAITING REVIEW,2024-02-15T14:21:02.858000Z,2024-02-15T14:38:11.439000Z,,2024-02-15T14:38:12.172788Z,1029.0,CVPIIDEI,2478,32,Male,DATA_EXPIRED,United States,United States,United States,English,DATA_EXPIRED,DATA_EXPIRED,Not Applicable
63e5257dc5aceb22cee2ddf1,<b>I judge a food item only once I try it many times.,Highly disagree,39/94,Highly disagree,1,1708007320152,1708007329140,\Highly disagree\,\Highly disagree\,\1\,1708007327962,1708007327962,7810,7810,8988,buq,qns-item-noham,39,397255,0.0-1.0-0.38,65ce1dc2ae6c37b77f823330,AWAITING REVIEW,2024-02-15T14:21:02.858000Z,2024-02-15T14:38:11.439000Z,,2024-02-15T14:38:12.172788Z,1029.0,CVPIIDEI,2478,32,Male,DATA_EXPIRED,United States,United States,United States,English,DATA_EXPIRED,DATA_EXPIRED,Not Applicable
63e5257dc5aceb22cee2ddf1,"<b>When a person holds conflicting beliefs, they should really try to figure out what?s wrong.",Highly disagree,40/94,Somewhat agree,3,1708007329143,1708007336892,\Somewhat agree\,\Somewhat agree\,\3\,1708007335411,1708007335411,6268,6268,7749,buq,qns-item-noham,40,405007,0.0-1.0-0.39,65ce1dc2ae6c37b77f823330,AWAITING REVIEW,2024-02-15T14:21:02.858000Z,2024-02-15T14:38:11.439000Z,,2024-02-15T14:38:12.172788Z,1029.0,CVPIIDEI,2478,32,Male,DATA_EXPIRED,United States,United States,United States,English,DATA_EXPIRED,DATA_EXPIRED,Not Applicable
63e5257dc5aceb22cee2ddf1,<b>Knowing what?s important in life is easy.,Highly disagree,41/94,Somewhat disagree,2,1708007336894,1708007344012,\Highly disagree\,\Somewhat disagree\,\1\,1708007341198,1708007343006,4304,6112,7118,buq,qns-item-noham,41,412128,0.0-1.0-0.40,65ce1dc2ae6c37b77f823330,AWAITING REVIEW,2024-02-15T14:21:02.858000Z,2024-02-15T14:38:11.439000Z,,2024-02-15T14:38:12.172788Z,1029.0,CVPIIDEI,2478,32,Male,DATA_EXPIRED,United States,United States,United States,English,DATA_EXPIRED,DATA_EXPIRED,Not Applicable
63e5257dc5aceb22cee2ddf1,<b>I swim across the Atlantic Ocean to get to work every day.,Highly disagree,42/94,Highly disagree,1,1708007344015,1708007350067,\Highly disagree\,\Highly disagree\,\1\,1708007348077,1708007348077,4062,4062,6052,buq,qns-item-noham,42,418182,0.0-1.0-0.41,65ce1dc2ae6c37b77f823330,AWAITING REVIEW,2024-02-15T14:21:02.858000Z,2024-02-15T14:38:11.439000Z,,2024-02-15T14:38:12.172788Z,1029.0,CVPIIDEI,2478,32,Male,DATA_EXPIRED,United States,United States,United States,English,DATA_EXPIRED,DATA_EXPIRED,Not Applicable
63e5257dc5aceb22cee2ddf1,"<b>Sometimes, you just have to ignore evidence that you know is wrong.",Highly disagree,43/94,Somewhat agree,3,1708007350069,1708007360876,\Somewhat agree\,\Somewhat agree\,\3\,1708007356338,1708007356338,6269,6269,10807,buq,qns-item-noham,43,428991,0.0-1.0-0.42,65ce1dc2ae6c37b77f823330,AWAITING REVIEW,2024-02-15T14:21:02.858000Z,2024-02-15T14:38:11.439000Z,,2024-02-15T14:38:12.172788Z,1029.0,CVPIIDEI,2478,32,Male,DATA_EXPIRED,United States,United States,United States,English,DATA_EXPIRED,DATA_EXPIRED,Not Applicable
63e5257dc5aceb22cee2ddf1,<b>I have had some false beliefs.,Highly disagree,44/94,Highly agree,4,1708007360878,1708007367851,\Highly agree\,\Highly agree\,\4\,1708007365121,1708007365121,4243,4243,6973,buq,qns-item-noham,44,435966,0.0-1.0-0.43,65ce1dc2ae6c37b77f823330,AWAITING REVIEW,2024-02-15T14:21:02.858000Z,2024-02-15T14:38:11.439000Z,,2024-02-15T14:38:12.172788Z,1029.0,CVPIIDEI,2478,32,Male,DATA_EXPIRED,United States,United States,United States,English,DATA_EXPIRED,DATA_EXPIRED,Not Applicable
63e5257dc5aceb22cee2ddf1,"<b>If one friend does something that upsets me, I sometimes start to distrust people in general.",Highly disagree,45/94,Somewhat disagree,2,1708007367854,1708007374816,\Somewhat disagree\,\Somewhat disagree\,\2\,1708007373663,1708007373663,5809,5809,6962,buq,qns-item-noham,45,442931,0.0-1.0-0.44,65ce1dc2ae6c37b77f823330,AWAITING REVIEW,2024-02-15T14:21:02.858000Z,2024-02-15T14:38:11.439000Z,,2024-02-15T14:38:12.172788Z,1029.0,CVPIIDEI,2478,32,Male,DATA_EXPIRED,United States,United States,United States,English,DATA_EXPIRED,DATA_EXPIRED,Not Applicable
63e5257dc5aceb22cee2ddf1,<b>The facts about most important matters are easy to find.,Highly disagree,46/94,Somewhat agree,3,1708007374818,1708007380980,\Somewhat agree\,\Somewhat agree\,\3\,1708007379791,1708007379791,4973,4973,6162,buq,qns-item-noham,46,449095,0.0-1.0-0.45,65ce1dc2ae6c37b77f823330,AWAITING REVIEW,2024-02-15T14:21:02.858000Z,2024-02-15T14:38:11.439000Z,,2024-02-15T14:38:12.172788Z,1029.0,CVPIIDEI,2478,32,Male,DATA_EXPIRED,United States,United States,United States,English,DATA_EXPIRED,DATA_EXPIRED,Not Applicable
63e5257dc5aceb22cee2ddf1,<b>It?s better to know what?s true than to know what?s moral.,Highly disagree,47/94,Highly agree,4,1708007380982,1708007388018,\Highly agree\,\Highly agree\,\4\,1708007386258,1708007386258,5276,5276,7036,buq,qns-item-noham,47,456133,0.0-1.0-0.46,65ce1dc2ae6c37b77f823330,AWAITING REVIEW,2024-02-15T14:21:02.858000Z,2024-02-15T14:38:11.439000Z,,2024-02-15T14:38:12.172788Z,1029.0,CVPIIDEI,2478,32,Male,DATA_EXPIRED,United States,United States,United States,English,DATA_EXPIRED,DATA_EXPIRED,Not Applicable
63e5257dc5aceb22cee2ddf1,<b>I used to think the world was less complicated than I do now.,Highly disagree,48/94,Highly agree,4,1708007388020,1708007394593,\Highly agree\,\Highly agree\,\4\,1708007392895,1708007392895,4875,4875,6573,buq,qns-item-noham,48,462708,0.0-1.0-0.47,65ce1dc2ae6c37b77f823330,AWAITING REVIEW,2024-02-15T14:21:02.858000Z,2024-02-15T14:38:11.439000Z,,2024-02-15T14:38:12.172788Z,1029.0,CVPIIDEI,2478,32,Male,DATA_EXPIRED,United States,United States,United States,English,DATA_EXPIRED,DATA_EXPIRED,Not Applicable
63e5257dc5aceb22cee2ddf1,<b>People are usually completely right or completely wrong.,Highly disagree,49/94,Somewhat disagree,2,1708007394596,1708007400138,\Somewhat disagree\,\Somewhat disagree\,\2\,1708007399058,1708007399058,4462,4462,5542,buq,qns-item-noham,49,468253,0.0-1.0-0.48,65ce1dc2ae6c37b77f823330,AWAITING REVIEW,2024-02-15T14:21:02.858000Z,2024-02-15T14:38:11.439000Z,,2024-02-15T14:38:12.172788Z,1029.0,CVPIIDEI,2478,32,Male,DATA_EXPIRED,United States,United States,United States,English,DATA_EXPIRED,DATA_EXPIRED,Not Applicable
63e5257dc5aceb22cee2ddf1,<b>I spend a lot of time considering alternatives to my beliefs.,Highly disagree,50/94,Somewhat disagree,2,1708007400140,1708007406484,\Somewhat disagree\,\Somewhat disagree\,\2\,1708007405562,1708007405562,5422,5422,6344,buq,qns-item-noham,50,474599,0.0-1.0-0.49,65ce1dc2ae6c37b77f823330,AWAITING REVIEW,2024-02-15T14:21:02.858000Z,2024-02-15T14:38:11.439000Z,,2024-02-15T14:38:12.172788Z,1029.0,CVPIIDEI,2478,32,Male,DATA_EXPIRED,United States,United States,United States,English,DATA_EXPIRED,DATA_EXPIRED,Not Applicable
63e5257dc5aceb22cee2ddf1,"<b>Political enemies need to be defeated, not convinced.",Highly disagree,51/94,Somewhat disagree,2,1708007406486,1708007413108,\Somewhat disagree\,\Somewhat disagree\,\2\,1708007412331,1708007412331,5845,5845,6622,buq,qns-item-noham,51,481223,0.0-1.0-0.50,65ce1dc2ae6c37b77f823330,AWAITING REVIEW,2024-02-15T14:21:02.858000Z,2024-02-15T14:38:11.439000Z,,2024-02-15T14:38:12.172788Z,1029.0,CVPIIDEI,2478,32,Male,DATA_EXPIRED,United States,United States,United States,English,DATA_EXPIRED,DATA_EXPIRED,Not Applicable
63e5257dc5aceb22cee2ddf1,<b>I form my political views only after meticulously gathering historical and present information about their policies.,Highly disagree,52/94,Highly disagree,1,1708007413111,1708007421116,\Highly disagree\,\Highly disagree\,\1\,1708007419550,1708007419550,6439,6439,8005,buq,qns-item-noham,52,489231,0.0-1.0-0.51,65ce1dc2ae6c37b77f823330,AWAITING REVIEW,2024-02-15T14:21:02.858000Z,2024-02-15T14:38:11.439000Z,,2024-02-15T14:38:12.172788Z,1029.0,CVPIIDEI,2478,32,Male,DATA_EXPIRED,United States,United States,United States,English,DATA_EXPIRED,DATA_EXPIRED,Not Applicable
63e5257dc5aceb22cee2ddf1,<b>It is difficult for me to remember the last time I was surprised by politics.,Highly disagree,53/94,Highly disagree,1,1708007421119,1708007427644,\Highly disagree\,\Highly disagree\,\1\,1708007425278,1708007425278,4159,4159,6525,buq,qns-item-noham,53,495759,0.0-1.0-0.52,65ce1dc2ae6c37b77f823330,AWAITING REVIEW,2024-02-15T14:21:02.858000Z,2024-02-15T14:38:11.439000Z,,2024-02-15T14:38:12.172788Z,1029.0,CVPIIDEI,2478,32,Male,DATA_EXPIRED,United States,United States,United States,English,DATA_EXPIRED,DATA_EXPIRED,Not Applicable
63e5257dc5aceb22cee2ddf1,"<b>When I find out I?m wrong, I think a lot about my related beliefs.",Highly disagree,54/94,Somewhat agree,3,1708007427646,1708007432861,\Somewhat agree\,\Somewhat agree\,\3\,1708007431926,1708007431926,4280,4280,5215,buq,qns-item-noham,54,500976,0.0-1.0-0.53,65ce1dc2ae6c37b77f823330,AWAITING REVIEW,2024-02-15T14:21:02.858000Z,2024-02-15T14:38:11.439000Z,,2024-02-15T14:38:12.172788Z,1029.0,CVPIIDEI,2478,32,Male,DATA_EXPIRED,United States,United States,United States,English,DATA_EXPIRED,DATA_EXPIRED,Not Applicable
63e5257dc5aceb22cee2ddf1,"<b>If the political party I support messes up, it makes me think you can?t trust anyone these days",Highly disagree,55/94,Somewhat disagree,2,1708007432865,1708007439799,\Somewhat disagree\,\Somewhat disagree\,\2\,1708007437931,1708007437931,5066,5066,6934,buq,qns-item-noham,55,507914,0.0-1.0-0.54,65ce1dc2ae6c37b77f823330,AWAITING REVIEW,2024-02-15T14:21:02.858000Z,2024-02-15T14:38:11.439000Z,,2024-02-15T14:38:12.172788Z,1029.0,CVPIIDEI,2478,32,Male,DATA_EXPIRED,United States,United States,United States,English,DATA_EXPIRED,DATA_EXPIRED,Not Applicable
63e5257dc5aceb22cee2ddf1,<b>People?s brains turn off when they talk about politics.,Highly disagree,56/94,Somewhat agree,3,1708007439802,1708007445731,\Somewhat agree\,\Somewhat agree\,\3\,1708007444372,1708007444372,4570,4570,5929,buq,qns-item-noham,56,513846,0.0-1.0-0.55,65ce1dc2ae6c37b77f823330,AWAITING REVIEW,2024-02-15T14:21:02.858000Z,2024-02-15T14:38:11.439000Z,,2024-02-15T14:38:12.172788Z,1029.0,CVPIIDEI,2478,32,Male,DATA_EXPIRED,United States,United States,United States,English,DATA_EXPIRED,DATA_EXPIRED,Not Applicable
63e5257dc5aceb22cee2ddf1,<b>People who are wrong are usually just ignoring the obvious.,Highly disagree,57/94,Somewhat disagree,2,1708007445733,1708007451784,\Somewhat disagree\,\Somewhat disagree\,\2\,1708007449819,1708007449819,4086,4086,6051,buq,qns-item-noham,57,519899,0.0-1.0-0.56,65ce1dc2ae6c37b77f823330,AWAITING REVIEW,2024-02-15T14:21:02.858000Z,2024-02-15T14:38:11.439000Z,,2024-02-15T14:38:12.172788Z,1029.0,CVPIIDEI,2478,32,Male,DATA_EXPIRED,United States,United States,United States,English,DATA_EXPIRED,DATA_EXPIRED,Not Applicable
63e5257dc5aceb22cee2ddf1,"<b>When forming my views on people, I rely more on what they are like now rather than rely on my past experience with them.",Highly disagree,58/94,Somewhat disagree,2,1708007451787,1708007463916,\Somewhat disagree\,\Somewhat disagree\,\2\,1708007462738,1708007462738,10951,10951,12129,buq,qns-item-noham,58,532031,0.0-1.0-0.57,65ce1dc2ae6c37b77f823330,AWAITING REVIEW,2024-02-15T14:21:02.858000Z,2024-02-15T14:38:11.439000Z,,2024-02-15T14:38:12.172788Z,1029.0,CVPIIDEI,2478,32,Male,DATA_EXPIRED,United States,United States,United States,English,DATA_EXPIRED,DATA_EXPIRED,Not Applicable
63e5257dc5aceb22cee2ddf1,"<b>When people contradict my beliefs, I usually know about their evidence already.",Highly disagree,59/94,Somewhat disagree,2,1708007463918,1708007472262,\Somewhat disagree\,\Somewhat disagree\,\2\,1708007471267,1708007471267,7349,7349,8344,buq,qns-item-noham,59,540377,0.0-1.0-0.58,65ce1dc2ae6c37b77f823330,AWAITING REVIEW,2024-02-15T14:21:02.858000Z,2024-02-15T14:38:11.439000Z,,2024-02-15T14:38:12.172788Z,1029.0,CVPIIDEI,2478,32,Male,DATA_EXPIRED,United States,United States,United States,English,DATA_EXPIRED,DATA_EXPIRED,Not Applicable
63e5257dc5aceb22cee2ddf1,<b>Figuring out what?s true and what?s false mainly requires a strong moral compass.,Highly disagree,60/94,Highly disagree,1,1708007472264,1708007479237,\Highly disagree\,\Highly disagree\,\1\,1708007477672,1708007477672,5408,5408,6973,buq,qns-item-noham,60,547352,0.0-1.0-0.59,65ce1dc2ae6c37b77f823330,AWAITING REVIEW,2024-02-15T14:21:02.858000Z,2024-02-15T14:38:11.439000Z,,2024-02-15T14:38:12.172788Z,1029.0,CVPIIDEI,2478,32,Male,DATA_EXPIRED,United States,United States,United States,English,DATA_EXPIRED,DATA_EXPIRED,Not Applicable
63e5257dc5aceb22cee2ddf1,"<b>Usually I?m wrong about simple things, not complicated ones.",Highly disagree,61/94,Somewhat disagree,2,1708007479239,1708007488203,\Somewhat disagree\,\Somewhat disagree\,\2\,1708007487148,1708007487148,7909,7909,8964,buq,qns-item-noham,61,556318,0.0-1.0-0.60,65ce1dc2ae6c37b77f823330,AWAITING REVIEW,2024-02-15T14:21:02.858000Z,2024-02-15T14:38:11.439000Z,,2024-02-15T14:38:12.172788Z,1029.0,CVPIIDEI,2478,32,Male,DATA_EXPIRED,United States,United States,United States,English,DATA_EXPIRED,DATA_EXPIRED,Not Applicable
63e5257dc5aceb22cee2ddf1,<b>Getting all the information I want about important things is hard.,Highly disagree,62/94,Somewhat agree,3,1708007488205,1708007500737,\Somewhat agree\,\Somewhat agree\,\3\,1708007495107,1708007499693,6902,11488,12532,buq,qns-item-noham,62,568852,0.0-1.0-0.61,65ce1dc2ae6c37b77f823330,AWAITING REVIEW,2024-02-15T14:21:02.858000Z,2024-02-15T14:38:11.439000Z,,2024-02-15T14:38:12.172788Z,1029.0,CVPIIDEI,2478,32,Male,DATA_EXPIRED,United States,United States,United States,English,DATA_EXPIRED,DATA_EXPIRED,Not Applicable
63e5257dc5aceb22cee2ddf1,<b>Most false beliefs spread because people try to deceive one another.,Highly disagree,63/94,Highly agree,4,1708007500739,1708007507022,\Highly agree\,\Highly agree\,\4\,1708007505347,1708007505347,4608,4608,6283,buq,qns-item-noham,63,575137,0.0-1.0-0.62,65ce1dc2ae6c37b77f823330,AWAITING REVIEW,2024-02-15T14:21:02.858000Z,2024-02-15T14:38:11.439000Z,,2024-02-15T14:38:12.172788Z,1029.0,CVPIIDEI,2478,32,Male,DATA_EXPIRED,United States,United States,United States,English,DATA_EXPIRED,DATA_EXPIRED,Not Applicable
63e5257dc5aceb22cee2ddf1,<b>I can usually find something to agree with in most people?s beliefs.,Highly disagree,64/94,Somewhat agree,3,1708007507024,1708007512603,\Somewhat agree\,\Somewhat agree\,\3\,1708007511608,1708007511608,4584,4584,5579,buq,qns-item-noham,64,580719,0.0-1.0-0.63,65ce1dc2ae6c37b77f823330,AWAITING REVIEW,2024-02-15T14:21:02.858000Z,2024-02-15T14:38:11.439000Z,,2024-02-15T14:38:12.172788Z,1029.0,CVPIIDEI,2478,32,Male,DATA_EXPIRED,United States,United States,United States,English,DATA_EXPIRED,DATA_EXPIRED,Not Applicable
63e5257dc5aceb22cee2ddf1,<b>I only form my views of people once I get to know them very well.,Highly disagree,65/94,Somewhat disagree,2,1708007512607,1708007518342,\Somewhat disagree\,\Somewhat disagree\,\2\,1708007517287,1708007517287,4680,4680,5735,buq,qns-item-noham,65,586457,0.0-1.0-0.64,65ce1dc2ae6c37b77f823330,AWAITING REVIEW,2024-02-15T14:21:02.858000Z,2024-02-15T14:38:11.439000Z,,2024-02-15T14:38:12.172788Z,1029.0,CVPIIDEI,2478,32,Male,DATA_EXPIRED,United States,United States,United States,English,DATA_EXPIRED,DATA_EXPIRED,Not Applicable
63e5257dc5aceb22cee2ddf1,"<b>When people tell me important things about the world, I usually believe them.",Highly disagree,66/94,Somewhat agree,3,1708007518345,1708007525149,\Somewhat agree\,\Somewhat agree\,\3\,1708007524311,1708007524311,5966,5966,6804,buq,qns-item-noham,66,593264,0.0-1.0-0.65,65ce1dc2ae6c37b77f823330,AWAITING REVIEW,2024-02-15T14:21:02.858000Z,2024-02-15T14:38:11.439000Z,,2024-02-15T14:38:12.172788Z,1029.0,CVPIIDEI,2478,32,Male,DATA_EXPIRED,United States,United States,United States,English,DATA_EXPIRED,DATA_EXPIRED,Not Applicable
63e5257dc5aceb22cee2ddf1,"<b>If a friend does something that upsets me, it reminds me what an unpredictable place the world is.",Highly disagree,67/94,Highly disagree,1,1708007525151,1708007533870,\Highly disagree\,\Highly disagree\,\1\,1708007531807,1708007531807,6656,6656,8719,buq,qns-item-noham,67,601985,0.0-1.0-0.66,65ce1dc2ae6c37b77f823330,AWAITING REVIEW,2024-02-15T14:21:02.858000Z,2024-02-15T14:38:11.439000Z,,2024-02-15T14:38:12.172788Z,1029.0,CVPIIDEI,2478,32,Male,DATA_EXPIRED,United States,United States,United States,English,DATA_EXPIRED,DATA_EXPIRED,Not Applicable
63e5257dc5aceb22cee2ddf1,<b>People tend to believe whatever is good for their friends.,Highly disagree,68/94,Somewhat disagree,2,1708007533872,1708007540069,\Somewhat disagree\,\Somewhat disagree\,\2\,1708007538965,1708007538965,5093,5093,6197,buq,qns-item-noham,68,608184,0.0-1.0-0.67,65ce1dc2ae6c37b77f823330,AWAITING REVIEW,2024-02-15T14:21:02.858000Z,2024-02-15T14:38:11.439000Z,,2024-02-15T14:38:12.172788Z,1029.0,CVPIIDEI,2478,32,Male,DATA_EXPIRED,United States,United States,United States,English,DATA_EXPIRED,DATA_EXPIRED,Not Applicable
63e5257dc5aceb22cee2ddf1,<b>I used to be more certain my beliefs were true.,Highly disagree,69/94,Somewhat disagree,2,1708007540072,1708007545346,\Somewhat disagree\,\Somewhat disagree\,\2\,1708007543648,1708007543648,3576,3576,5274,buq,qns-item-noham,69,613461,0.0-1.0-0.68,65ce1dc2ae6c37b77f823330,AWAITING REVIEW,2024-02-15T14:21:02.858000Z,2024-02-15T14:38:11.439000Z,,2024-02-15T14:38:12.172788Z,1029.0,CVPIIDEI,2478,32,Male,DATA_EXPIRED,United States,United States,United States,English,DATA_EXPIRED,DATA_EXPIRED,Not Applicable
63e5257dc5aceb22cee2ddf1,<b>It?s often pretty easy to figure out whether something is true based on who said it.,Highly disagree,70/94,Somewhat disagree,2,1708007545349,1708007553414,\Somewhat disagree\,\Somewhat disagree\,\2\,1708007552673,1708007552673,7324,7324,8065,buq,qns-item-noham,70,621529,0.0-1.0-0.69,65ce1dc2ae6c37b77f823330,AWAITING REVIEW,2024-02-15T14:21:02.858000Z,2024-02-15T14:38:11.439000Z,,2024-02-15T14:38:12.172788Z,1029.0,CVPIIDEI,2478,32,Male,DATA_EXPIRED,United States,United States,United States,English,DATA_EXPIRED,DATA_EXPIRED,Not Applicable
63e5257dc5aceb22cee2ddf1,<b>I transform into a hummingbird every day.,Highly disagree,71/94,Highly disagree,1,1708007553418,1708007558386,\Highly disagree\,\Highly disagree\,\1\,1708007556616,1708007556616,3198,3198,4968,buq,qns-item-noham,71,626501,0.0-1.0-0.70,65ce1dc2ae6c37b77f823330,AWAITING REVIEW,2024-02-15T14:21:02.858000Z,2024-02-15T14:38:11.439000Z,,2024-02-15T14:38:12.172788Z,1029.0,CVPIIDEI,2478,32,Male,DATA_EXPIRED,United States,United States,United States,English,DATA_EXPIRED,DATA_EXPIRED,Not Applicable
63e5257dc5aceb22cee2ddf1,<b>I think a lot about arguments against my views.,Highly disagree,72/94,Somewhat disagree,2,1708007558389,1708007564828,\Somewhat disagree\,\Somewhat disagree\,\2\,1708007563360,1708007563360,4971,4971,6439,buq,qns-item-noham,72,632943,0.0-1.0-0.71,65ce1dc2ae6c37b77f823330,AWAITING REVIEW,2024-02-15T14:21:02.858000Z,2024-02-15T14:38:11.439000Z,,2024-02-15T14:38:12.172788Z,1029.0,CVPIIDEI,2478,32,Male,DATA_EXPIRED,United States,United States,United States,English,DATA_EXPIRED,DATA_EXPIRED,Not Applicable
63e5257dc5aceb22cee2ddf1,<b>Personal experience is usually more important than facts and figures.,Highly disagree,73/94,Somewhat disagree,2,1708007564829,1708007573392,\Somewhat disagree\,\Somewhat disagree\,\2\,1708007571608,1708007571608,6779,6779,8563,buq,qns-item-noham,73,641507,0.0-1.0-0.72,65ce1dc2ae6c37b77f823330,AWAITING REVIEW,2024-02-15T14:21:02.858000Z,2024-02-15T14:38:11.439000Z,,2024-02-15T14:38:12.172788Z,1029.0,CVPIIDEI,2478,32,Male,DATA_EXPIRED,United States,United States,United States,English,DATA_EXPIRED,DATA_EXPIRED,Not Applicable
63e5257dc5aceb22cee2ddf1,<b>I?ve been tricked before about important matters.,Highly disagree,74/94,Somewhat agree,3,1708007573394,1708007581640,\Somewhat agree\,\Somewhat agree\,\3\,1708007580015,1708007580015,6621,6621,8246,buq,qns-item-noham,74,649755,0.0-1.0-0.73,65ce1dc2ae6c37b77f823330,AWAITING REVIEW,2024-02-15T14:21:02.858000Z,2024-02-15T14:38:11.439000Z,,2024-02-15T14:38:12.172788Z,1029.0,CVPIIDEI,2478,32,Male,DATA_EXPIRED,United States,United States,United States,English,DATA_EXPIRED,DATA_EXPIRED,Not Applicable
63e5257dc5aceb22cee2ddf1,<b>I would need to be totally wowed if I were to change my opinion of a restaurant I don?t like.,Highly disagree,75/94,Somewhat disagree,2,1708007581642,1708007590544,\Somewhat disagree\,\Somewhat disagree\,\2\,1708007589378,1708007589378,7736,7736,8902,buq,qns-item-noham,75,658659,0.0-1.0-0.74,65ce1dc2ae6c37b77f823330,AWAITING REVIEW,2024-02-15T14:21:02.858000Z,2024-02-15T14:38:11.439000Z,,2024-02-15T14:38:12.172788Z,1029.0,CVPIIDEI,2478,32,Male,DATA_EXPIRED,United States,United States,United States,English,DATA_EXPIRED,DATA_EXPIRED,Not Applicable
63e5257dc5aceb22cee2ddf1,<b>I care a lot about politics.,Highly disagree,76/94,Somewhat disagree,2,1708007590546,1708007597859,\Somewhat disagree\,\Somewhat disagree\,\2\,1708007596293,1708007596293,5747,5747,7313,buq,qns-item-noham,76,665974,0.0-1.0-0.75,65ce1dc2ae6c37b77f823330,AWAITING REVIEW,2024-02-15T14:21:02.858000Z,2024-02-15T14:38:11.439000Z,,2024-02-15T14:38:12.172788Z,1029.0,CVPIIDEI,2478,32,Male,DATA_EXPIRED,United States,United States,United States,English,DATA_EXPIRED,DATA_EXPIRED,Not Applicable
63e5257dc5aceb22cee2ddf1,<b>There are some topics I?ve been really wrong about.,Highly disagree,77/94,Highly agree,4,1708007597862,1708007603826,\Highly agree\,\Highly agree\,\4\,1708007602662,1708007602662,4800,4800,5964,buq,qns-item-noham,77,671941,0.0-1.0-0.76,65ce1dc2ae6c37b77f823330,AWAITING REVIEW,2024-02-15T14:21:02.858000Z,2024-02-15T14:38:11.439000Z,,2024-02-15T14:38:12.172788Z,1029.0,CVPIIDEI,2478,32,Male,DATA_EXPIRED,United States,United States,United States,English,DATA_EXPIRED,DATA_EXPIRED,Not Applicable
63e5257dc5aceb22cee2ddf1,<b>Most beliefs can be supported with at least some evidence.,Highly disagree,78/94,Somewhat agree,3,1708007603829,1708007612294,\Somewhat agree\,\Somewhat agree\,\3\,1708007609030,1708007609030,5201,5201,8465,buq,qns-item-noham,78,680409,0.0-1.0-0.77,65ce1dc2ae6c37b77f823330,AWAITING REVIEW,2024-02-15T14:21:02.858000Z,2024-02-15T14:38:11.439000Z,,2024-02-15T14:38:12.172788Z,1029.0,CVPIIDEI,2478,32,Male,DATA_EXPIRED,United States,United States,United States,English,DATA_EXPIRED,DATA_EXPIRED,Not Applicable
63e5257dc5aceb22cee2ddf1,<b>Other people make life out to be more complicated than it really is.,Highly disagree,79/94,Somewhat disagree,2,1708007612296,1708007620057,\Somewhat disagree\,\Somewhat disagree\,\2\,1708007617024,1708007617024,4728,4728,7761,buq,qns-item-noham,79,688172,0.0-1.0-0.78,65ce1dc2ae6c37b77f823330,AWAITING REVIEW,2024-02-15T14:21:02.858000Z,2024-02-15T14:38:11.439000Z,,2024-02-15T14:38:12.172788Z,1029.0,CVPIIDEI,2478,32,Male,DATA_EXPIRED,United States,United States,United States,English,DATA_EXPIRED,DATA_EXPIRED,Not Applicable
63e5257dc5aceb22cee2ddf1,"<b>Policy details don?t matter much, just the big picture.",Highly disagree,80/94,Highly disagree,1,1708007620059,1708007625758,\Highly disagree\,\Highly disagree\,\1\,1708007624800,1708007624800,4741,4741,5699,buq,qns-item-noham,80,693873,0.0-1.0-0.79,65ce1dc2ae6c37b77f823330,AWAITING REVIEW,2024-02-15T14:21:02.858000Z,2024-02-15T14:38:11.439000Z,,2024-02-15T14:38:12.172788Z,1029.0,CVPIIDEI,2478,32,Male,DATA_EXPIRED,United States,United States,United States,English,DATA_EXPIRED,DATA_EXPIRED,Not Applicable
63e5257dc5aceb22cee2ddf1,<b>I know my friends so well they can hardly ever surprise me.,Highly disagree,81/94,Somewhat disagree,2,1708007625761,1708007636652,\Somewhat agree\,\Somewhat disagree\,\3\,1708007629967,1708007635698,4206,9937,10891,buq,qns-item-noham,81,704767,0.0-1.0-0.80,65ce1dc2ae6c37b77f823330,AWAITING REVIEW,2024-02-15T14:21:02.858000Z,2024-02-15T14:38:11.439000Z,,2024-02-15T14:38:12.172788Z,1029.0,CVPIIDEI,2478,32,Male,DATA_EXPIRED,United States,United States,United States,English,DATA_EXPIRED,DATA_EXPIRED,Not Applicable
63e5257dc5aceb22cee2ddf1,<b>I do not often change my views on people.,Highly disagree,82/94,Somewhat agree,3,1708007636654,1708007642680,\Somewhat agree\,\Somewhat agree\,\3\,1708007640945,1708007640945,4291,4291,6026,buq,qns-item-noham,82,710796,0.0-1.0-0.81,65ce1dc2ae6c37b77f823330,AWAITING REVIEW,2024-02-15T14:21:02.858000Z,2024-02-15T14:38:11.439000Z,,2024-02-15T14:38:12.172788Z,1029.0,CVPIIDEI,2478,32,Male,DATA_EXPIRED,United States,United States,United States,English,DATA_EXPIRED,DATA_EXPIRED,Not Applicable
63e5257dc5aceb22cee2ddf1,<b>I?m more certain about my beliefs than I used to be.,Highly disagree,83/94,Somewhat agree,3,1708007642684,1708007647618,\Somewhat agree\,\Somewhat agree\,\3\,1708007646320,1708007646320,3636,3636,4934,buq,qns-item-noham,83,715733,0.0-1.0-0.82,65ce1dc2ae6c37b77f823330,AWAITING REVIEW,2024-02-15T14:21:02.858000Z,2024-02-15T14:38:11.439000Z,,2024-02-15T14:38:12.172788Z,1029.0,CVPIIDEI,2478,32,Male,DATA_EXPIRED,United States,United States,United States,English,DATA_EXPIRED,DATA_EXPIRED,Not Applicable
63e5257dc5aceb22cee2ddf1,<b>People often tell falsehoods unintentionally.,Highly disagree,84/94,Somewhat disagree,2,1708007647620,1708007655432,\Somewhat disagree\,\Somewhat disagree\,\2\,1708007652994,1708007652994,5374,5374,7812,buq,qns-item-noham,84,723547,0.0-1.0-0.83,65ce1dc2ae6c37b77f823330,AWAITING REVIEW,2024-02-15T14:21:02.858000Z,2024-02-15T14:38:11.439000Z,,2024-02-15T14:38:12.172788Z,1029.0,CVPIIDEI,2478,32,Male,DATA_EXPIRED,United States,United States,United States,English,DATA_EXPIRED,DATA_EXPIRED,Not Applicable
63e5257dc5aceb22cee2ddf1,<b>Most people don?t know much about most things.,Highly disagree,85/94,Somewhat agree,3,1708007655435,1708007660465,\Somewhat agree\,\Somewhat agree\,\3\,1708007659617,1708007659617,4182,4182,5030,buq,qns-item-noham,85,728580,0.0-1.0-0.84,65ce1dc2ae6c37b77f823330,AWAITING REVIEW,2024-02-15T14:21:02.858000Z,2024-02-15T14:38:11.439000Z,,2024-02-15T14:38:12.172788Z,1029.0,CVPIIDEI,2478,32,Male,DATA_EXPIRED,United States,United States,United States,English,DATA_EXPIRED,DATA_EXPIRED,Not Applicable
63e5257dc5aceb22cee2ddf1,"<b>If I find out something new about someone, I easily change my views about them.",Highly disagree,86/94,Somewhat agree,3,1708007660469,1708007668387,\Somewhat agree\,\Somewhat agree\,\3\,1708007667646,1708007667646,7177,7177,7918,buq,qns-item-noham,86,736502,0.0-1.0-0.85,65ce1dc2ae6c37b77f823330,AWAITING REVIEW,2024-02-15T14:21:02.858000Z,2024-02-15T14:38:11.439000Z,,2024-02-15T14:38:12.172788Z,1029.0,CVPIIDEI,2478,32,Male,DATA_EXPIRED,United States,United States,United States,English,DATA_EXPIRED,DATA_EXPIRED,Not Applicable
63e5257dc5aceb22cee2ddf1,<b>Having true beliefs is difficult.,Highly disagree,87/94,Highly disagree,1,1708007668390,1708007675629,\Highly disagree\,\Highly disagree\,\1\,1708007671588,1708007671588,3198,3198,7239,buq,qns-item-noham,87,743744,0.0-1.0-0.86,65ce1dc2ae6c37b77f823330,AWAITING REVIEW,2024-02-15T14:21:02.858000Z,2024-02-15T14:38:11.439000Z,,2024-02-15T14:38:12.172788Z,1029.0,CVPIIDEI,2478,32,Male,DATA_EXPIRED,United States,United States,United States,English,DATA_EXPIRED,DATA_EXPIRED,Not Applicable
63e5257dc5aceb22cee2ddf1,<b>I don?t try new foods since I know I won?t like them.,Highly disagree,88/94,Highly disagree,1,1708007675632,1708007681900,\Highly disagree\,\Highly disagree\,\1\,1708007680881,1708007680881,5249,5249,6268,buq,qns-item-noham,88,750015,0.0-1.0-0.87,65ce1dc2ae6c37b77f823330,AWAITING REVIEW,2024-02-15T14:21:02.858000Z,2024-02-15T14:38:11.439000Z,,2024-02-15T14:38:12.172788Z,1029.0,CVPIIDEI,2478,32,Male,DATA_EXPIRED,United States,United States,United States,English,DATA_EXPIRED,DATA_EXPIRED,Not Applicable
63e5257dc5aceb22cee2ddf1,<b>Other people trick each other a lot.,Highly disagree,89/94,Somewhat disagree,2,1708007681903,1708007688050,\Somewhat disagree\,\Somewhat disagree\,\2\,1708007685928,1708007685928,4025,4025,6147,buq,qns-item-noham,89,756165,0.0-1.0-0.88,65ce1dc2ae6c37b77f823330,AWAITING REVIEW,2024-02-15T14:21:02.858000Z,2024-02-15T14:38:11.439000Z,,2024-02-15T14:38:12.172788Z,1029.0,CVPIIDEI,2478,32,Male,DATA_EXPIRED,United States,United States,United States,English,DATA_EXPIRED,DATA_EXPIRED,Not Applicable
63e5257dc5aceb22cee2ddf1,<b>I would need to learn a lot about a person for my opinion of them to be swayed.,Highly disagree,90/94,Somewhat disagree,2,1708007688053,1708007695074,\Somewhat disagree\,\Somewhat disagree\,\2\,1708007693253,1708007693253,5200,5200,7021,buq,qns-item-noham,90,763189,0.0-1.0-0.89,65ce1dc2ae6c37b77f823330,AWAITING REVIEW,2024-02-15T14:21:02.858000Z,2024-02-15T14:38:11.439000Z,,2024-02-15T14:38:12.172788Z,1029.0,CVPIIDEI,2478,32,Male,DATA_EXPIRED,United States,United States,United States,English,DATA_EXPIRED,DATA_EXPIRED,Not Applicable
63e5257dc5aceb22cee2ddf1,<b>People can?t usually trick me when it comes to topics I care about.,Highly disagree,91/94,Somewhat agree,3,1708007695076,1708007704450,\Highly agree\,\Somewhat agree\,\4\,1708007701186,1708007703286,6110,8210,9374,buq,qns-item-noham,91,772565,0.0-1.0-0.90,65ce1dc2ae6c37b77f823330,AWAITING REVIEW,2024-02-15T14:21:02.858000Z,2024-02-15T14:38:11.439000Z,,2024-02-15T14:38:12.172788Z,1029.0,CVPIIDEI,2478,32,Male,DATA_EXPIRED,United States,United States,United States,English,DATA_EXPIRED,DATA_EXPIRED,Not Applicable
63e5257dc5aceb22cee2ddf1,<b>I do not often change my views on food.,Highly disagree,92/94,Somewhat disagree,2,1708007704453,1708007710649,\Somewhat disagree\,\Somewhat disagree\,\2\,1708007708793,1708007708793,4340,4340,6196,buq,qns-item-noham,92,778764,0.0-1.0-0.91,65ce1dc2ae6c37b77f823330,AWAITING REVIEW,2024-02-15T14:21:02.858000Z,2024-02-15T14:38:11.439000Z,,2024-02-15T14:38:12.172788Z,1029.0,CVPIIDEI,2478,32,Male,DATA_EXPIRED,United States,United States,United States,English,DATA_EXPIRED,DATA_EXPIRED,Not Applicable
63e5257dc5aceb22cee2ddf1,<b>Specific policies are often very important to me.,Highly disagree,93/94,Somewhat agree,3,1708007710651,1708007719747,\Highly agree\,\Somewhat agree\,\4\,1708007718037,1708007718970,7386,8319,9096,buq,qns-item-noham,93,787862,0.0-1.0-0.92,65ce1dc2ae6c37b77f823330,AWAITING REVIEW,2024-02-15T14:21:02.858000Z,2024-02-15T14:38:11.439000Z,,2024-02-15T14:38:12.172788Z,1029.0,CVPIIDEI,2478,32,Male,DATA_EXPIRED,United States,United States,United States,English,DATA_EXPIRED,DATA_EXPIRED,Not Applicable
63e5257dc5aceb22cee2ddf1,<b>Most people are woefully under-informed.,Highly disagree,94/94,Somewhat agree,3,1708007719749,1708007728093,\Somewhat agree\,\Somewhat agree\,\3\,1708007726722,1708007726722,6973,6973,8344,buq,qns-item-noham,94,796208,0.0-1.0-0.93,65ce1dc2ae6c37b77f823330,AWAITING REVIEW,2024-02-15T14:21:02.858000Z,2024-02-15T14:38:11.439000Z,,2024-02-15T14:38:12.172788Z,1029.0,CVPIIDEI,2478,32,Male,DATA_EXPIRED,United States,United States,United States,English,DATA_EXPIRED,DATA_EXPIRED,Not Applicable
63e5257dc5aceb22cee2ddf1,,,,,,,,,,,,,,,,,,,,,65ce1dc2ae6c37b77f823330,AWAITING REVIEW,2024-02-15T14:21:02.858000Z,2024-02-15T14:38:11.439000Z,,2024-02-15T14:38:12.172788Z,1029.0,CVPIIDEI,2478,32,Male,DATA_EXPIRED,United States,United States,United States,English,DATA_EXPIRED,DATA_EXPIRED,Not Applicable
