PROLIFIC_PID,Question,qns_options,quest_num,answer,answer_num,question_load_timestamp,next_btn_timestamp,text_selected,final_text_selected,option_num_selected,preview_timestamps,final_text_selected_time_stamp,rt_first_option_click,rt_final_option_click,rt_submit_click,questionnaire,trial_type,trial_index,time_elapsed,internal_node_id,Demographic_Submission id,Demographic_Status,Demographic_Started at,Demographic_Completed at,Demographic_Reviewed at,Demographic_Archived at,Demographic_Time taken,Demographic_Completion code,Demographic_Total approvals,Demographic_Age,Demographic_Sex,Demographic_Ethnicity simplified,Demographic_Country of birth,Demographic_Country of residence,Demographic_Nationality,Demographic_Language,Demographic_Student status,Demographic_Employment status,Demographic_Custom study tncs accepted at
63e5242d0f2f6cbb94a848d8,<b>Knowing what?s true and knowing what to do about it are usually basically the same.,Highly disagree,1/94,Somewhat agree,3,1708006935806,1708006946176,\Somewhat agree\,\Somewhat agree\,\3\,1708006945047,1708006945047,9241,9241,10370,buq,qns-item-noham,1,61982,0.0-1.0-0.0,65ce1d96a8f481886a611196,AWAITING REVIEW,2024-02-15T14:20:14.190000Z,2024-02-15T14:50:09.653000Z,,2024-02-15T14:50:10.236287Z,1796.0,CVPIIDEI,723,27,Female,White,United States,United States,United States,English,No,Part-Time,Not Applicable
63e5242d0f2f6cbb94a848d8,<b>Most people just believe whatever is convenient for them.,Highly disagree,2/94,Somewhat agree,3,1708006946187,1708006950195,\Somewhat agree\,\Somewhat agree\,\3\,1708006949610,1708006949610,3423,3423,4008,buq,qns-item-noham,2,66001,0.0-1.0-0.1,65ce1d96a8f481886a611196,AWAITING REVIEW,2024-02-15T14:20:14.190000Z,2024-02-15T14:50:09.653000Z,,2024-02-15T14:50:10.236287Z,1796.0,CVPIIDEI,723,27,Female,White,United States,United States,United States,English,No,Part-Time,Not Applicable
63e5242d0f2f6cbb94a848d8,<b>Having some big beliefs helps me sort out minor ones.,Highly disagree,3/94,Somewhat agree,3,1708006950197,1708006965875,\Somewhat agree\,\Somewhat agree\,\3\,1708006964774,1708006964774,14577,14577,15678,buq,qns-item-noham,3,81681,0.0-1.0-0.2,65ce1d96a8f481886a611196,AWAITING REVIEW,2024-02-15T14:20:14.190000Z,2024-02-15T14:50:09.653000Z,,2024-02-15T14:50:10.236287Z,1796.0,CVPIIDEI,723,27,Female,White,United States,United States,United States,English,No,Part-Time,Not Applicable
63e5242d0f2f6cbb94a848d8,<b>Political questions are usually pretty complicated.,Highly disagree,4/94,Somewhat agree,3,1708006965878,1708006970770,\Somewhat agree\,\Somewhat agree\,\3\,1708006970191,1708006970191,4313,4313,4892,buq,qns-item-noham,4,86576,0.0-1.0-0.3,65ce1d96a8f481886a611196,AWAITING REVIEW,2024-02-15T14:20:14.190000Z,2024-02-15T14:50:09.653000Z,,2024-02-15T14:50:10.236287Z,1796.0,CVPIIDEI,723,27,Female,White,United States,United States,United States,English,No,Part-Time,Not Applicable
63e5242d0f2f6cbb94a848d8,<b>Figuring out what?s important in life requires learning a lot of facts.,Highly disagree,5/94,Somewhat agree,3,1708006970774,1708006974297,\Highly agree\,\Somewhat agree\,\4\,1708006973012,1708006973732,2238,2958,3523,buq,qns-item-noham,5,90103,0.0-1.0-0.4,65ce1d96a8f481886a611196,AWAITING REVIEW,2024-02-15T14:20:14.190000Z,2024-02-15T14:50:09.653000Z,,2024-02-15T14:50:10.236287Z,1796.0,CVPIIDEI,723,27,Female,White,United States,United States,United States,English,No,Part-Time,Not Applicable
63e5242d0f2f6cbb94a848d8,<b>It is difficult for me to remember the last time I was surprised by politics.,Highly disagree,6/94,Somewhat disagree,2,1708006974300,1708007015096,\Somewhat disagree\,\Somewhat disagree\,\2\,1708007014080,1708007014080,39780,39780,40796,buq,qns-item-noham,6,130902,0.0-1.0-0.5,65ce1d96a8f481886a611196,AWAITING REVIEW,2024-02-15T14:20:14.190000Z,2024-02-15T14:50:09.653000Z,,2024-02-15T14:50:10.236287Z,1796.0,CVPIIDEI,723,27,Female,White,United States,United States,United States,English,No,Part-Time,Not Applicable
63e5242d0f2f6cbb94a848d8,<b>People?s false beliefs are understandable.,Highly disagree,7/94,Somewhat agree,3,1708007015100,1708007018208,\Somewhat agree\,\Somewhat agree\,\3\,1708007017615,1708007017615,2515,2515,3108,buq,qns-item-noham,7,134014,0.0-1.0-0.6,65ce1d96a8f481886a611196,AWAITING REVIEW,2024-02-15T14:20:14.190000Z,2024-02-15T14:50:09.653000Z,,2024-02-15T14:50:10.236287Z,1796.0,CVPIIDEI,723,27,Female,White,United States,United States,United States,English,No,Part-Time,Not Applicable
63e5242d0f2f6cbb94a848d8,<b>I spend a lot of time trying to be informed about politics.,Highly disagree,8/94,Somewhat disagree,2,1708007018211,1708007021340,\Somewhat disagree\,\Somewhat disagree\,\2\,1708007020698,1708007020698,2487,2487,3129,buq,qns-item-noham,8,137146,0.0-1.0-0.7,65ce1d96a8f481886a611196,AWAITING REVIEW,2024-02-15T14:20:14.190000Z,2024-02-15T14:50:09.653000Z,,2024-02-15T14:50:10.236287Z,1796.0,CVPIIDEI,723,27,Female,White,United States,United States,United States,English,No,Part-Time,Not Applicable
63e5242d0f2f6cbb94a848d8,<b>I think a lot about whether my beliefs are right.,Highly disagree,9/94,Highly agree,4,1708007021341,1708007039897,\Highly agree\,\Highly agree\,\4\,1708007039050,1708007039050,17709,17709,18556,buq,qns-item-noham,9,155703,0.0-1.0-0.8,65ce1d96a8f481886a611196,AWAITING REVIEW,2024-02-15T14:20:14.190000Z,2024-02-15T14:50:09.653000Z,,2024-02-15T14:50:10.236287Z,1796.0,CVPIIDEI,723,27,Female,White,United States,United States,United States,English,No,Part-Time,Not Applicable
63e5242d0f2f6cbb94a848d8,<b>Statistics can be pretty misleading sometimes.,Highly disagree,10/94,Somewhat agree,3,1708007039900,1708007049652,\Somewhat agree\,\Somewhat agree\,\3\,1708007048827,1708007048827,8927,8927,9752,buq,qns-item-noham,10,165458,0.0-1.0-0.9,65ce1d96a8f481886a611196,AWAITING REVIEW,2024-02-15T14:20:14.190000Z,2024-02-15T14:50:09.653000Z,,2024-02-15T14:50:10.236287Z,1796.0,CVPIIDEI,723,27,Female,White,United States,United States,United States,English,No,Part-Time,Not Applicable
63e5242d0f2f6cbb94a848d8,<b>I have lots of beliefs that I?m only sort of sure about.,Highly disagree,11/94,Somewhat agree,3,1708007049654,1708007062401,\Somewhat agree\,\Somewhat agree\,\3\,1708007061702,1708007061702,12048,12048,12747,buq,qns-item-noham,11,178207,0.0-1.0-0.10,65ce1d96a8f481886a611196,AWAITING REVIEW,2024-02-15T14:20:14.190000Z,2024-02-15T14:50:09.653000Z,,2024-02-15T14:50:10.236287Z,1796.0,CVPIIDEI,723,27,Female,White,United States,United States,United States,English,No,Part-Time,Not Applicable
63e5242d0f2f6cbb94a848d8,"<b>If I go to my favorite restaurant and the food is surprisingly bad, it reminds me there are many disappointments in life.",Highly disagree,12/94,Somewhat disagree,2,1708007062404,1708007142172,\Somewhat disagree\,\Somewhat disagree\,\2\,1708007141163,1708007141163,78759,78759,79768,buq,qns-item-noham,12,257978,0.0-1.0-0.11,65ce1d96a8f481886a611196,AWAITING REVIEW,2024-02-15T14:20:14.190000Z,2024-02-15T14:50:09.653000Z,,2024-02-15T14:50:10.236287Z,1796.0,CVPIIDEI,723,27,Female,White,United States,United States,United States,English,No,Part-Time,Not Applicable
63e5242d0f2f6cbb94a848d8,"<b>If you are paying attention, please select ?Somewhat agree?",Highly disagree,13/94,Somewhat agree,3,1708007142173,1708007148549,\Somewhat agree\,\Somewhat agree\,\3\,1708007146143,1708007146143,3970,3970,6376,buq,qns-item-noham,13,264355,0.0-1.0-0.12,65ce1d96a8f481886a611196,AWAITING REVIEW,2024-02-15T14:20:14.190000Z,2024-02-15T14:50:09.653000Z,,2024-02-15T14:50:10.236287Z,1796.0,CVPIIDEI,723,27,Female,White,United States,United States,United States,English,No,Part-Time,Not Applicable
63e5242d0f2f6cbb94a848d8,"<b>When I talk to others, I often worry I?ll convince them of something I didn?t mean to.",Highly disagree,14/94,Somewhat agree,3,1708007148551,1708007165153,\Somewhat agree\,\Somewhat agree\,\3\,1708007164243,1708007164243,15692,15692,16602,buq,qns-item-noham,14,280959,0.0-1.0-0.13,65ce1d96a8f481886a611196,AWAITING REVIEW,2024-02-15T14:20:14.190000Z,2024-02-15T14:50:09.653000Z,,2024-02-15T14:50:10.236287Z,1796.0,CVPIIDEI,723,27,Female,White,United States,United States,United States,English,No,Part-Time,Not Applicable
63e5242d0f2f6cbb94a848d8,<b>I would need to learn something utterly shocking about my party in order to change my political views.,Highly disagree,15/94,Somewhat agree,3,1708007165155,1708007169966,\Somewhat agree\,\Somewhat agree\,\3\,1708007169272,1708007169272,4117,4117,4811,buq,qns-item-noham,15,285772,0.0-1.0-0.14,65ce1d96a8f481886a611196,AWAITING REVIEW,2024-02-15T14:20:14.190000Z,2024-02-15T14:50:09.653000Z,,2024-02-15T14:50:10.236287Z,1796.0,CVPIIDEI,723,27,Female,White,United States,United States,United States,English,No,Part-Time,Not Applicable
63e5242d0f2f6cbb94a848d8,"<b>When I have new experiences, I tend to think of them as unique.",Highly disagree,16/94,Somewhat agree,3,1708007169968,1708007192657,\Somewhat agree\,\Somewhat agree\,\3\,1708007191916,1708007191916,21948,21948,22689,buq,qns-item-noham,16,308463,0.0-1.0-0.15,65ce1d96a8f481886a611196,AWAITING REVIEW,2024-02-15T14:20:14.190000Z,2024-02-15T14:50:09.653000Z,,2024-02-15T14:50:10.236287Z,1796.0,CVPIIDEI,723,27,Female,White,United States,United States,United States,English,No,Part-Time,Not Applicable
63e5242d0f2f6cbb94a848d8,<b>I change my mind about specific policies pretty frequently.,Highly disagree,17/94,Somewhat disagree,2,1708007192659,1708007196219,\Somewhat agree\,\Somewhat disagree\,\3\,1708007195337,1708007195643,2678,2984,3560,buq,qns-item-noham,17,312025,0.0-1.0-0.16,65ce1d96a8f481886a611196,AWAITING REVIEW,2024-02-15T14:20:14.190000Z,2024-02-15T14:50:09.653000Z,,2024-02-15T14:50:10.236287Z,1796.0,CVPIIDEI,723,27,Female,White,United States,United States,United States,English,No,Part-Time,Not Applicable
63e5242d0f2f6cbb94a848d8,"<b>If a politician in my political party supports something I disagree with, I give them the benefit of the doubt, as such issues often involve hidden complexities that aren?t obvious.   ",Highly disagree,18/94,Somewhat disagree,2,1708007196220,1708007201911,\Somewhat disagree\,\Somewhat disagree\,\2\,1708007201114,1708007201114,4894,4894,5691,buq,qns-item-noham,18,317717,0.0-1.0-0.17,65ce1d96a8f481886a611196,AWAITING REVIEW,2024-02-15T14:20:14.190000Z,2024-02-15T14:50:09.653000Z,,2024-02-15T14:50:10.236287Z,1796.0,CVPIIDEI,723,27,Female,White,United States,United States,United States,English,No,Part-Time,Not Applicable
63e5242d0f2f6cbb94a848d8,<b>People?s bad politics are usually motivated by hatefulness.,Highly disagree,19/94,Somewhat agree,3,1708007201913,1708007208014,\Somewhat agree\,\Somewhat agree\,\3\,1708007206243,1708007206243,4330,4330,6101,buq,qns-item-noham,19,323820,0.0-1.0-0.18,65ce1d96a8f481886a611196,AWAITING REVIEW,2024-02-15T14:20:14.190000Z,2024-02-15T14:50:09.653000Z,,2024-02-15T14:50:10.236287Z,1796.0,CVPIIDEI,723,27,Female,White,United States,United States,United States,English,No,Part-Time,Not Applicable
63e5242d0f2f6cbb94a848d8,<b>I think a lot about how to reconcile my beliefs with one another.,Highly disagree,20/94,Highly agree,4,1708007208016,1708007301439,\Somewhat agree\,\Highly agree\,\3\,1708007298730,1708007300374,90714,92358,93423,buq,qns-item-noham,20,417245,0.0-1.0-0.19,65ce1d96a8f481886a611196,AWAITING REVIEW,2024-02-15T14:20:14.190000Z,2024-02-15T14:50:09.653000Z,,2024-02-15T14:50:10.236287Z,1796.0,CVPIIDEI,723,27,Female,White,United States,United States,United States,English,No,Part-Time,Not Applicable
63e5242d0f2f6cbb94a848d8,<b>I might have false beliefs about important topics.,Highly disagree,21/94,Somewhat agree,3,1708007301441,1708007306059,\Somewhat agree\,\Somewhat agree\,\3\,1708007305064,1708007305064,3623,3623,4618,buq,qns-item-noham,21,421865,0.0-1.0-0.20,65ce1d96a8f481886a611196,AWAITING REVIEW,2024-02-15T14:20:14.190000Z,2024-02-15T14:50:09.653000Z,,2024-02-15T14:50:10.236287Z,1796.0,CVPIIDEI,723,27,Female,White,United States,United States,United States,English,No,Part-Time,Not Applicable
63e5242d0f2f6cbb94a848d8,"<b>If a good friend of mine does something unexpected that upsets me, I feel like I don?t know them anymore.",Highly disagree,22/94,Somewhat agree,3,1708007306061,1708007353861,\Somewhat agree\,\Somewhat agree\,\3\,1708007352640,1708007352640,46579,46579,47800,buq,qns-item-noham,22,469667,0.0-1.0-0.21,65ce1d96a8f481886a611196,AWAITING REVIEW,2024-02-15T14:20:14.190000Z,2024-02-15T14:50:09.653000Z,,2024-02-15T14:50:10.236287Z,1796.0,CVPIIDEI,723,27,Female,White,United States,United States,United States,English,No,Part-Time,Not Applicable
63e5242d0f2f6cbb94a848d8,<b>Other people?s beliefs are often incoherent.,Highly disagree,23/94,Somewhat disagree,2,1708007353862,1708007359384,\Somewhat disagree\,\Somewhat disagree\,\2\,1708007358551,1708007358551,4689,4689,5522,buq,qns-item-noham,23,475190,0.0-1.0-0.22,65ce1d96a8f481886a611196,AWAITING REVIEW,2024-02-15T14:20:14.190000Z,2024-02-15T14:50:09.653000Z,,2024-02-15T14:50:10.236287Z,1796.0,CVPIIDEI,723,27,Female,White,United States,United States,United States,English,No,Part-Time,Not Applicable
63e5242d0f2f6cbb94a848d8,"<b>Every now and then, a new experience will unsettle beliefs I?ve had for a while.",Highly disagree,24/94,Highly agree,4,1708007359385,1708007372821,\Highly agree\,\Highly agree\,\4\,1708007371558,1708007371558,12173,12173,13436,buq,qns-item-noham,24,488627,0.0-1.0-0.23,65ce1d96a8f481886a611196,AWAITING REVIEW,2024-02-15T14:20:14.190000Z,2024-02-15T14:50:09.653000Z,,2024-02-15T14:50:10.236287Z,1796.0,CVPIIDEI,723,27,Female,White,United States,United States,United States,English,No,Part-Time,Not Applicable
63e5242d0f2f6cbb94a848d8,<b>Some policies I agree with in principle are so bad I don?t support them. ,Highly disagree,25/94,Somewhat agree,3,1708007372823,1708007376489,\Somewhat agree\,\Somewhat agree\,\3\,1708007375685,1708007375685,2862,2862,3666,buq,qns-item-noham,25,492295,0.0-1.0-0.24,65ce1d96a8f481886a611196,AWAITING REVIEW,2024-02-15T14:20:14.190000Z,2024-02-15T14:50:09.653000Z,,2024-02-15T14:50:10.236287Z,1796.0,CVPIIDEI,723,27,Female,White,United States,United States,United States,English,No,Part-Time,Not Applicable
63e5242d0f2f6cbb94a848d8,<b>I?m pretty sure I?ve accidentally spread false information.,Highly disagree,26/94,Somewhat agree,3,1708007376491,1708007378951,\Somewhat agree\,\Somewhat agree\,\3\,1708007378274,1708007378274,1783,1783,2460,buq,qns-item-noham,26,494757,0.0-1.0-0.25,65ce1d96a8f481886a611196,AWAITING REVIEW,2024-02-15T14:20:14.190000Z,2024-02-15T14:50:09.653000Z,,2024-02-15T14:50:10.236287Z,1796.0,CVPIIDEI,723,27,Female,White,United States,United States,United States,English,No,Part-Time,Not Applicable
63e5242d0f2f6cbb94a848d8,"<b>If I go to my favorite restaurant and the food is unexpectedly bad, then they have changed owners.",Highly disagree,27/94,Somewhat disagree,2,1708007378953,1708007384890,\Somewhat disagree\,\Somewhat disagree\,\2\,1708007384050,1708007384050,5097,5097,5937,buq,qns-item-noham,27,500696,0.0-1.0-0.26,65ce1d96a8f481886a611196,AWAITING REVIEW,2024-02-15T14:20:14.190000Z,2024-02-15T14:50:09.653000Z,,2024-02-15T14:50:10.236287Z,1796.0,CVPIIDEI,723,27,Female,White,United States,United States,United States,English,No,Part-Time,Not Applicable
63e5242d0f2f6cbb94a848d8,"<b>In politics, it?s important to trust your friends and family.",Highly disagree,28/94,Somewhat agree,3,1708007384891,1708007387648,\Somewhat agree\,\Somewhat agree\,\3\,1708007386921,1708007386921,2030,2030,2757,buq,qns-item-noham,28,503454,0.0-1.0-0.27,65ce1d96a8f481886a611196,AWAITING REVIEW,2024-02-15T14:20:14.190000Z,2024-02-15T14:50:09.653000Z,,2024-02-15T14:50:10.236287Z,1796.0,CVPIIDEI,723,27,Female,White,United States,United States,United States,English,No,Part-Time,Not Applicable
63e5242d0f2f6cbb94a848d8,<b>It?s OK to have some conflicting beliefs.,Highly disagree,29/94,Somewhat agree,3,1708007387649,1708007390053,\Somewhat agree\,\Somewhat agree\,\3\,1708007389165,1708007389165,1516,1516,2404,buq,qns-item-noham,29,505859,0.0-1.0-0.28,65ce1d96a8f481886a611196,AWAITING REVIEW,2024-02-15T14:20:14.190000Z,2024-02-15T14:50:09.653000Z,,2024-02-15T14:50:10.236287Z,1796.0,CVPIIDEI,723,27,Female,White,United States,United States,United States,English,No,Part-Time,Not Applicable
63e5242d0f2f6cbb94a848d8,<b>Listening to people I disagree with makes my opinions better.,Highly disagree,30/94,Somewhat agree,3,1708007390055,1708007419026,\Somewhat agree\,\Somewhat agree\,\3\,1708007418038,1708007418038,27983,27983,28971,buq,qns-item-noham,30,534832,0.0-1.0-0.29,65ce1d96a8f481886a611196,AWAITING REVIEW,2024-02-15T14:20:14.190000Z,2024-02-15T14:50:09.653000Z,,2024-02-15T14:50:10.236287Z,1796.0,CVPIIDEI,723,27,Female,White,United States,United States,United States,English,No,Part-Time,Not Applicable
63e5242d0f2f6cbb94a848d8,<b>My moral compass sometimes makes it harder to determine what?s true.,Highly disagree,31/94,Somewhat agree,3,1708007419028,1708007430086,\Somewhat agree\,\Somewhat agree\,\3\,1708007429240,1708007429240,10212,10212,11058,buq,qns-item-noham,31,545892,0.0-1.0-0.30,65ce1d96a8f481886a611196,AWAITING REVIEW,2024-02-15T14:20:14.190000Z,2024-02-15T14:50:09.653000Z,,2024-02-15T14:50:10.236287Z,1796.0,CVPIIDEI,723,27,Female,White,United States,United States,United States,English,No,Part-Time,Not Applicable
63e5242d0f2f6cbb94a848d8,<b>Evidence pointing in the wrong direction isn?t really evidence at all.,Highly disagree,32/94,Somewhat agree,3,1708007430087,1708007435962,\Somewhat agree\,\Somewhat agree\,\3\,1708007434946,1708007434946,4859,4859,5875,buq,qns-item-noham,32,551768,0.0-1.0-0.31,65ce1d96a8f481886a611196,AWAITING REVIEW,2024-02-15T14:20:14.190000Z,2024-02-15T14:50:09.653000Z,,2024-02-15T14:50:10.236287Z,1796.0,CVPIIDEI,723,27,Female,White,United States,United States,United States,English,No,Part-Time,Not Applicable
63e5242d0f2f6cbb94a848d8,"<b>If the political party I support messes up, it makes me think politics is rotten.",Highly disagree,33/94,Somewhat agree,3,1708007435964,1708007442078,\Somewhat agree\,\Somewhat agree\,\3\,1708007441238,1708007441238,5274,5274,6114,buq,qns-item-noham,33,557884,0.0-1.0-0.32,65ce1d96a8f481886a611196,AWAITING REVIEW,2024-02-15T14:20:14.190000Z,2024-02-15T14:50:09.653000Z,,2024-02-15T14:50:10.236287Z,1796.0,CVPIIDEI,723,27,Female,White,United States,United States,United States,English,No,Part-Time,Not Applicable
63e5242d0f2f6cbb94a848d8,<b>Lots of important topics can only really be understood by some groups of people.,Highly disagree,34/94,Somewhat agree,3,1708007442079,1708007453124,\Somewhat agree\,\Somewhat agree\,\3\,1708007452375,1708007452375,10296,10296,11045,buq,qns-item-noham,34,568930,0.0-1.0-0.33,65ce1d96a8f481886a611196,AWAITING REVIEW,2024-02-15T14:20:14.190000Z,2024-02-15T14:50:09.653000Z,,2024-02-15T14:50:10.236287Z,1796.0,CVPIIDEI,723,27,Female,White,United States,United States,United States,English,No,Part-Time,Not Applicable
63e5242d0f2f6cbb94a848d8,<b>Having conflicting beliefs means you haven?t thought about them enough.,Highly disagree,35/94,Somewhat disagree,2,1708007453126,1708007458738,\Somewhat agree\,\Somewhat disagree\,\3\,1708007456848,1708007457969,3722,4843,5612,buq,qns-item-noham,35,574544,0.0-1.0-0.34,65ce1d96a8f481886a611196,AWAITING REVIEW,2024-02-15T14:20:14.190000Z,2024-02-15T14:50:09.653000Z,,2024-02-15T14:50:10.236287Z,1796.0,CVPIIDEI,723,27,Female,White,United States,United States,United States,English,No,Part-Time,Not Applicable
63e5242d0f2f6cbb94a848d8,<b>I do not often change my political opinions.,Highly disagree,36/94,Somewhat agree,3,1708007458740,1708007463479,\Somewhat agree\,\Somewhat agree\,\3\,1708007462519,1708007462519,3779,3779,4739,buq,qns-item-noham,36,579285,0.0-1.0-0.35,65ce1d96a8f481886a611196,AWAITING REVIEW,2024-02-15T14:20:14.190000Z,2024-02-15T14:50:09.653000Z,,2024-02-15T14:50:10.236287Z,1796.0,CVPIIDEI,723,27,Female,White,United States,United States,United States,English,No,Part-Time,Not Applicable
63e5242d0f2f6cbb94a848d8,<b>It?s difficult to not have at least some conflicting beliefs.,Highly disagree,37/94,Highly agree,4,1708007463480,1708007530623,\Somewhat agree\,\Highly agree\,\3\,1708007529134,1708007529903,65654,66423,67143,buq,qns-item-noham,37,646429,0.0-1.0-0.36,65ce1d96a8f481886a611196,AWAITING REVIEW,2024-02-15T14:20:14.190000Z,2024-02-15T14:50:09.653000Z,,2024-02-15T14:50:10.236287Z,1796.0,CVPIIDEI,723,27,Female,White,United States,United States,United States,English,No,Part-Time,Not Applicable
63e5242d0f2f6cbb94a848d8,<b>Wishful thinking causes a lot of problems.,Highly disagree,38/94,Somewhat agree,3,1708007530624,1708007550542,\Somewhat agree\,\Somewhat agree\,\3\,1708007541549,1708007541549,10925,10925,19918,buq,qns-item-noham,38,666348,0.0-1.0-0.37,65ce1d96a8f481886a611196,AWAITING REVIEW,2024-02-15T14:20:14.190000Z,2024-02-15T14:50:09.653000Z,,2024-02-15T14:50:10.236287Z,1796.0,CVPIIDEI,723,27,Female,White,United States,United States,United States,English,No,Part-Time,Not Applicable
63e5242d0f2f6cbb94a848d8,<b>I judge a food item only once I try it many times.,Highly disagree,39/94,Somewhat disagree,2,1708007550543,1708007570853,\Somewhat disagree\,\Somewhat disagree\,\2\,1708007570091,1708007570091,19548,19548,20310,buq,qns-item-noham,39,686659,0.0-1.0-0.38,65ce1d96a8f481886a611196,AWAITING REVIEW,2024-02-15T14:20:14.190000Z,2024-02-15T14:50:09.653000Z,,2024-02-15T14:50:10.236287Z,1796.0,CVPIIDEI,723,27,Female,White,United States,United States,United States,English,No,Part-Time,Not Applicable
63e5242d0f2f6cbb94a848d8,"<b>When a person holds conflicting beliefs, they should really try to figure out what?s wrong.",Highly disagree,40/94,Somewhat agree,3,1708007570854,1708007606794,\Somewhat agree\,\Somewhat agree\,\3\,1708007605940,1708007605940,35086,35086,35940,buq,qns-item-noham,40,722600,0.0-1.0-0.39,65ce1d96a8f481886a611196,AWAITING REVIEW,2024-02-15T14:20:14.190000Z,2024-02-15T14:50:09.653000Z,,2024-02-15T14:50:10.236287Z,1796.0,CVPIIDEI,723,27,Female,White,United States,United States,United States,English,No,Part-Time,Not Applicable
63e5242d0f2f6cbb94a848d8,<b>Knowing what?s important in life is easy.,Highly disagree,41/94,Somewhat disagree,2,1708007606795,1708007624019,\Somewhat agree\,\Somewhat disagree\,\3\,1708007616683,1708007620894,9888,14099,17224,buq,qns-item-noham,41,739825,0.0-1.0-0.40,65ce1d96a8f481886a611196,AWAITING REVIEW,2024-02-15T14:20:14.190000Z,2024-02-15T14:50:09.653000Z,,2024-02-15T14:50:10.236287Z,1796.0,CVPIIDEI,723,27,Female,White,United States,United States,United States,English,No,Part-Time,Not Applicable
63e5242d0f2f6cbb94a848d8,<b>I swim across the Atlantic Ocean to get to work every day.,Highly disagree,42/94,Highly disagree,1,1708007624020,1708007627335,\Highly disagree\,\Highly disagree\,\1\,1708007626431,1708007626431,2411,2411,3315,buq,qns-item-noham,42,743141,0.0-1.0-0.41,65ce1d96a8f481886a611196,AWAITING REVIEW,2024-02-15T14:20:14.190000Z,2024-02-15T14:50:09.653000Z,,2024-02-15T14:50:10.236287Z,1796.0,CVPIIDEI,723,27,Female,White,United States,United States,United States,English,No,Part-Time,Not Applicable
63e5242d0f2f6cbb94a848d8,"<b>Sometimes, you just have to ignore evidence that you know is wrong.",Highly disagree,43/94,Somewhat agree,3,1708007627336,1708007630833,\Somewhat agree\,\Somewhat agree\,\3\,1708007630057,1708007630057,2721,2721,3497,buq,qns-item-noham,43,746639,0.0-1.0-0.42,65ce1d96a8f481886a611196,AWAITING REVIEW,2024-02-15T14:20:14.190000Z,2024-02-15T14:50:09.653000Z,,2024-02-15T14:50:10.236287Z,1796.0,CVPIIDEI,723,27,Female,White,United States,United States,United States,English,No,Part-Time,Not Applicable
63e5242d0f2f6cbb94a848d8,<b>I have had some false beliefs.,Highly disagree,44/94,Somewhat agree,3,1708007630834,1708007634360,\Somewhat agree\,\Somewhat agree\,\3\,1708007632618,1708007632618,1784,1784,3526,buq,qns-item-noham,44,750166,0.0-1.0-0.43,65ce1d96a8f481886a611196,AWAITING REVIEW,2024-02-15T14:20:14.190000Z,2024-02-15T14:50:09.653000Z,,2024-02-15T14:50:10.236287Z,1796.0,CVPIIDEI,723,27,Female,White,United States,United States,United States,English,No,Part-Time,Not Applicable
63e5242d0f2f6cbb94a848d8,"<b>If one friend does something that upsets me, I sometimes start to distrust people in general.",Highly disagree,45/94,Somewhat agree,3,1708007634362,1708007682768,\Somewhat agree\,\Somewhat agree\,\3\,1708007682014,1708007682014,47652,47652,48406,buq,qns-item-noham,45,798574,0.0-1.0-0.44,65ce1d96a8f481886a611196,AWAITING REVIEW,2024-02-15T14:20:14.190000Z,2024-02-15T14:50:09.653000Z,,2024-02-15T14:50:10.236287Z,1796.0,CVPIIDEI,723,27,Female,White,United States,United States,United States,English,No,Part-Time,Not Applicable
63e5242d0f2f6cbb94a848d8,<b>The facts about most important matters are easy to find.,Highly disagree,46/94,Somewhat agree,3,1708007682769,1708007717429,\Somewhat agree\,\Somewhat agree\,\3\,1708007716576,1708007716576,33807,33807,34660,buq,qns-item-noham,46,833235,0.0-1.0-0.45,65ce1d96a8f481886a611196,AWAITING REVIEW,2024-02-15T14:20:14.190000Z,2024-02-15T14:50:09.653000Z,,2024-02-15T14:50:10.236287Z,1796.0,CVPIIDEI,723,27,Female,White,United States,United States,United States,English,No,Part-Time,Not Applicable
63e5242d0f2f6cbb94a848d8,<b>It?s better to know what?s true than to know what?s moral.,Highly disagree,47/94,Somewhat agree,3,1708007717431,1708007722444,\Somewhat agree\,\Somewhat agree\,\3\,1708007721704,1708007721704,4273,4273,5013,buq,qns-item-noham,47,838250,0.0-1.0-0.46,65ce1d96a8f481886a611196,AWAITING REVIEW,2024-02-15T14:20:14.190000Z,2024-02-15T14:50:09.653000Z,,2024-02-15T14:50:10.236287Z,1796.0,CVPIIDEI,723,27,Female,White,United States,United States,United States,English,No,Part-Time,Not Applicable
63e5242d0f2f6cbb94a848d8,<b>I used to think the world was less complicated than I do now.,Highly disagree,48/94,Highly agree,4,1708007722445,1708007727106,\Highly agree\,\Highly agree\,\4\,1708007726189,1708007726189,3744,3744,4661,buq,qns-item-noham,48,842912,0.0-1.0-0.47,65ce1d96a8f481886a611196,AWAITING REVIEW,2024-02-15T14:20:14.190000Z,2024-02-15T14:50:09.653000Z,,2024-02-15T14:50:10.236287Z,1796.0,CVPIIDEI,723,27,Female,White,United States,United States,United States,English,No,Part-Time,Not Applicable
63e5242d0f2f6cbb94a848d8,<b>People are usually completely right or completely wrong.,Highly disagree,49/94,Somewhat disagree,2,1708007727107,1708007732424,\Somewhat disagree\,\Somewhat disagree\,\2\,1708007731564,1708007731564,4457,4457,5317,buq,qns-item-noham,49,848230,0.0-1.0-0.48,65ce1d96a8f481886a611196,AWAITING REVIEW,2024-02-15T14:20:14.190000Z,2024-02-15T14:50:09.653000Z,,2024-02-15T14:50:10.236287Z,1796.0,CVPIIDEI,723,27,Female,White,United States,United States,United States,English,No,Part-Time,Not Applicable
63e5242d0f2f6cbb94a848d8,<b>I spend a lot of time considering alternatives to my beliefs.,Highly disagree,50/94,Somewhat agree,3,1708007732426,1708007757990,\Somewhat agree\,\Somewhat agree\,\3\,1708007757186,1708007757186,24760,24760,25564,buq,qns-item-noham,50,873796,0.0-1.0-0.49,65ce1d96a8f481886a611196,AWAITING REVIEW,2024-02-15T14:20:14.190000Z,2024-02-15T14:50:09.653000Z,,2024-02-15T14:50:10.236287Z,1796.0,CVPIIDEI,723,27,Female,White,United States,United States,United States,English,No,Part-Time,Not Applicable
63e5242d0f2f6cbb94a848d8,"<b>Political enemies need to be defeated, not convinced.",Highly disagree,51/94,Highly disagree,1,1708007757991,1708007813188,\Somewhat disagree\,\Highly disagree\,\2\,1708007811362,1708007812102,53371,54111,55197,buq,qns-item-noham,51,928994,0.0-1.0-0.50,65ce1d96a8f481886a611196,AWAITING REVIEW,2024-02-15T14:20:14.190000Z,2024-02-15T14:50:09.653000Z,,2024-02-15T14:50:10.236287Z,1796.0,CVPIIDEI,723,27,Female,White,United States,United States,United States,English,No,Part-Time,Not Applicable
63e5242d0f2f6cbb94a848d8,<b>I form my political views only after meticulously gathering historical and present information about their policies.,Highly disagree,52/94,Somewhat disagree,2,1708007813189,1708007818075,\Somewhat disagree\,\Somewhat disagree\,\2\,1708007817193,1708007817193,4004,4004,4886,buq,qns-item-noham,52,933881,0.0-1.0-0.51,65ce1d96a8f481886a611196,AWAITING REVIEW,2024-02-15T14:20:14.190000Z,2024-02-15T14:50:09.653000Z,,2024-02-15T14:50:10.236287Z,1796.0,CVPIIDEI,723,27,Female,White,United States,United States,United States,English,No,Part-Time,Not Applicable
63e5242d0f2f6cbb94a848d8,<b>It is difficult for me to remember the last time I was surprised by politics.,Highly disagree,53/94,Somewhat disagree,2,1708007818076,1708007821826,\Somewhat disagree\,\Somewhat disagree\,\2\,1708007820655,1708007820655,2579,2579,3750,buq,qns-item-noham,53,937632,0.0-1.0-0.52,65ce1d96a8f481886a611196,AWAITING REVIEW,2024-02-15T14:20:14.190000Z,2024-02-15T14:50:09.653000Z,,2024-02-15T14:50:10.236287Z,1796.0,CVPIIDEI,723,27,Female,White,United States,United States,United States,English,No,Part-Time,Not Applicable
63e5242d0f2f6cbb94a848d8,"<b>When I find out I?m wrong, I think a lot about my related beliefs.",Highly disagree,54/94,Somewhat agree,3,1708007821827,1708007825437,\Somewhat agree\,\Somewhat agree\,\3\,1708007824746,1708007824746,2919,2919,3610,buq,qns-item-noham,54,941243,0.0-1.0-0.53,65ce1d96a8f481886a611196,AWAITING REVIEW,2024-02-15T14:20:14.190000Z,2024-02-15T14:50:09.653000Z,,2024-02-15T14:50:10.236287Z,1796.0,CVPIIDEI,723,27,Female,White,United States,United States,United States,English,No,Part-Time,Not Applicable
63e5242d0f2f6cbb94a848d8,"<b>If the political party I support messes up, it makes me think you can?t trust anyone these days",Highly disagree,55/94,Somewhat disagree,2,1708007825439,1708007886275,\Somewhat disagree\,\Somewhat disagree\,\2\,1708007885443,1708007885443,60004,60004,60836,buq,qns-item-noham,55,1002081,0.0-1.0-0.54,65ce1d96a8f481886a611196,AWAITING REVIEW,2024-02-15T14:20:14.190000Z,2024-02-15T14:50:09.653000Z,,2024-02-15T14:50:10.236287Z,1796.0,CVPIIDEI,723,27,Female,White,United States,United States,United States,English,No,Part-Time,Not Applicable
63e5242d0f2f6cbb94a848d8,<b>People?s brains turn off when they talk about politics.,Highly disagree,56/94,Somewhat agree,3,1708007886277,1708007889752,\Somewhat agree\,\Somewhat agree\,\3\,1708007889004,1708007889004,2727,2727,3475,buq,qns-item-noham,56,1005558,0.0-1.0-0.55,65ce1d96a8f481886a611196,AWAITING REVIEW,2024-02-15T14:20:14.190000Z,2024-02-15T14:50:09.653000Z,,2024-02-15T14:50:10.236287Z,1796.0,CVPIIDEI,723,27,Female,White,United States,United States,United States,English,No,Part-Time,Not Applicable
63e5242d0f2f6cbb94a848d8,<b>People who are wrong are usually just ignoring the obvious.,Highly disagree,57/94,Somewhat agree,3,1708007889754,1708007920668,\Somewhat agree\,\Somewhat agree\,\3\,1708007919842,1708007919842,30088,30088,30914,buq,qns-item-noham,57,1036474,0.0-1.0-0.56,65ce1d96a8f481886a611196,AWAITING REVIEW,2024-02-15T14:20:14.190000Z,2024-02-15T14:50:09.653000Z,,2024-02-15T14:50:10.236287Z,1796.0,CVPIIDEI,723,27,Female,White,United States,United States,United States,English,No,Part-Time,Not Applicable
63e5242d0f2f6cbb94a848d8,"<b>When forming my views on people, I rely more on what they are like now rather than rely on my past experience with them.",Highly disagree,58/94,Somewhat disagree,2,1708007920669,1708007927010,\Somewhat disagree\,\Somewhat disagree\,\2\,1708007925994,1708007925994,5325,5325,6341,buq,qns-item-noham,58,1042816,0.0-1.0-0.57,65ce1d96a8f481886a611196,AWAITING REVIEW,2024-02-15T14:20:14.190000Z,2024-02-15T14:50:09.653000Z,,2024-02-15T14:50:10.236287Z,1796.0,CVPIIDEI,723,27,Female,White,United States,United States,United States,English,No,Part-Time,Not Applicable
63e5242d0f2f6cbb94a848d8,"<b>When people contradict my beliefs, I usually know about their evidence already.",Highly disagree,59/94,Somewhat disagree,2,1708007927011,1708007965116,\Somewhat disagree\,\Somewhat disagree\,\2\,1708007964086,1708007964086,37075,37075,38105,buq,qns-item-noham,59,1080922,0.0-1.0-0.58,65ce1d96a8f481886a611196,AWAITING REVIEW,2024-02-15T14:20:14.190000Z,2024-02-15T14:50:09.653000Z,,2024-02-15T14:50:10.236287Z,1796.0,CVPIIDEI,723,27,Female,White,United States,United States,United States,English,No,Part-Time,Not Applicable
63e5242d0f2f6cbb94a848d8,<b>Figuring out what?s true and what?s false mainly requires a strong moral compass.,Highly disagree,60/94,Somewhat agree,3,1708007965117,1708007978107,\Somewhat agree\,\Somewhat agree\,\3\,1708007977373,1708007977373,12256,12256,12990,buq,qns-item-noham,60,1093913,0.0-1.0-0.59,65ce1d96a8f481886a611196,AWAITING REVIEW,2024-02-15T14:20:14.190000Z,2024-02-15T14:50:09.653000Z,,2024-02-15T14:50:10.236287Z,1796.0,CVPIIDEI,723,27,Female,White,United States,United States,United States,English,No,Part-Time,Not Applicable
63e5242d0f2f6cbb94a848d8,"<b>Usually I?m wrong about simple things, not complicated ones.",Highly disagree,61/94,Somewhat disagree,2,1708007978108,1708007983700,\Somewhat disagree\,\Somewhat disagree\,\2\,1708007982748,1708007982748,4640,4640,5592,buq,qns-item-noham,61,1099506,0.0-1.0-0.60,65ce1d96a8f481886a611196,AWAITING REVIEW,2024-02-15T14:20:14.190000Z,2024-02-15T14:50:09.653000Z,,2024-02-15T14:50:10.236287Z,1796.0,CVPIIDEI,723,27,Female,White,United States,United States,United States,English,No,Part-Time,Not Applicable
63e5242d0f2f6cbb94a848d8,<b>Getting all the information I want about important things is hard.,Highly disagree,62/94,Somewhat agree,3,1708007983702,1708008030682,\Somewhat agree\,\Somewhat agree\,\3\,1708008029885,1708008029885,46183,46183,46980,buq,qns-item-noham,62,1146488,0.0-1.0-0.61,65ce1d96a8f481886a611196,AWAITING REVIEW,2024-02-15T14:20:14.190000Z,2024-02-15T14:50:09.653000Z,,2024-02-15T14:50:10.236287Z,1796.0,CVPIIDEI,723,27,Female,White,United States,United States,United States,English,No,Part-Time,Not Applicable
63e5242d0f2f6cbb94a848d8,<b>Most false beliefs spread because people try to deceive one another.,Highly disagree,63/94,Somewhat agree,3,1708008030683,1708008059570,\Somewhat agree\,\Somewhat agree\,\3\,1708008058822,1708008058822,28139,28139,28887,buq,qns-item-noham,63,1175376,0.0-1.0-0.62,65ce1d96a8f481886a611196,AWAITING REVIEW,2024-02-15T14:20:14.190000Z,2024-02-15T14:50:09.653000Z,,2024-02-15T14:50:10.236287Z,1796.0,CVPIIDEI,723,27,Female,White,United States,United States,United States,English,No,Part-Time,Not Applicable
63e5242d0f2f6cbb94a848d8,<b>I can usually find something to agree with in most people?s beliefs.,Highly disagree,64/94,Somewhat agree,3,1708008059571,1708008063316,\Somewhat agree\,\Somewhat agree\,\3\,1708008062194,1708008062194,2623,2623,3745,buq,qns-item-noham,64,1179122,0.0-1.0-0.63,65ce1d96a8f481886a611196,AWAITING REVIEW,2024-02-15T14:20:14.190000Z,2024-02-15T14:50:09.653000Z,,2024-02-15T14:50:10.236287Z,1796.0,CVPIIDEI,723,27,Female,White,United States,United States,United States,English,No,Part-Time,Not Applicable
63e5242d0f2f6cbb94a848d8,<b>I only form my views of people once I get to know them very well.,Highly disagree,65/94,Somewhat disagree,2,1708008063317,1708008108079,\Somewhat disagree\,\Somewhat disagree\,\2\,1708008107275,1708008107275,43958,43958,44762,buq,qns-item-noham,65,1223885,0.0-1.0-0.64,65ce1d96a8f481886a611196,AWAITING REVIEW,2024-02-15T14:20:14.190000Z,2024-02-15T14:50:09.653000Z,,2024-02-15T14:50:10.236287Z,1796.0,CVPIIDEI,723,27,Female,White,United States,United States,United States,English,No,Part-Time,Not Applicable
63e5242d0f2f6cbb94a848d8,"<b>When people tell me important things about the world, I usually believe them.",Highly disagree,66/94,Somewhat disagree,2,1708008108081,1708008114299,\Somewhat disagree\,\Somewhat disagree\,\2\,1708008113558,1708008113558,5477,5477,6218,buq,qns-item-noham,66,1230105,0.0-1.0-0.65,65ce1d96a8f481886a611196,AWAITING REVIEW,2024-02-15T14:20:14.190000Z,2024-02-15T14:50:09.653000Z,,2024-02-15T14:50:10.236287Z,1796.0,CVPIIDEI,723,27,Female,White,United States,United States,United States,English,No,Part-Time,Not Applicable
63e5242d0f2f6cbb94a848d8,"<b>If a friend does something that upsets me, it reminds me what an unpredictable place the world is.",Highly disagree,67/94,Somewhat agree,3,1708008114301,1708008133543,\Somewhat agree\,\Somewhat agree\,\3\,1708008132745,1708008132745,18444,18444,19242,buq,qns-item-noham,67,1249349,0.0-1.0-0.66,65ce1d96a8f481886a611196,AWAITING REVIEW,2024-02-15T14:20:14.190000Z,2024-02-15T14:50:09.653000Z,,2024-02-15T14:50:10.236287Z,1796.0,CVPIIDEI,723,27,Female,White,United States,United States,United States,English,No,Part-Time,Not Applicable
63e5242d0f2f6cbb94a848d8,<b>People tend to believe whatever is good for their friends.,Highly disagree,68/94,Somewhat agree,3,1708008133544,1708008140208,\Somewhat agree\,\Somewhat agree\,\3\,1708008138706,1708008138706,5162,5162,6664,buq,qns-item-noham,68,1256014,0.0-1.0-0.67,65ce1d96a8f481886a611196,AWAITING REVIEW,2024-02-15T14:20:14.190000Z,2024-02-15T14:50:09.653000Z,,2024-02-15T14:50:10.236287Z,1796.0,CVPIIDEI,723,27,Female,White,United States,United States,United States,English,No,Part-Time,Not Applicable
63e5242d0f2f6cbb94a848d8,<b>I used to be more certain my beliefs were true.,Highly disagree,69/94,Highly agree,4,1708008140210,1708008144794,\Highly agree\,\Highly agree\,\4\,1708008143058,1708008143058,2848,2848,4584,buq,qns-item-noham,69,1260600,0.0-1.0-0.68,65ce1d96a8f481886a611196,AWAITING REVIEW,2024-02-15T14:20:14.190000Z,2024-02-15T14:50:09.653000Z,,2024-02-15T14:50:10.236287Z,1796.0,CVPIIDEI,723,27,Female,White,United States,United States,United States,English,No,Part-Time,Not Applicable
63e5242d0f2f6cbb94a848d8,<b>It?s often pretty easy to figure out whether something is true based on who said it.,Highly disagree,70/94,Somewhat disagree,2,1708008144795,1708008150817,\Somewhat disagree\,\Somewhat disagree\,\2\,1708008149745,1708008149745,4950,4950,6022,buq,qns-item-noham,70,1266623,0.0-1.0-0.69,65ce1d96a8f481886a611196,AWAITING REVIEW,2024-02-15T14:20:14.190000Z,2024-02-15T14:50:09.653000Z,,2024-02-15T14:50:10.236287Z,1796.0,CVPIIDEI,723,27,Female,White,United States,United States,United States,English,No,Part-Time,Not Applicable
63e5242d0f2f6cbb94a848d8,<b>I transform into a hummingbird every day.,Highly disagree,71/94,Highly disagree,1,1708008150819,1708008155374,\Highly disagree\,\Highly disagree\,\1\,1708008154218,1708008154218,3399,3399,4555,buq,qns-item-noham,71,1271180,0.0-1.0-0.70,65ce1d96a8f481886a611196,AWAITING REVIEW,2024-02-15T14:20:14.190000Z,2024-02-15T14:50:09.653000Z,,2024-02-15T14:50:10.236287Z,1796.0,CVPIIDEI,723,27,Female,White,United States,United States,United States,English,No,Part-Time,Not Applicable
63e5242d0f2f6cbb94a848d8,<b>I think a lot about arguments against my views.,Highly disagree,72/94,Somewhat disagree,2,1708008155376,1708008205800,\Somewhat disagree\,\Somewhat disagree\,\2\,1708008204989,1708008204989,49613,49613,50424,buq,qns-item-noham,72,1321606,0.0-1.0-0.71,65ce1d96a8f481886a611196,AWAITING REVIEW,2024-02-15T14:20:14.190000Z,2024-02-15T14:50:09.653000Z,,2024-02-15T14:50:10.236287Z,1796.0,CVPIIDEI,723,27,Female,White,United States,United States,United States,English,No,Part-Time,Not Applicable
63e5242d0f2f6cbb94a848d8,<b>Personal experience is usually more important than facts and figures.,Highly disagree,73/94,Somewhat disagree,2,1708008205801,1708008224266,\Somewhat disagree\,\Somewhat disagree\,\2\,1708008223447,1708008223447,17646,17646,18465,buq,qns-item-noham,73,1340072,0.0-1.0-0.72,65ce1d96a8f481886a611196,AWAITING REVIEW,2024-02-15T14:20:14.190000Z,2024-02-15T14:50:09.653000Z,,2024-02-15T14:50:10.236287Z,1796.0,CVPIIDEI,723,27,Female,White,United States,United States,United States,English,No,Part-Time,Not Applicable
63e5242d0f2f6cbb94a848d8,<b>I?ve been tricked before about important matters.,Highly disagree,74/94,Highly agree,4,1708008224268,1708008227939,\Highly agree\,\Highly agree\,\4\,1708008226889,1708008226889,2621,2621,3671,buq,qns-item-noham,74,1343746,0.0-1.0-0.73,65ce1d96a8f481886a611196,AWAITING REVIEW,2024-02-15T14:20:14.190000Z,2024-02-15T14:50:09.653000Z,,2024-02-15T14:50:10.236287Z,1796.0,CVPIIDEI,723,27,Female,White,United States,United States,United States,English,No,Part-Time,Not Applicable
63e5242d0f2f6cbb94a848d8,<b>I would need to be totally wowed if I were to change my opinion of a restaurant I don?t like.,Highly disagree,75/94,Somewhat agree,3,1708008227941,1708008320866,\Somewhat agree\,\Somewhat agree\,\3\,1708008319878,1708008319878,91937,91937,92925,buq,qns-item-noham,75,1436672,0.0-1.0-0.74,65ce1d96a8f481886a611196,AWAITING REVIEW,2024-02-15T14:20:14.190000Z,2024-02-15T14:50:09.653000Z,,2024-02-15T14:50:10.236287Z,1796.0,CVPIIDEI,723,27,Female,White,United States,United States,United States,English,No,Part-Time,Not Applicable
63e5242d0f2f6cbb94a848d8,<b>I care a lot about politics.,Highly disagree,76/94,Highly disagree,1,1708008320867,1708008324075,\Highly disagree\,\Highly disagree\,\1\,1708008322939,1708008322939,2072,2072,3208,buq,qns-item-noham,76,1439881,0.0-1.0-0.75,65ce1d96a8f481886a611196,AWAITING REVIEW,2024-02-15T14:20:14.190000Z,2024-02-15T14:50:09.653000Z,,2024-02-15T14:50:10.236287Z,1796.0,CVPIIDEI,723,27,Female,White,United States,United States,United States,English,No,Part-Time,Not Applicable
63e5242d0f2f6cbb94a848d8,<b>There are some topics I?ve been really wrong about.,Highly disagree,77/94,Somewhat agree,3,1708008324076,1708008326734,\Somewhat agree\,\Somewhat agree\,\3\,1708008326071,1708008326071,1995,1995,2658,buq,qns-item-noham,77,1442540,0.0-1.0-0.76,65ce1d96a8f481886a611196,AWAITING REVIEW,2024-02-15T14:20:14.190000Z,2024-02-15T14:50:09.653000Z,,2024-02-15T14:50:10.236287Z,1796.0,CVPIIDEI,723,27,Female,White,United States,United States,United States,English,No,Part-Time,Not Applicable
63e5242d0f2f6cbb94a848d8,<b>Most beliefs can be supported with at least some evidence.,Highly disagree,78/94,Somewhat agree,3,1708008326735,1708008365234,\Somewhat agree\,\Somewhat agree\,\3\,1708008364225,1708008364225,37490,37490,38499,buq,qns-item-noham,78,1481040,0.0-1.0-0.77,65ce1d96a8f481886a611196,AWAITING REVIEW,2024-02-15T14:20:14.190000Z,2024-02-15T14:50:09.653000Z,,2024-02-15T14:50:10.236287Z,1796.0,CVPIIDEI,723,27,Female,White,United States,United States,United States,English,No,Part-Time,Not Applicable
63e5242d0f2f6cbb94a848d8,<b>Other people make life out to be more complicated than it really is.,Highly disagree,79/94,Somewhat disagree,2,1708008365235,1708008369679,\Somewhat disagree\,\Somewhat disagree\,\2\,1708008369030,1708008369030,3795,3795,4444,buq,qns-item-noham,79,1485485,0.0-1.0-0.78,65ce1d96a8f481886a611196,AWAITING REVIEW,2024-02-15T14:20:14.190000Z,2024-02-15T14:50:09.653000Z,,2024-02-15T14:50:10.236287Z,1796.0,CVPIIDEI,723,27,Female,White,United States,United States,United States,English,No,Part-Time,Not Applicable
63e5242d0f2f6cbb94a848d8,"<b>Policy details don?t matter much, just the big picture.",Highly disagree,80/94,Somewhat disagree,2,1708008369681,1708008375160,\Somewhat disagree\,\Somewhat disagree\,\2\,1708008373714,1708008373714,4033,4033,5479,buq,qns-item-noham,80,1490966,0.0-1.0-0.79,65ce1d96a8f481886a611196,AWAITING REVIEW,2024-02-15T14:20:14.190000Z,2024-02-15T14:50:09.653000Z,,2024-02-15T14:50:10.236287Z,1796.0,CVPIIDEI,723,27,Female,White,United States,United States,United States,English,No,Part-Time,Not Applicable
63e5242d0f2f6cbb94a848d8,<b>I know my friends so well they can hardly ever surprise me.,Highly disagree,81/94,Highly disagree,1,1708008375162,1708008380282,\Highly disagree\,\Highly disagree\,\1\,1708008379358,1708008379358,4196,4196,5120,buq,qns-item-noham,81,1496088,0.0-1.0-0.80,65ce1d96a8f481886a611196,AWAITING REVIEW,2024-02-15T14:20:14.190000Z,2024-02-15T14:50:09.653000Z,,2024-02-15T14:50:10.236287Z,1796.0,CVPIIDEI,723,27,Female,White,United States,United States,United States,English,No,Part-Time,Not Applicable
63e5242d0f2f6cbb94a848d8,<b>I do not often change my views on people.,Highly disagree,82/94,Somewhat disagree,2,1708008380283,1708008408094,\Somewhat disagree\,\Somewhat disagree\,\2\,1708008407255,1708008407255,26972,26972,27811,buq,qns-item-noham,82,1523900,0.0-1.0-0.81,65ce1d96a8f481886a611196,AWAITING REVIEW,2024-02-15T14:20:14.190000Z,2024-02-15T14:50:09.653000Z,,2024-02-15T14:50:10.236287Z,1796.0,CVPIIDEI,723,27,Female,White,United States,United States,United States,English,No,Part-Time,Not Applicable
63e5242d0f2f6cbb94a848d8,<b>I?m more certain about my beliefs than I used to be.,Highly disagree,83/94,Somewhat disagree,2,1708008408096,1708008413216,\Somewhat disagree\,\Somewhat disagree\,\2\,1708008411163,1708008411163,3067,3067,5120,buq,qns-item-noham,83,1529022,0.0-1.0-0.82,65ce1d96a8f481886a611196,AWAITING REVIEW,2024-02-15T14:20:14.190000Z,2024-02-15T14:50:09.653000Z,,2024-02-15T14:50:10.236287Z,1796.0,CVPIIDEI,723,27,Female,White,United States,United States,United States,English,No,Part-Time,Not Applicable
63e5242d0f2f6cbb94a848d8,<b>People often tell falsehoods unintentionally.,Highly disagree,84/94,Somewhat agree,3,1708008413217,1708008435804,\Somewhat agree\,\Somewhat agree\,\3\,1708008435006,1708008435006,21789,21789,22587,buq,qns-item-noham,84,1551610,0.0-1.0-0.83,65ce1d96a8f481886a611196,AWAITING REVIEW,2024-02-15T14:20:14.190000Z,2024-02-15T14:50:09.653000Z,,2024-02-15T14:50:10.236287Z,1796.0,CVPIIDEI,723,27,Female,White,United States,United States,United States,English,No,Part-Time,Not Applicable
63e5242d0f2f6cbb94a848d8,<b>Most people don?t know much about most things.,Highly disagree,85/94,Somewhat agree,3,1708008435806,1708008438513,\Somewhat agree\,\Somewhat agree\,\3\,1708008437779,1708008437779,1973,1973,2707,buq,qns-item-noham,85,1554319,0.0-1.0-0.84,65ce1d96a8f481886a611196,AWAITING REVIEW,2024-02-15T14:20:14.190000Z,2024-02-15T14:50:09.653000Z,,2024-02-15T14:50:10.236287Z,1796.0,CVPIIDEI,723,27,Female,White,United States,United States,United States,English,No,Part-Time,Not Applicable
63e5242d0f2f6cbb94a848d8,"<b>If I find out something new about someone, I easily change my views about them.",Highly disagree,86/94,Somewhat agree,3,1708008438514,1708008442556,\Somewhat agree\,\Somewhat agree\,\3\,1708008441610,1708008441610,3096,3096,4042,buq,qns-item-noham,86,1558362,0.0-1.0-0.85,65ce1d96a8f481886a611196,AWAITING REVIEW,2024-02-15T14:20:14.190000Z,2024-02-15T14:50:09.653000Z,,2024-02-15T14:50:10.236287Z,1796.0,CVPIIDEI,723,27,Female,White,United States,United States,United States,English,No,Part-Time,Not Applicable
63e5242d0f2f6cbb94a848d8,<b>Having true beliefs is difficult.,Highly disagree,87/94,Somewhat agree,3,1708008442557,1708008446605,\Somewhat agree\,\Somewhat agree\,\3\,1708008445011,1708008445011,2454,2454,4048,buq,qns-item-noham,87,1562411,0.0-1.0-0.86,65ce1d96a8f481886a611196,AWAITING REVIEW,2024-02-15T14:20:14.190000Z,2024-02-15T14:50:09.653000Z,,2024-02-15T14:50:10.236287Z,1796.0,CVPIIDEI,723,27,Female,White,United States,United States,United States,English,No,Part-Time,Not Applicable
63e5242d0f2f6cbb94a848d8,<b>I don?t try new foods since I know I won?t like them.,Highly disagree,88/94,Somewhat disagree,2,1708008446607,1708008450500,\Somewhat disagree\,\Somewhat disagree\,\2\,1708008449280,1708008449280,2673,2673,3893,buq,qns-item-noham,88,1566306,0.0-1.0-0.87,65ce1d96a8f481886a611196,AWAITING REVIEW,2024-02-15T14:20:14.190000Z,2024-02-15T14:50:09.653000Z,,2024-02-15T14:50:10.236287Z,1796.0,CVPIIDEI,723,27,Female,White,United States,United States,United States,English,No,Part-Time,Not Applicable
63e5242d0f2f6cbb94a848d8,<b>Other people trick each other a lot.,Highly disagree,89/94,Somewhat agree,3,1708008450502,1708008453245,\Somewhat agree\,\Somewhat agree\,\3\,1708008452348,1708008452348,1846,1846,2743,buq,qns-item-noham,89,1569051,0.0-1.0-0.88,65ce1d96a8f481886a611196,AWAITING REVIEW,2024-02-15T14:20:14.190000Z,2024-02-15T14:50:09.653000Z,,2024-02-15T14:50:10.236287Z,1796.0,CVPIIDEI,723,27,Female,White,United States,United States,United States,English,No,Part-Time,Not Applicable
63e5242d0f2f6cbb94a848d8,<b>I would need to learn a lot about a person for my opinion of them to be swayed.,Highly disagree,90/94,Somewhat disagree,2,1708008453246,1708008467538,\Somewhat disagree\,\Somewhat disagree\,\2\,1708008466762,1708008466762,13516,13516,14292,buq,qns-item-noham,90,1583344,0.0-1.0-0.89,65ce1d96a8f481886a611196,AWAITING REVIEW,2024-02-15T14:20:14.190000Z,2024-02-15T14:50:09.653000Z,,2024-02-15T14:50:10.236287Z,1796.0,CVPIIDEI,723,27,Female,White,United States,United States,United States,English,No,Part-Time,Not Applicable
63e5242d0f2f6cbb94a848d8,<b>People can?t usually trick me when it comes to topics I care about.,Highly disagree,91/94,Somewhat agree,3,1708008467540,1708008475877,\Somewhat agree\,\Somewhat agree\,\3\,1708008473965,1708008473965,6425,6425,8337,buq,qns-item-noham,91,1591683,0.0-1.0-0.90,65ce1d96a8f481886a611196,AWAITING REVIEW,2024-02-15T14:20:14.190000Z,2024-02-15T14:50:09.653000Z,,2024-02-15T14:50:10.236287Z,1796.0,CVPIIDEI,723,27,Female,White,United States,United States,United States,English,No,Part-Time,Not Applicable
63e5242d0f2f6cbb94a848d8,<b>I do not often change my views on food.,Highly disagree,92/94,Somewhat agree,3,1708008475879,1708008489986,\Somewhat agree\,\Somewhat agree\,\3\,1708008488773,1708008488773,12894,12894,14107,buq,qns-item-noham,92,1605792,0.0-1.0-0.91,65ce1d96a8f481886a611196,AWAITING REVIEW,2024-02-15T14:20:14.190000Z,2024-02-15T14:50:09.653000Z,,2024-02-15T14:50:10.236287Z,1796.0,CVPIIDEI,723,27,Female,White,United States,United States,United States,English,No,Part-Time,Not Applicable
63e5242d0f2f6cbb94a848d8,<b>Specific policies are often very important to me.,Highly disagree,93/94,Somewhat agree,3,1708008489988,1708008519054,\Somewhat agree\,\Somewhat agree\,\3\,1708008517925,1708008517925,27937,27937,29066,buq,qns-item-noham,93,1634860,0.0-1.0-0.92,65ce1d96a8f481886a611196,AWAITING REVIEW,2024-02-15T14:20:14.190000Z,2024-02-15T14:50:09.653000Z,,2024-02-15T14:50:10.236287Z,1796.0,CVPIIDEI,723,27,Female,White,United States,United States,United States,English,No,Part-Time,Not Applicable
63e5242d0f2f6cbb94a848d8,<b>Most people are woefully under-informed.,Highly disagree,94/94,Somewhat agree,3,1708008519056,1708008522285,\Somewhat agree\,\Somewhat agree\,\3\,1708008521445,1708008521445,2389,2389,3229,buq,qns-item-noham,94,1638091,0.0-1.0-0.93,65ce1d96a8f481886a611196,AWAITING REVIEW,2024-02-15T14:20:14.190000Z,2024-02-15T14:50:09.653000Z,,2024-02-15T14:50:10.236287Z,1796.0,CVPIIDEI,723,27,Female,White,United States,United States,United States,English,No,Part-Time,Not Applicable
63e5242d0f2f6cbb94a848d8,,,,,,,,,,,,,,,,,,,,,65ce1d96a8f481886a611196,AWAITING REVIEW,2024-02-15T14:20:14.190000Z,2024-02-15T14:50:09.653000Z,,2024-02-15T14:50:10.236287Z,1796.0,CVPIIDEI,723,27,Female,White,United States,United States,United States,English,No,Part-Time,Not Applicable
