PROLIFIC_PID,Question,qns_options,quest_num,answer,answer_num,question_load_timestamp,next_btn_timestamp,text_selected,final_text_selected,option_num_selected,preview_timestamps,final_text_selected_time_stamp,rt_first_option_click,rt_final_option_click,rt_submit_click,questionnaire,trial_type,trial_index,time_elapsed,internal_node_id,Demographic_Submission id,Demographic_Status,Demographic_Started at,Demographic_Completed at,Demographic_Reviewed at,Demographic_Archived at,Demographic_Time taken,Demographic_Completion code,Demographic_Total approvals,Demographic_Age,Demographic_Sex,Demographic_Ethnicity simplified,Demographic_Country of birth,Demographic_Country of residence,Demographic_Nationality,Demographic_Language,Demographic_Student status,Demographic_Employment status,Demographic_Custom study tncs accepted at
633266bf68544440fd064f94,<b>Knowing what?s true and knowing what to do about it are usually basically the same.,Highly disagree,1/94,Somewhat agree,3,1708007060227,1708007068484,\Somewhat agree\,\Somewhat agree\,\3\,1708007067307,1708007067307,7080,7080,8257,buq,qns-item-noham,1,25177,0.0-1.0-0.0,65ce1e6cab6434f5e14383de,AWAITING REVIEW,2024-02-15T14:23:44.783000Z,2024-02-15T15:04:53.889000Z,,2024-02-15T15:04:54.598372Z,2470.0,CVPIIDEI,916,36,Male,Black,United States,United States,United States,English,No,Full-Time,Not Applicable
633266bf68544440fd064f94,<b>Most people just believe whatever is convenient for them.,Highly disagree,2/94,Highly agree,4,1708007068487,1708007073901,\Highly agree\,\Highly agree\,\4\,1708007072700,1708007072700,4213,4213,5414,buq,qns-item-noham,2,30593,0.0-1.0-0.1,65ce1e6cab6434f5e14383de,AWAITING REVIEW,2024-02-15T14:23:44.783000Z,2024-02-15T15:04:53.889000Z,,2024-02-15T15:04:54.598372Z,2470.0,CVPIIDEI,916,36,Male,Black,United States,United States,United States,English,No,Full-Time,Not Applicable
633266bf68544440fd064f94,<b>Having some big beliefs helps me sort out minor ones.,Highly disagree,3/94,Somewhat agree,3,1708007073908,1708007088595,\Somewhat agree\,\Somewhat agree\,\3\,1708007087715,1708007087715,13807,13807,14687,buq,qns-item-noham,3,45287,0.0-1.0-0.2,65ce1e6cab6434f5e14383de,AWAITING REVIEW,2024-02-15T14:23:44.783000Z,2024-02-15T15:04:53.889000Z,,2024-02-15T15:04:54.598372Z,2470.0,CVPIIDEI,916,36,Male,Black,United States,United States,United States,English,No,Full-Time,Not Applicable
633266bf68544440fd064f94,<b>Political questions are usually pretty complicated.,Highly disagree,4/94,Highly disagree,1,1708007088598,1708007092047,\Highly disagree\,\Highly disagree\,\1\,1708007090995,1708007090995,2397,2397,3449,buq,qns-item-noham,4,48739,0.0-1.0-0.3,65ce1e6cab6434f5e14383de,AWAITING REVIEW,2024-02-15T14:23:44.783000Z,2024-02-15T15:04:53.889000Z,,2024-02-15T15:04:54.598372Z,2470.0,CVPIIDEI,916,36,Male,Black,United States,United States,United States,English,No,Full-Time,Not Applicable
633266bf68544440fd064f94,<b>Figuring out what?s important in life requires learning a lot of facts.,Highly disagree,5/94,Somewhat disagree,2,1708007092049,1708007096823,\Somewhat disagree\,\Somewhat disagree\,\2\,1708007095736,1708007095736,3687,3687,4774,buq,qns-item-noham,5,53515,0.0-1.0-0.4,65ce1e6cab6434f5e14383de,AWAITING REVIEW,2024-02-15T14:23:44.783000Z,2024-02-15T15:04:53.889000Z,,2024-02-15T15:04:54.598372Z,2470.0,CVPIIDEI,916,36,Male,Black,United States,United States,United States,English,No,Full-Time,Not Applicable
633266bf68544440fd064f94,<b>It is difficult for me to remember the last time I was surprised by politics.,Highly disagree,6/94,Somewhat agree,3,1708007096825,1708007116903,\Somewhat agree\,\Somewhat agree\,\3\,1708007116135,1708007116135,19310,19310,20078,buq,qns-item-noham,6,73595,0.0-1.0-0.5,65ce1e6cab6434f5e14383de,AWAITING REVIEW,2024-02-15T14:23:44.783000Z,2024-02-15T15:04:53.889000Z,,2024-02-15T15:04:54.598372Z,2470.0,CVPIIDEI,916,36,Male,Black,United States,United States,United States,English,No,Full-Time,Not Applicable
633266bf68544440fd064f94,<b>People?s false beliefs are understandable.,Highly disagree,7/94,Somewhat disagree,2,1708007116906,1708007120431,\Somewhat disagree\,\Somewhat disagree\,\2\,1708007119822,1708007119822,2916,2916,3525,buq,qns-item-noham,7,77123,0.0-1.0-0.6,65ce1e6cab6434f5e14383de,AWAITING REVIEW,2024-02-15T14:23:44.783000Z,2024-02-15T15:04:53.889000Z,,2024-02-15T15:04:54.598372Z,2470.0,CVPIIDEI,916,36,Male,Black,United States,United States,United States,English,No,Full-Time,Not Applicable
633266bf68544440fd064f94,<b>I spend a lot of time trying to be informed about politics.,Highly disagree,8/94,Somewhat disagree,2,1708007120433,1708007124503,\Somewhat disagree\,\Somewhat disagree\,\2\,1708007123759,1708007123759,3326,3326,4070,buq,qns-item-noham,8,81195,0.0-1.0-0.7,65ce1e6cab6434f5e14383de,AWAITING REVIEW,2024-02-15T14:23:44.783000Z,2024-02-15T15:04:53.889000Z,,2024-02-15T15:04:54.598372Z,2470.0,CVPIIDEI,916,36,Male,Black,United States,United States,United States,English,No,Full-Time,Not Applicable
633266bf68544440fd064f94,<b>I think a lot about whether my beliefs are right.,Highly disagree,9/94,Highly disagree,1,1708007124505,1708007128670,\Highly disagree\,\Highly disagree\,\1\,1708007127016,1708007127016,2511,2511,4165,buq,qns-item-noham,9,85362,0.0-1.0-0.8,65ce1e6cab6434f5e14383de,AWAITING REVIEW,2024-02-15T14:23:44.783000Z,2024-02-15T15:04:53.889000Z,,2024-02-15T15:04:54.598372Z,2470.0,CVPIIDEI,916,36,Male,Black,United States,United States,United States,English,No,Full-Time,Not Applicable
633266bf68544440fd064f94,<b>Statistics can be pretty misleading sometimes.,Highly disagree,10/94,Somewhat agree,3,1708007128672,1708007135151,\Somewhat agree\,\Somewhat agree\,\3\,1708007132367,1708007132367,3695,3695,6479,buq,qns-item-noham,10,91843,0.0-1.0-0.9,65ce1e6cab6434f5e14383de,AWAITING REVIEW,2024-02-15T14:23:44.783000Z,2024-02-15T15:04:53.889000Z,,2024-02-15T15:04:54.598372Z,2470.0,CVPIIDEI,916,36,Male,Black,United States,United States,United States,English,No,Full-Time,Not Applicable
633266bf68544440fd064f94,<b>I have lots of beliefs that I?m only sort of sure about.,Highly disagree,11/94,Highly disagree,1,1708007135153,1708007192447,\Highly disagree\,\Highly disagree\,\1\,1708007162679,1708007162679,27526,27526,57294,buq,qns-item-noham,11,149139,0.0-1.0-0.10,65ce1e6cab6434f5e14383de,AWAITING REVIEW,2024-02-15T14:23:44.783000Z,2024-02-15T15:04:53.889000Z,,2024-02-15T15:04:54.598372Z,2470.0,CVPIIDEI,916,36,Male,Black,United States,United States,United States,English,No,Full-Time,Not Applicable
633266bf68544440fd064f94,"<b>If I go to my favorite restaurant and the food is surprisingly bad, it reminds me there are many disappointments in life.",Highly disagree,12/94,Somewhat disagree,2,1708007192449,1708007199415,\Somewhat disagree\,\Somewhat disagree\,\2\,1708007198439,1708007198439,5990,5990,6966,buq,qns-item-noham,12,156107,0.0-1.0-0.11,65ce1e6cab6434f5e14383de,AWAITING REVIEW,2024-02-15T14:23:44.783000Z,2024-02-15T15:04:53.889000Z,,2024-02-15T15:04:54.598372Z,2470.0,CVPIIDEI,916,36,Male,Black,United States,United States,United States,English,No,Full-Time,Not Applicable
633266bf68544440fd064f94,"<b>If you are paying attention, please select ?Somewhat agree?",Highly disagree,13/94,Somewhat agree,3,1708007199417,1708007203351,\Somewhat agree\,\Somewhat agree\,\3\,1708007201959,1708007201959,2542,2542,3934,buq,qns-item-noham,13,160043,0.0-1.0-0.12,65ce1e6cab6434f5e14383de,AWAITING REVIEW,2024-02-15T14:23:44.783000Z,2024-02-15T15:04:53.889000Z,,2024-02-15T15:04:54.598372Z,2470.0,CVPIIDEI,916,36,Male,Black,United States,United States,United States,English,No,Full-Time,Not Applicable
633266bf68544440fd064f94,"<b>When I talk to others, I often worry I?ll convince them of something I didn?t mean to.",Highly disagree,14/94,Somewhat agree,3,1708007203352,1708007228982,\Somewhat agree\,\Somewhat agree\,\3\,1708007228295,1708007228295,24943,24943,25630,buq,qns-item-noham,14,185674,0.0-1.0-0.13,65ce1e6cab6434f5e14383de,AWAITING REVIEW,2024-02-15T14:23:44.783000Z,2024-02-15T15:04:53.889000Z,,2024-02-15T15:04:54.598372Z,2470.0,CVPIIDEI,916,36,Male,Black,United States,United States,United States,English,No,Full-Time,Not Applicable
633266bf68544440fd064f94,<b>I would need to learn something utterly shocking about my party in order to change my political views.,Highly disagree,15/94,Highly agree,4,1708007228984,1708007234671,\Highly agree\,\Highly agree\,\4\,1708007233566,1708007233566,4582,4582,5687,buq,qns-item-noham,15,191363,0.0-1.0-0.14,65ce1e6cab6434f5e14383de,AWAITING REVIEW,2024-02-15T14:23:44.783000Z,2024-02-15T15:04:53.889000Z,,2024-02-15T15:04:54.598372Z,2470.0,CVPIIDEI,916,36,Male,Black,United States,United States,United States,English,No,Full-Time,Not Applicable
633266bf68544440fd064f94,"<b>When I have new experiences, I tend to think of them as unique.",Highly disagree,16/94,Somewhat disagree,2,1708007234673,1708007238503,\Somewhat disagree\,\Somewhat disagree\,\2\,1708007237606,1708007237606,2933,2933,3830,buq,qns-item-noham,16,195195,0.0-1.0-0.15,65ce1e6cab6434f5e14383de,AWAITING REVIEW,2024-02-15T14:23:44.783000Z,2024-02-15T15:04:53.889000Z,,2024-02-15T15:04:54.598372Z,2470.0,CVPIIDEI,916,36,Male,Black,United States,United States,United States,English,No,Full-Time,Not Applicable
633266bf68544440fd064f94,<b>I change my mind about specific policies pretty frequently.,Highly disagree,17/94,Highly disagree,1,1708007238505,1708007320679,\Highly disagree\,\Highly disagree\,\1\,1708007319182,1708007319182,80677,80677,82174,buq,qns-item-noham,17,277371,0.0-1.0-0.16,65ce1e6cab6434f5e14383de,AWAITING REVIEW,2024-02-15T14:23:44.783000Z,2024-02-15T15:04:53.889000Z,,2024-02-15T15:04:54.598372Z,2470.0,CVPIIDEI,916,36,Male,Black,United States,United States,United States,English,No,Full-Time,Not Applicable
633266bf68544440fd064f94,"<b>If a politician in my political party supports something I disagree with, I give them the benefit of the doubt, as such issues often involve hidden complexities that aren?t obvious.   ",Highly disagree,18/94,Somewhat agree,3,1708007320680,1708007335502,\Somewhat agree\,\Somewhat agree\,\3\,1708007334799,1708007334799,14119,14119,14822,buq,qns-item-noham,18,292194,0.0-1.0-0.17,65ce1e6cab6434f5e14383de,AWAITING REVIEW,2024-02-15T14:23:44.783000Z,2024-02-15T15:04:53.889000Z,,2024-02-15T15:04:54.598372Z,2470.0,CVPIIDEI,916,36,Male,Black,United States,United States,United States,English,No,Full-Time,Not Applicable
633266bf68544440fd064f94,<b>People?s bad politics are usually motivated by hatefulness.,Highly disagree,19/94,Somewhat agree,3,1708007335505,1708007354830,\Somewhat agree\,\Somewhat agree\,\3\,1708007354078,1708007354078,18573,18573,19325,buq,qns-item-noham,19,311522,0.0-1.0-0.18,65ce1e6cab6434f5e14383de,AWAITING REVIEW,2024-02-15T14:23:44.783000Z,2024-02-15T15:04:53.889000Z,,2024-02-15T15:04:54.598372Z,2470.0,CVPIIDEI,916,36,Male,Black,United States,United States,United States,English,No,Full-Time,Not Applicable
633266bf68544440fd064f94,<b>I think a lot about how to reconcile my beliefs with one another.,Highly disagree,20/94,Highly disagree,1,1708007354832,1708007448493,\Highly disagree\,\Highly disagree\,\1\,1708007447846,1708007447846,93014,93014,93661,buq,qns-item-noham,20,405185,0.0-1.0-0.19,65ce1e6cab6434f5e14383de,AWAITING REVIEW,2024-02-15T14:23:44.783000Z,2024-02-15T15:04:53.889000Z,,2024-02-15T15:04:54.598372Z,2470.0,CVPIIDEI,916,36,Male,Black,United States,United States,United States,English,No,Full-Time,Not Applicable
633266bf68544440fd064f94,<b>I might have false beliefs about important topics.,Highly disagree,21/94,Somewhat disagree,2,1708007448496,1708007452262,\Somewhat disagree\,\Somewhat disagree\,\2\,1708007451430,1708007451430,2934,2934,3766,buq,qns-item-noham,21,408954,0.0-1.0-0.20,65ce1e6cab6434f5e14383de,AWAITING REVIEW,2024-02-15T14:23:44.783000Z,2024-02-15T15:04:53.889000Z,,2024-02-15T15:04:54.598372Z,2470.0,CVPIIDEI,916,36,Male,Black,United States,United States,United States,English,No,Full-Time,Not Applicable
633266bf68544440fd064f94,"<b>If a good friend of mine does something unexpected that upsets me, I feel like I don?t know them anymore.",Highly disagree,22/94,Highly disagree,1,1708007452264,1708007502733,\Highly disagree\,\Highly disagree\,\1\,1708007501743,1708007501743,49479,49479,50469,buq,qns-item-noham,22,459425,0.0-1.0-0.21,65ce1e6cab6434f5e14383de,AWAITING REVIEW,2024-02-15T14:23:44.783000Z,2024-02-15T15:04:53.889000Z,,2024-02-15T15:04:54.598372Z,2470.0,CVPIIDEI,916,36,Male,Black,United States,United States,United States,English,No,Full-Time,Not Applicable
633266bf68544440fd064f94,<b>Other people?s beliefs are often incoherent.,Highly disagree,23/94,Somewhat agree,3,1708007502735,1708007518317,\Somewhat agree\,\Somewhat agree\,\3\,1708007517325,1708007517325,14590,14590,15582,buq,qns-item-noham,23,475009,0.0-1.0-0.22,65ce1e6cab6434f5e14383de,AWAITING REVIEW,2024-02-15T14:23:44.783000Z,2024-02-15T15:04:53.889000Z,,2024-02-15T15:04:54.598372Z,2470.0,CVPIIDEI,916,36,Male,Black,United States,United States,United States,English,No,Full-Time,Not Applicable
633266bf68544440fd064f94,"<b>Every now and then, a new experience will unsettle beliefs I?ve had for a while.",Highly disagree,24/94,Highly disagree,1,1708007518319,1708007609725,\Highly disagree\,\Highly disagree\,\1\,1708007608765,1708007608765,90446,90446,91406,buq,qns-item-noham,24,566417,0.0-1.0-0.23,65ce1e6cab6434f5e14383de,AWAITING REVIEW,2024-02-15T14:23:44.783000Z,2024-02-15T15:04:53.889000Z,,2024-02-15T15:04:54.598372Z,2470.0,CVPIIDEI,916,36,Male,Black,United States,United States,United States,English,No,Full-Time,Not Applicable
633266bf68544440fd064f94,<b>Some policies I agree with in principle are so bad I don?t support them. ,Highly disagree,25/94,Somewhat disagree,2,1708007609727,1708007614325,\Somewhat disagree\,\Somewhat disagree\,\2\,1708007613613,1708007613613,3886,3886,4598,buq,qns-item-noham,25,571017,0.0-1.0-0.24,65ce1e6cab6434f5e14383de,AWAITING REVIEW,2024-02-15T14:23:44.783000Z,2024-02-15T15:04:53.889000Z,,2024-02-15T15:04:54.598372Z,2470.0,CVPIIDEI,916,36,Male,Black,United States,United States,United States,English,No,Full-Time,Not Applicable
633266bf68544440fd064f94,<b>I?m pretty sure I?ve accidentally spread false information.,Highly disagree,26/94,Somewhat agree,3,1708007614327,1708007617157,\Somewhat agree\,\Somewhat agree\,\3\,1708007616421,1708007616421,2094,2094,2830,buq,qns-item-noham,26,573849,0.0-1.0-0.25,65ce1e6cab6434f5e14383de,AWAITING REVIEW,2024-02-15T14:23:44.783000Z,2024-02-15T15:04:53.889000Z,,2024-02-15T15:04:54.598372Z,2470.0,CVPIIDEI,916,36,Male,Black,United States,United States,United States,English,No,Full-Time,Not Applicable
633266bf68544440fd064f94,"<b>If I go to my favorite restaurant and the food is unexpectedly bad, then they have changed owners.",Highly disagree,27/94,Somewhat disagree,2,1708007617159,1708007671814,\Somewhat disagree\,\Somewhat disagree\,\2\,1708007642405,1708007642405,25246,25246,54655,buq,qns-item-noham,27,628506,0.0-1.0-0.26,65ce1e6cab6434f5e14383de,AWAITING REVIEW,2024-02-15T14:23:44.783000Z,2024-02-15T15:04:53.889000Z,,2024-02-15T15:04:54.598372Z,2470.0,CVPIIDEI,916,36,Male,Black,United States,United States,United States,English,No,Full-Time,Not Applicable
633266bf68544440fd064f94,"<b>In politics, it?s important to trust your friends and family.",Highly disagree,28/94,Somewhat agree,3,1708007671816,1708007675613,\Somewhat agree\,\Somewhat agree\,\3\,1708007674277,1708007674277,2461,2461,3797,buq,qns-item-noham,28,632305,0.0-1.0-0.27,65ce1e6cab6434f5e14383de,AWAITING REVIEW,2024-02-15T14:23:44.783000Z,2024-02-15T15:04:53.889000Z,,2024-02-15T15:04:54.598372Z,2470.0,CVPIIDEI,916,36,Male,Black,United States,United States,United States,English,No,Full-Time,Not Applicable
633266bf68544440fd064f94,<b>It?s OK to have some conflicting beliefs.,Highly disagree,29/94,Highly agree,4,1708007675615,1708007678382,\Highly agree\,\Highly agree\,\4\,1708007677525,1708007677525,1910,1910,2767,buq,qns-item-noham,29,635074,0.0-1.0-0.28,65ce1e6cab6434f5e14383de,AWAITING REVIEW,2024-02-15T14:23:44.783000Z,2024-02-15T15:04:53.889000Z,,2024-02-15T15:04:54.598372Z,2470.0,CVPIIDEI,916,36,Male,Black,United States,United States,United States,English,No,Full-Time,Not Applicable
633266bf68544440fd064f94,<b>Listening to people I disagree with makes my opinions better.,Highly disagree,30/94,Somewhat agree,3,1708007678384,1708007682742,\Somewhat agree\,\Somewhat agree\,\3\,1708007681781,1708007681781,3397,3397,4358,buq,qns-item-noham,30,639434,0.0-1.0-0.29,65ce1e6cab6434f5e14383de,AWAITING REVIEW,2024-02-15T14:23:44.783000Z,2024-02-15T15:04:53.889000Z,,2024-02-15T15:04:54.598372Z,2470.0,CVPIIDEI,916,36,Male,Black,United States,United States,United States,English,No,Full-Time,Not Applicable
633266bf68544440fd064f94,<b>My moral compass sometimes makes it harder to determine what?s true.,Highly disagree,31/94,Somewhat disagree,2,1708007682743,1708007749661,\Somewhat disagree\,\Somewhat disagree\,\2\,1708007719341,1708007720781,36598,38038,66918,buq,qns-item-noham,31,706353,0.0-1.0-0.30,65ce1e6cab6434f5e14383de,AWAITING REVIEW,2024-02-15T14:23:44.783000Z,2024-02-15T15:04:53.889000Z,,2024-02-15T15:04:54.598372Z,2470.0,CVPIIDEI,916,36,Male,Black,United States,United States,United States,English,No,Full-Time,Not Applicable
633266bf68544440fd064f94,<b>Evidence pointing in the wrong direction isn?t really evidence at all.,Highly disagree,32/94,Somewhat disagree,2,1708007749663,1708007756341,\Somewhat disagree\,\Somewhat disagree\,\2\,1708007755532,1708007755532,5869,5869,6678,buq,qns-item-noham,32,713033,0.0-1.0-0.31,65ce1e6cab6434f5e14383de,AWAITING REVIEW,2024-02-15T14:23:44.783000Z,2024-02-15T15:04:53.889000Z,,2024-02-15T15:04:54.598372Z,2470.0,CVPIIDEI,916,36,Male,Black,United States,United States,United States,English,No,Full-Time,Not Applicable
633266bf68544440fd064f94,"<b>If the political party I support messes up, it makes me think politics is rotten.",Highly disagree,33/94,Somewhat disagree,2,1708007756343,1708007790581,\Somewhat disagree\,\Somewhat disagree\,\2\,1708007789845,1708007789845,33502,33502,34238,buq,qns-item-noham,33,747273,0.0-1.0-0.32,65ce1e6cab6434f5e14383de,AWAITING REVIEW,2024-02-15T14:23:44.783000Z,2024-02-15T15:04:53.889000Z,,2024-02-15T15:04:54.598372Z,2470.0,CVPIIDEI,916,36,Male,Black,United States,United States,United States,English,No,Full-Time,Not Applicable
633266bf68544440fd064f94,<b>Lots of important topics can only really be understood by some groups of people.,Highly disagree,34/94,Somewhat disagree,2,1708007790582,1708007872644,\Somewhat disagree\,\Somewhat disagree\,\2\,1708007871812,1708007871812,81230,81230,82062,buq,qns-item-noham,34,829336,0.0-1.0-0.33,65ce1e6cab6434f5e14383de,AWAITING REVIEW,2024-02-15T14:23:44.783000Z,2024-02-15T15:04:53.889000Z,,2024-02-15T15:04:54.598372Z,2470.0,CVPIIDEI,916,36,Male,Black,United States,United States,United States,English,No,Full-Time,Not Applicable
633266bf68544440fd064f94,<b>Having conflicting beliefs means you haven?t thought about them enough.,Highly disagree,35/94,Somewhat agree,3,1708007872646,1708007902412,\Somewhat agree\,\Somewhat agree\,\3\,1708007901628,1708007901628,28982,28982,29766,buq,qns-item-noham,35,859104,0.0-1.0-0.34,65ce1e6cab6434f5e14383de,AWAITING REVIEW,2024-02-15T14:23:44.783000Z,2024-02-15T15:04:53.889000Z,,2024-02-15T15:04:54.598372Z,2470.0,CVPIIDEI,916,36,Male,Black,United States,United States,United States,English,No,Full-Time,Not Applicable
633266bf68544440fd064f94,<b>I do not often change my political opinions.,Highly disagree,36/94,Highly agree,4,1708007902414,1708007906988,\Highly agree\,\Highly agree\,\4\,1708007905652,1708007905652,3238,3238,4574,buq,qns-item-noham,36,863680,0.0-1.0-0.35,65ce1e6cab6434f5e14383de,AWAITING REVIEW,2024-02-15T14:23:44.783000Z,2024-02-15T15:04:53.889000Z,,2024-02-15T15:04:54.598372Z,2470.0,CVPIIDEI,916,36,Male,Black,United States,United States,United States,English,No,Full-Time,Not Applicable
633266bf68544440fd064f94,<b>It?s difficult to not have at least some conflicting beliefs.,Highly disagree,37/94,Somewhat agree,3,1708007906990,1708007932844,\Somewhat agree\,\Somewhat agree\,\3\,1708007932012,1708007932012,25022,25022,25854,buq,qns-item-noham,37,889536,0.0-1.0-0.36,65ce1e6cab6434f5e14383de,AWAITING REVIEW,2024-02-15T14:23:44.783000Z,2024-02-15T15:04:53.889000Z,,2024-02-15T15:04:54.598372Z,2470.0,CVPIIDEI,916,36,Male,Black,United States,United States,United States,English,No,Full-Time,Not Applicable
633266bf68544440fd064f94,<b>Wishful thinking causes a lot of problems.,Highly disagree,38/94,Somewhat disagree,2,1708007932846,1708007967036,\Somewhat disagree\,\Somewhat disagree\,\2\,1708007966084,1708007966084,33238,33238,34190,buq,qns-item-noham,38,923728,0.0-1.0-0.37,65ce1e6cab6434f5e14383de,AWAITING REVIEW,2024-02-15T14:23:44.783000Z,2024-02-15T15:04:53.889000Z,,2024-02-15T15:04:54.598372Z,2470.0,CVPIIDEI,916,36,Male,Black,United States,United States,United States,English,No,Full-Time,Not Applicable
633266bf68544440fd064f94,<b>I judge a food item only once I try it many times.,Highly disagree,39/94,Somewhat disagree,2,1708007967038,1708008010276,\Somewhat disagree\,\Somewhat disagree\,\2\,1708008009524,1708008009524,42486,42486,43238,buq,qns-item-noham,39,966968,0.0-1.0-0.38,65ce1e6cab6434f5e14383de,AWAITING REVIEW,2024-02-15T14:23:44.783000Z,2024-02-15T15:04:53.889000Z,,2024-02-15T15:04:54.598372Z,2470.0,CVPIIDEI,916,36,Male,Black,United States,United States,United States,English,No,Full-Time,Not Applicable
633266bf68544440fd064f94,"<b>When a person holds conflicting beliefs, they should really try to figure out what?s wrong.",Highly disagree,40/94,Highly agree,4,1708008010279,1708008045316,\Highly agree\,\Highly agree\,\4\,1708008015724,1708008015724,5445,5445,35037,buq,qns-item-noham,40,1002008,0.0-1.0-0.39,65ce1e6cab6434f5e14383de,AWAITING REVIEW,2024-02-15T14:23:44.783000Z,2024-02-15T15:04:53.889000Z,,2024-02-15T15:04:54.598372Z,2470.0,CVPIIDEI,916,36,Male,Black,United States,United States,United States,English,No,Full-Time,Not Applicable
633266bf68544440fd064f94,<b>Knowing what?s important in life is easy.,Highly disagree,41/94,Somewhat disagree,2,1708008045318,1708008050196,\Somewhat disagree\,\Somewhat disagree\,\2\,1708008048948,1708008048948,3630,3630,4878,buq,qns-item-noham,41,1006888,0.0-1.0-0.40,65ce1e6cab6434f5e14383de,AWAITING REVIEW,2024-02-15T14:23:44.783000Z,2024-02-15T15:04:53.889000Z,,2024-02-15T15:04:54.598372Z,2470.0,CVPIIDEI,916,36,Male,Black,United States,United States,United States,English,No,Full-Time,Not Applicable
633266bf68544440fd064f94,<b>I swim across the Atlantic Ocean to get to work every day.,Highly disagree,42/94,Highly disagree,1,1708008050198,1708008053780,\Highly disagree\,\Highly disagree\,\1\,1708008052380,1708008052380,2182,2182,3582,buq,qns-item-noham,42,1010472,0.0-1.0-0.41,65ce1e6cab6434f5e14383de,AWAITING REVIEW,2024-02-15T14:23:44.783000Z,2024-02-15T15:04:53.889000Z,,2024-02-15T15:04:54.598372Z,2470.0,CVPIIDEI,916,36,Male,Black,United States,United States,United States,English,No,Full-Time,Not Applicable
633266bf68544440fd064f94,"<b>Sometimes, you just have to ignore evidence that you know is wrong.",Highly disagree,43/94,Somewhat disagree,2,1708008053782,1708008177668,\Somewhat disagree\,\Somewhat disagree\,\2\,1708008145811,1708008145811,92029,92029,123886,buq,qns-item-noham,43,1134360,0.0-1.0-0.42,65ce1e6cab6434f5e14383de,AWAITING REVIEW,2024-02-15T14:23:44.783000Z,2024-02-15T15:04:53.889000Z,,2024-02-15T15:04:54.598372Z,2470.0,CVPIIDEI,916,36,Male,Black,United States,United States,United States,English,No,Full-Time,Not Applicable
633266bf68544440fd064f94,<b>I have had some false beliefs.,Highly disagree,44/94,Somewhat agree,3,1708008177670,1708008180420,\Somewhat agree\,\Somewhat agree\,\3\,1708008179788,1708008179788,2118,2118,2750,buq,qns-item-noham,44,1137112,0.0-1.0-0.43,65ce1e6cab6434f5e14383de,AWAITING REVIEW,2024-02-15T14:23:44.783000Z,2024-02-15T15:04:53.889000Z,,2024-02-15T15:04:54.598372Z,2470.0,CVPIIDEI,916,36,Male,Black,United States,United States,United States,English,No,Full-Time,Not Applicable
633266bf68544440fd064f94,"<b>If one friend does something that upsets me, I sometimes start to distrust people in general.",Highly disagree,45/94,Highly disagree,1,1708008180422,1708008214611,\Highly disagree\,\Highly disagree\,\1\,1708008203677,1708008203677,23255,23255,34189,buq,qns-item-noham,45,1171303,0.0-1.0-0.44,65ce1e6cab6434f5e14383de,AWAITING REVIEW,2024-02-15T14:23:44.783000Z,2024-02-15T15:04:53.889000Z,,2024-02-15T15:04:54.598372Z,2470.0,CVPIIDEI,916,36,Male,Black,United States,United States,United States,English,No,Full-Time,Not Applicable
633266bf68544440fd064f94,<b>The facts about most important matters are easy to find.,Highly disagree,46/94,Somewhat disagree,2,1708008214613,1708008248596,\Somewhat disagree\,\Somewhat disagree\,\2\,1708008247819,1708008247819,33206,33206,33983,buq,qns-item-noham,46,1205288,0.0-1.0-0.45,65ce1e6cab6434f5e14383de,AWAITING REVIEW,2024-02-15T14:23:44.783000Z,2024-02-15T15:04:53.889000Z,,2024-02-15T15:04:54.598372Z,2470.0,CVPIIDEI,916,36,Male,Black,United States,United States,United States,English,No,Full-Time,Not Applicable
633266bf68544440fd064f94,<b>It?s better to know what?s true than to know what?s moral.,Highly disagree,47/94,Highly agree,4,1708008248598,1708008255659,\Highly agree\,\Highly agree\,\4\,1708008254643,1708008254643,6045,6045,7061,buq,qns-item-noham,47,1212351,0.0-1.0-0.46,65ce1e6cab6434f5e14383de,AWAITING REVIEW,2024-02-15T14:23:44.783000Z,2024-02-15T15:04:53.889000Z,,2024-02-15T15:04:54.598372Z,2470.0,CVPIIDEI,916,36,Male,Black,United States,United States,United States,English,No,Full-Time,Not Applicable
633266bf68544440fd064f94,<b>I used to think the world was less complicated than I do now.,Highly disagree,48/94,Highly agree,4,1708008255661,1708008320947,\Highly agree\,\Highly agree\,\4\,1708008320122,1708008320122,64461,64461,65286,buq,qns-item-noham,48,1277639,0.0-1.0-0.47,65ce1e6cab6434f5e14383de,AWAITING REVIEW,2024-02-15T14:23:44.783000Z,2024-02-15T15:04:53.889000Z,,2024-02-15T15:04:54.598372Z,2470.0,CVPIIDEI,916,36,Male,Black,United States,United States,United States,English,No,Full-Time,Not Applicable
633266bf68544440fd064f94,<b>People are usually completely right or completely wrong.,Highly disagree,49/94,Somewhat disagree,2,1708008320949,1708008325635,\Somewhat disagree\,\Somewhat disagree\,\2\,1708008324987,1708008324987,4038,4038,4686,buq,qns-item-noham,49,1282327,0.0-1.0-0.48,65ce1e6cab6434f5e14383de,AWAITING REVIEW,2024-02-15T14:23:44.783000Z,2024-02-15T15:04:53.889000Z,,2024-02-15T15:04:54.598372Z,2470.0,CVPIIDEI,916,36,Male,Black,United States,United States,United States,English,No,Full-Time,Not Applicable
633266bf68544440fd064f94,<b>I spend a lot of time considering alternatives to my beliefs.,Highly disagree,50/94,Highly disagree,1,1708008325637,1708008466050,\Highly disagree\,\Highly disagree\,\1\,1708008465498,1708008465498,139861,139861,140413,buq,qns-item-noham,50,1422742,0.0-1.0-0.49,65ce1e6cab6434f5e14383de,AWAITING REVIEW,2024-02-15T14:23:44.783000Z,2024-02-15T15:04:53.889000Z,,2024-02-15T15:04:54.598372Z,2470.0,CVPIIDEI,916,36,Male,Black,United States,United States,United States,English,No,Full-Time,Not Applicable
633266bf68544440fd064f94,"<b>Political enemies need to be defeated, not convinced.",Highly disagree,51/94,Somewhat agree,3,1708008466052,1708008470874,\Somewhat agree\,\Somewhat agree\,\3\,1708008470194,1708008470194,4142,4142,4822,buq,qns-item-noham,51,1427566,0.0-1.0-0.50,65ce1e6cab6434f5e14383de,AWAITING REVIEW,2024-02-15T14:23:44.783000Z,2024-02-15T15:04:53.889000Z,,2024-02-15T15:04:54.598372Z,2470.0,CVPIIDEI,916,36,Male,Black,United States,United States,United States,English,No,Full-Time,Not Applicable
633266bf68544440fd064f94,<b>I form my political views only after meticulously gathering historical and present information about their policies.,Highly disagree,52/94,Somewhat agree,3,1708008470876,1708008499074,\Somewhat agree\,\Somewhat agree\,\3\,1708008476330,1708008476330,5454,5454,28198,buq,qns-item-noham,52,1455766,0.0-1.0-0.51,65ce1e6cab6434f5e14383de,AWAITING REVIEW,2024-02-15T14:23:44.783000Z,2024-02-15T15:04:53.889000Z,,2024-02-15T15:04:54.598372Z,2470.0,CVPIIDEI,916,36,Male,Black,United States,United States,United States,English,No,Full-Time,Not Applicable
633266bf68544440fd064f94,<b>It is difficult for me to remember the last time I was surprised by politics.,Highly disagree,53/94,Somewhat agree,3,1708008499076,1708008503338,\Somewhat agree\,\Somewhat agree\,\3\,1708008502602,1708008502602,3526,3526,4262,buq,qns-item-noham,53,1460030,0.0-1.0-0.52,65ce1e6cab6434f5e14383de,AWAITING REVIEW,2024-02-15T14:23:44.783000Z,2024-02-15T15:04:53.889000Z,,2024-02-15T15:04:54.598372Z,2470.0,CVPIIDEI,916,36,Male,Black,United States,United States,United States,English,No,Full-Time,Not Applicable
633266bf68544440fd064f94,"<b>When I find out I?m wrong, I think a lot about my related beliefs.",Highly disagree,54/94,Highly disagree,1,1708008503340,1708008582971,\Highly disagree\,\Highly disagree\,\1\,1708008552210,1708008552210,48870,48870,79631,buq,qns-item-noham,54,1539663,0.0-1.0-0.53,65ce1e6cab6434f5e14383de,AWAITING REVIEW,2024-02-15T14:23:44.783000Z,2024-02-15T15:04:53.889000Z,,2024-02-15T15:04:54.598372Z,2470.0,CVPIIDEI,916,36,Male,Black,United States,United States,United States,English,No,Full-Time,Not Applicable
633266bf68544440fd064f94,"<b>If the political party I support messes up, it makes me think you can?t trust anyone these days",Highly disagree,55/94,Somewhat disagree,2,1708008582973,1708008588066,\Somewhat disagree\,\Somewhat disagree\,\2\,1708008587314,1708008587314,4341,4341,5093,buq,qns-item-noham,55,1544758,0.0-1.0-0.54,65ce1e6cab6434f5e14383de,AWAITING REVIEW,2024-02-15T14:23:44.783000Z,2024-02-15T15:04:53.889000Z,,2024-02-15T15:04:54.598372Z,2470.0,CVPIIDEI,916,36,Male,Black,United States,United States,United States,English,No,Full-Time,Not Applicable
633266bf68544440fd064f94,<b>People?s brains turn off when they talk about politics.,Highly disagree,56/94,Somewhat agree,3,1708008588068,1708008591386,\Somewhat agree\,\Somewhat agree\,\3\,1708008590610,1708008590610,2542,2542,3318,buq,qns-item-noham,56,1548078,0.0-1.0-0.55,65ce1e6cab6434f5e14383de,AWAITING REVIEW,2024-02-15T14:23:44.783000Z,2024-02-15T15:04:53.889000Z,,2024-02-15T15:04:54.598372Z,2470.0,CVPIIDEI,916,36,Male,Black,United States,United States,United States,English,No,Full-Time,Not Applicable
633266bf68544440fd064f94,<b>People who are wrong are usually just ignoring the obvious.,Highly disagree,57/94,Somewhat agree,3,1708008591388,1708008595348,\Somewhat agree\,\Somewhat agree\,\3\,1708008594218,1708008594218,2830,2830,3960,buq,qns-item-noham,57,1552040,0.0-1.0-0.56,65ce1e6cab6434f5e14383de,AWAITING REVIEW,2024-02-15T14:23:44.783000Z,2024-02-15T15:04:53.889000Z,,2024-02-15T15:04:54.598372Z,2470.0,CVPIIDEI,916,36,Male,Black,United States,United States,United States,English,No,Full-Time,Not Applicable
633266bf68544440fd064f94,"<b>When forming my views on people, I rely more on what they are like now rather than rely on my past experience with them.",Highly disagree,58/94,Somewhat agree,3,1708008595350,1708008696426,\Somewhat agree\,\Somewhat agree\,\3\,1708008695697,1708008695697,100347,100347,101076,buq,qns-item-noham,58,1653118,0.0-1.0-0.57,65ce1e6cab6434f5e14383de,AWAITING REVIEW,2024-02-15T14:23:44.783000Z,2024-02-15T15:04:53.889000Z,,2024-02-15T15:04:54.598372Z,2470.0,CVPIIDEI,916,36,Male,Black,United States,United States,United States,English,No,Full-Time,Not Applicable
633266bf68544440fd064f94,"<b>When people contradict my beliefs, I usually know about their evidence already.",Highly disagree,59/94,Somewhat agree,3,1708008696428,1708008731938,\Somewhat agree\,\Somewhat agree\,\3\,1708008730922,1708008730922,34494,34494,35510,buq,qns-item-noham,59,1688630,0.0-1.0-0.58,65ce1e6cab6434f5e14383de,AWAITING REVIEW,2024-02-15T14:23:44.783000Z,2024-02-15T15:04:53.889000Z,,2024-02-15T15:04:54.598372Z,2470.0,CVPIIDEI,916,36,Male,Black,United States,United States,United States,English,No,Full-Time,Not Applicable
633266bf68544440fd064f94,<b>Figuring out what?s true and what?s false mainly requires a strong moral compass.,Highly disagree,60/94,Somewhat agree,3,1708008731940,1708008736418,\Somewhat agree\,\Somewhat agree\,\3\,1708008735346,1708008735346,3406,3406,4478,buq,qns-item-noham,60,1693110,0.0-1.0-0.59,65ce1e6cab6434f5e14383de,AWAITING REVIEW,2024-02-15T14:23:44.783000Z,2024-02-15T15:04:53.889000Z,,2024-02-15T15:04:54.598372Z,2470.0,CVPIIDEI,916,36,Male,Black,United States,United States,United States,English,No,Full-Time,Not Applicable
633266bf68544440fd064f94,"<b>Usually I?m wrong about simple things, not complicated ones.",Highly disagree,61/94,Somewhat disagree,2,1708008736420,1708008772106,\Somewhat disagree\,\Somewhat disagree\,\2\,1708008771034,1708008771034,34614,34614,35686,buq,qns-item-noham,61,1728798,0.0-1.0-0.60,65ce1e6cab6434f5e14383de,AWAITING REVIEW,2024-02-15T14:23:44.783000Z,2024-02-15T15:04:53.889000Z,,2024-02-15T15:04:54.598372Z,2470.0,CVPIIDEI,916,36,Male,Black,United States,United States,United States,English,No,Full-Time,Not Applicable
633266bf68544440fd064f94,<b>Getting all the information I want about important things is hard.,Highly disagree,62/94,Highly agree,4,1708008772108,1708008812858,\Highly agree\,\Highly agree\,\4\,1708008811961,1708008811961,39853,39853,40750,buq,qns-item-noham,62,1769550,0.0-1.0-0.61,65ce1e6cab6434f5e14383de,AWAITING REVIEW,2024-02-15T14:23:44.783000Z,2024-02-15T15:04:53.889000Z,,2024-02-15T15:04:54.598372Z,2470.0,CVPIIDEI,916,36,Male,Black,United States,United States,United States,English,No,Full-Time,Not Applicable
633266bf68544440fd064f94,<b>Most false beliefs spread because people try to deceive one another.,Highly disagree,63/94,Highly agree,4,1708008812859,1708008893641,\Highly agree\,\Highly agree\,\4\,1708008892841,1708008892841,79982,79982,80782,buq,qns-item-noham,63,1850333,0.0-1.0-0.62,65ce1e6cab6434f5e14383de,AWAITING REVIEW,2024-02-15T14:23:44.783000Z,2024-02-15T15:04:53.889000Z,,2024-02-15T15:04:54.598372Z,2470.0,CVPIIDEI,916,36,Male,Black,United States,United States,United States,English,No,Full-Time,Not Applicable
633266bf68544440fd064f94,<b>I can usually find something to agree with in most people?s beliefs.,Highly disagree,64/94,Somewhat agree,3,1708008893643,1708009002066,\Somewhat agree\,\Somewhat agree\,\3\,1708009001265,1708009001265,107622,107622,108423,buq,qns-item-noham,64,1958758,0.0-1.0-0.63,65ce1e6cab6434f5e14383de,AWAITING REVIEW,2024-02-15T14:23:44.783000Z,2024-02-15T15:04:53.889000Z,,2024-02-15T15:04:54.598372Z,2470.0,CVPIIDEI,916,36,Male,Black,United States,United States,United States,English,No,Full-Time,Not Applicable
633266bf68544440fd064f94,<b>I only form my views of people once I get to know them very well.,Highly disagree,65/94,Somewhat disagree,2,1708009002068,1708009006401,\Somewhat agree\,\Somewhat disagree\,\3\,1708009004634,1708009005553,2566,3485,4333,buq,qns-item-noham,65,1963093,0.0-1.0-0.64,65ce1e6cab6434f5e14383de,AWAITING REVIEW,2024-02-15T14:23:44.783000Z,2024-02-15T15:04:53.889000Z,,2024-02-15T15:04:54.598372Z,2470.0,CVPIIDEI,916,36,Male,Black,United States,United States,United States,English,No,Full-Time,Not Applicable
633266bf68544440fd064f94,"<b>When people tell me important things about the world, I usually believe them.",Highly disagree,66/94,Somewhat disagree,2,1708009006403,1708009062616,\Somewhat disagree\,\Somewhat disagree\,\2\,1708009061712,1708009061712,55309,55309,56213,buq,qns-item-noham,66,2019308,0.0-1.0-0.65,65ce1e6cab6434f5e14383de,AWAITING REVIEW,2024-02-15T14:23:44.783000Z,2024-02-15T15:04:53.889000Z,,2024-02-15T15:04:54.598372Z,2470.0,CVPIIDEI,916,36,Male,Black,United States,United States,United States,English,No,Full-Time,Not Applicable
633266bf68544440fd064f94,"<b>If a friend does something that upsets me, it reminds me what an unpredictable place the world is.",Highly disagree,67/94,Somewhat disagree,2,1708009062618,1708009069064,\Somewhat disagree\,\Somewhat disagree\,\2\,1708009067904,1708009067904,5286,5286,6446,buq,qns-item-noham,67,2025756,0.0-1.0-0.66,65ce1e6cab6434f5e14383de,AWAITING REVIEW,2024-02-15T14:23:44.783000Z,2024-02-15T15:04:53.889000Z,,2024-02-15T15:04:54.598372Z,2470.0,CVPIIDEI,916,36,Male,Black,United States,United States,United States,English,No,Full-Time,Not Applicable
633266bf68544440fd064f94,<b>People tend to believe whatever is good for their friends.,Highly disagree,68/94,Somewhat agree,3,1708009069066,1708009105488,\Somewhat agree\,\Somewhat agree\,\3\,1708009104049,1708009104049,34983,34983,36422,buq,qns-item-noham,68,2062180,0.0-1.0-0.67,65ce1e6cab6434f5e14383de,AWAITING REVIEW,2024-02-15T14:23:44.783000Z,2024-02-15T15:04:53.889000Z,,2024-02-15T15:04:54.598372Z,2470.0,CVPIIDEI,916,36,Male,Black,United States,United States,United States,English,No,Full-Time,Not Applicable
633266bf68544440fd064f94,<b>I used to be more certain my beliefs were true.,Highly disagree,69/94,Somewhat agree,3,1708009105490,1708009127729,\Somewhat agree\,\Somewhat agree\,\3\,1708009126736,1708009126736,21246,21246,22239,buq,qns-item-noham,69,2084421,0.0-1.0-0.68,65ce1e6cab6434f5e14383de,AWAITING REVIEW,2024-02-15T14:23:44.783000Z,2024-02-15T15:04:53.889000Z,,2024-02-15T15:04:54.598372Z,2470.0,CVPIIDEI,916,36,Male,Black,United States,United States,United States,English,No,Full-Time,Not Applicable
633266bf68544440fd064f94,<b>It?s often pretty easy to figure out whether something is true based on who said it.,Highly disagree,70/94,Somewhat disagree,2,1708009127731,1708009132113,\Somewhat disagree\,\Somewhat disagree\,\2\,1708009131241,1708009131241,3510,3510,4382,buq,qns-item-noham,70,2088805,0.0-1.0-0.69,65ce1e6cab6434f5e14383de,AWAITING REVIEW,2024-02-15T14:23:44.783000Z,2024-02-15T15:04:53.889000Z,,2024-02-15T15:04:54.598372Z,2470.0,CVPIIDEI,916,36,Male,Black,United States,United States,United States,English,No,Full-Time,Not Applicable
633266bf68544440fd064f94,<b>I transform into a hummingbird every day.,Highly disagree,71/94,Highly disagree,1,1708009132115,1708009136185,\Highly disagree\,\Highly disagree\,\1\,1708009134418,1708009134418,2303,2303,4070,buq,qns-item-noham,71,2092877,0.0-1.0-0.70,65ce1e6cab6434f5e14383de,AWAITING REVIEW,2024-02-15T14:23:44.783000Z,2024-02-15T15:04:53.889000Z,,2024-02-15T15:04:54.598372Z,2470.0,CVPIIDEI,916,36,Male,Black,United States,United States,United States,English,No,Full-Time,Not Applicable
633266bf68544440fd064f94,<b>I think a lot about arguments against my views.,Highly disagree,72/94,Highly disagree,1,1708009136186,1708009158816,\Highly disagree\,\Highly disagree\,\1\,1708009140104,1708009140104,3918,3918,22630,buq,qns-item-noham,72,2115509,0.0-1.0-0.71,65ce1e6cab6434f5e14383de,AWAITING REVIEW,2024-02-15T14:23:44.783000Z,2024-02-15T15:04:53.889000Z,,2024-02-15T15:04:54.598372Z,2470.0,CVPIIDEI,916,36,Male,Black,United States,United States,United States,English,No,Full-Time,Not Applicable
633266bf68544440fd064f94,<b>Personal experience is usually more important than facts and figures.,Highly disagree,73/94,Highly agree,4,1708009158818,1708009164041,\Highly agree\,\Highly agree\,\4\,1708009163176,1708009163176,4358,4358,5223,buq,qns-item-noham,73,2120733,0.0-1.0-0.72,65ce1e6cab6434f5e14383de,AWAITING REVIEW,2024-02-15T14:23:44.783000Z,2024-02-15T15:04:53.889000Z,,2024-02-15T15:04:54.598372Z,2470.0,CVPIIDEI,916,36,Male,Black,United States,United States,United States,English,No,Full-Time,Not Applicable
633266bf68544440fd064f94,<b>I?ve been tricked before about important matters.,Highly disagree,74/94,Highly agree,4,1708009164043,1708009166768,\Highly agree\,\Highly agree\,\4\,1708009166088,1708009166088,2045,2045,2725,buq,qns-item-noham,74,2123460,0.0-1.0-0.73,65ce1e6cab6434f5e14383de,AWAITING REVIEW,2024-02-15T14:23:44.783000Z,2024-02-15T15:04:53.889000Z,,2024-02-15T15:04:54.598372Z,2470.0,CVPIIDEI,916,36,Male,Black,United States,United States,United States,English,No,Full-Time,Not Applicable
633266bf68544440fd064f94,<b>I would need to be totally wowed if I were to change my opinion of a restaurant I don?t like.,Highly disagree,75/94,Somewhat agree,3,1708009166770,1708009174089,\Somewhat agree\,\Somewhat agree\,\3\,1708009173041,1708009173041,6271,6271,7319,buq,qns-item-noham,75,2130781,0.0-1.0-0.74,65ce1e6cab6434f5e14383de,AWAITING REVIEW,2024-02-15T14:23:44.783000Z,2024-02-15T15:04:53.889000Z,,2024-02-15T15:04:54.598372Z,2470.0,CVPIIDEI,916,36,Male,Black,United States,United States,United States,English,No,Full-Time,Not Applicable
633266bf68544440fd064f94,<b>I care a lot about politics.,Highly disagree,76/94,Somewhat disagree,2,1708009174090,1708009195992,\Somewhat disagree\,\Somewhat disagree\,\2\,1708009176008,1708009176008,1918,1918,21902,buq,qns-item-noham,76,2152684,0.0-1.0-0.75,65ce1e6cab6434f5e14383de,AWAITING REVIEW,2024-02-15T14:23:44.783000Z,2024-02-15T15:04:53.889000Z,,2024-02-15T15:04:54.598372Z,2470.0,CVPIIDEI,916,36,Male,Black,United States,United States,United States,English,No,Full-Time,Not Applicable
633266bf68544440fd064f94,<b>There are some topics I?ve been really wrong about.,Highly disagree,77/94,Somewhat agree,3,1708009195994,1708009199337,\Somewhat agree\,\Somewhat agree\,\3\,1708009198512,1708009198512,2518,2518,3343,buq,qns-item-noham,77,2156029,0.0-1.0-0.76,65ce1e6cab6434f5e14383de,AWAITING REVIEW,2024-02-15T14:23:44.783000Z,2024-02-15T15:04:53.889000Z,,2024-02-15T15:04:54.598372Z,2470.0,CVPIIDEI,916,36,Male,Black,United States,United States,United States,English,No,Full-Time,Not Applicable
633266bf68544440fd064f94,<b>Most beliefs can be supported with at least some evidence.,Highly disagree,78/94,Highly agree,4,1708009199339,1708009203328,\Highly agree\,\Highly agree\,\4\,1708009202336,1708009202336,2997,2997,3989,buq,qns-item-noham,78,2160021,0.0-1.0-0.77,65ce1e6cab6434f5e14383de,AWAITING REVIEW,2024-02-15T14:23:44.783000Z,2024-02-15T15:04:53.889000Z,,2024-02-15T15:04:54.598372Z,2470.0,CVPIIDEI,916,36,Male,Black,United States,United States,United States,English,No,Full-Time,Not Applicable
633266bf68544440fd064f94,<b>Other people make life out to be more complicated than it really is.,Highly disagree,79/94,Highly agree,4,1708009203330,1708009232528,\Highly agree\,\Highly agree\,\4\,1708009231641,1708009231641,28311,28311,29198,buq,qns-item-noham,79,2189220,0.0-1.0-0.78,65ce1e6cab6434f5e14383de,AWAITING REVIEW,2024-02-15T14:23:44.783000Z,2024-02-15T15:04:53.889000Z,,2024-02-15T15:04:54.598372Z,2470.0,CVPIIDEI,916,36,Male,Black,United States,United States,United States,English,No,Full-Time,Not Applicable
633266bf68544440fd064f94,"<b>Policy details don?t matter much, just the big picture.",Highly disagree,80/94,Somewhat disagree,2,1708009232530,1708009236880,\Somewhat disagree\,\Somewhat disagree\,\2\,1708009236152,1708009236152,3622,3622,4350,buq,qns-item-noham,80,2193572,0.0-1.0-0.79,65ce1e6cab6434f5e14383de,AWAITING REVIEW,2024-02-15T14:23:44.783000Z,2024-02-15T15:04:53.889000Z,,2024-02-15T15:04:54.598372Z,2470.0,CVPIIDEI,916,36,Male,Black,United States,United States,United States,English,No,Full-Time,Not Applicable
633266bf68544440fd064f94,<b>I know my friends so well they can hardly ever surprise me.,Highly disagree,81/94,Somewhat disagree,2,1708009236883,1708009240464,\Somewhat disagree\,\Somewhat disagree\,\2\,1708009239544,1708009239544,2661,2661,3581,buq,qns-item-noham,81,2197156,0.0-1.0-0.80,65ce1e6cab6434f5e14383de,AWAITING REVIEW,2024-02-15T14:23:44.783000Z,2024-02-15T15:04:53.889000Z,,2024-02-15T15:04:54.598372Z,2470.0,CVPIIDEI,916,36,Male,Black,United States,United States,United States,English,No,Full-Time,Not Applicable
633266bf68544440fd064f94,<b>I do not often change my views on people.,Highly disagree,82/94,Somewhat agree,3,1708009240466,1708009265752,\Somewhat agree\,\Somewhat agree\,\3\,1708009264600,1708009264600,24134,24134,25286,buq,qns-item-noham,82,2222444,0.0-1.0-0.81,65ce1e6cab6434f5e14383de,AWAITING REVIEW,2024-02-15T14:23:44.783000Z,2024-02-15T15:04:53.889000Z,,2024-02-15T15:04:54.598372Z,2470.0,CVPIIDEI,916,36,Male,Black,United States,United States,United States,English,No,Full-Time,Not Applicable
633266bf68544440fd064f94,<b>I?m more certain about my beliefs than I used to be.,Highly disagree,83/94,Somewhat disagree,2,1708009265754,1708009268632,\Somewhat disagree\,\Somewhat disagree\,\2\,1708009267896,1708009267896,2142,2142,2878,buq,qns-item-noham,83,2225324,0.0-1.0-0.82,65ce1e6cab6434f5e14383de,AWAITING REVIEW,2024-02-15T14:23:44.783000Z,2024-02-15T15:04:53.889000Z,,2024-02-15T15:04:54.598372Z,2470.0,CVPIIDEI,916,36,Male,Black,United States,United States,United States,English,No,Full-Time,Not Applicable
633266bf68544440fd064f94,<b>People often tell falsehoods unintentionally.,Highly disagree,84/94,Somewhat agree,3,1708009268634,1708009273082,\Somewhat agree\,\Somewhat agree\,\3\,1708009272112,1708009272112,3478,3478,4448,buq,qns-item-noham,84,2229774,0.0-1.0-0.83,65ce1e6cab6434f5e14383de,AWAITING REVIEW,2024-02-15T14:23:44.783000Z,2024-02-15T15:04:53.889000Z,,2024-02-15T15:04:54.598372Z,2470.0,CVPIIDEI,916,36,Male,Black,United States,United States,United States,English,No,Full-Time,Not Applicable
633266bf68544440fd064f94,<b>Most people don?t know much about most things.,Highly disagree,85/94,Highly agree,4,1708009273084,1708009317288,\Highly agree\,\Highly agree\,\4\,1708009316456,1708009316456,43372,43372,44204,buq,qns-item-noham,85,2273980,0.0-1.0-0.84,65ce1e6cab6434f5e14383de,AWAITING REVIEW,2024-02-15T14:23:44.783000Z,2024-02-15T15:04:53.889000Z,,2024-02-15T15:04:54.598372Z,2470.0,CVPIIDEI,916,36,Male,Black,United States,United States,United States,English,No,Full-Time,Not Applicable
633266bf68544440fd064f94,"<b>If I find out something new about someone, I easily change my views about them.",Highly disagree,86/94,Somewhat disagree,2,1708009317289,1708009321288,\Somewhat disagree\,\Somewhat disagree\,\2\,1708009320240,1708009320240,2951,2951,3999,buq,qns-item-noham,86,2277980,0.0-1.0-0.85,65ce1e6cab6434f5e14383de,AWAITING REVIEW,2024-02-15T14:23:44.783000Z,2024-02-15T15:04:53.889000Z,,2024-02-15T15:04:54.598372Z,2470.0,CVPIIDEI,916,36,Male,Black,United States,United States,United States,English,No,Full-Time,Not Applicable
633266bf68544440fd064f94,<b>Having true beliefs is difficult.,Highly disagree,87/94,Somewhat agree,3,1708009321290,1708009324448,\Somewhat agree\,\Somewhat agree\,\3\,1708009323648,1708009323648,2358,2358,3158,buq,qns-item-noham,87,2281140,0.0-1.0-0.86,65ce1e6cab6434f5e14383de,AWAITING REVIEW,2024-02-15T14:23:44.783000Z,2024-02-15T15:04:53.889000Z,,2024-02-15T15:04:54.598372Z,2470.0,CVPIIDEI,916,36,Male,Black,United States,United States,United States,English,No,Full-Time,Not Applicable
633266bf68544440fd064f94,<b>I don?t try new foods since I know I won?t like them.,Highly disagree,88/94,Highly disagree,1,1708009324450,1708009328768,\Highly disagree\,\Highly disagree\,\1\,1708009327488,1708009327488,3038,3038,4318,buq,qns-item-noham,88,2285460,0.0-1.0-0.87,65ce1e6cab6434f5e14383de,AWAITING REVIEW,2024-02-15T14:23:44.783000Z,2024-02-15T15:04:53.889000Z,,2024-02-15T15:04:54.598372Z,2470.0,CVPIIDEI,916,36,Male,Black,United States,United States,United States,English,No,Full-Time,Not Applicable
633266bf68544440fd064f94,<b>Other people trick each other a lot.,Highly disagree,89/94,Somewhat agree,3,1708009328770,1708009354336,\Somewhat agree\,\Somewhat agree\,\3\,1708009353610,1708009353610,24840,24840,25566,buq,qns-item-noham,89,2311028,0.0-1.0-0.88,65ce1e6cab6434f5e14383de,AWAITING REVIEW,2024-02-15T14:23:44.783000Z,2024-02-15T15:04:53.889000Z,,2024-02-15T15:04:54.598372Z,2470.0,CVPIIDEI,916,36,Male,Black,United States,United States,United States,English,No,Full-Time,Not Applicable
633266bf68544440fd064f94,<b>I would need to learn a lot about a person for my opinion of them to be swayed.,Highly disagree,90/94,Highly agree,4,1708009354338,1708009358440,\Highly agree\,\Highly agree\,\4\,1708009357608,1708009357608,3270,3270,4102,buq,qns-item-noham,90,2315132,0.0-1.0-0.89,65ce1e6cab6434f5e14383de,AWAITING REVIEW,2024-02-15T14:23:44.783000Z,2024-02-15T15:04:53.889000Z,,2024-02-15T15:04:54.598372Z,2470.0,CVPIIDEI,916,36,Male,Black,United States,United States,United States,English,No,Full-Time,Not Applicable
633266bf68544440fd064f94,<b>People can?t usually trick me when it comes to topics I care about.,Highly disagree,91/94,Somewhat disagree,2,1708009358442,1708009364960,\Somewhat disagree\,\Somewhat disagree\,\2\,1708009363696,1708009363696,5254,5254,6518,buq,qns-item-noham,91,2321652,0.0-1.0-0.90,65ce1e6cab6434f5e14383de,AWAITING REVIEW,2024-02-15T14:23:44.783000Z,2024-02-15T15:04:53.889000Z,,2024-02-15T15:04:54.598372Z,2470.0,CVPIIDEI,916,36,Male,Black,United States,United States,United States,English,No,Full-Time,Not Applicable
633266bf68544440fd064f94,<b>I do not often change my views on food.,Highly disagree,92/94,Somewhat disagree,2,1708009364962,1708009383176,\Somewhat disagree\,\Somewhat disagree\,\2\,1708009382400,1708009382400,17438,17438,18214,buq,qns-item-noham,92,2339868,0.0-1.0-0.91,65ce1e6cab6434f5e14383de,AWAITING REVIEW,2024-02-15T14:23:44.783000Z,2024-02-15T15:04:53.889000Z,,2024-02-15T15:04:54.598372Z,2470.0,CVPIIDEI,916,36,Male,Black,United States,United States,United States,English,No,Full-Time,Not Applicable
633266bf68544440fd064f94,<b>Specific policies are often very important to me.,Highly disagree,93/94,Highly agree,4,1708009383178,1708009388240,\Highly agree\,\Highly agree\,\4\,1708009386504,1708009386504,3326,3326,5062,buq,qns-item-noham,93,2344932,0.0-1.0-0.92,65ce1e6cab6434f5e14383de,AWAITING REVIEW,2024-02-15T14:23:44.783000Z,2024-02-15T15:04:53.889000Z,,2024-02-15T15:04:54.598372Z,2470.0,CVPIIDEI,916,36,Male,Black,United States,United States,United States,English,No,Full-Time,Not Applicable
633266bf68544440fd064f94,<b>Most people are woefully under-informed.,Highly disagree,94/94,Highly agree,4,1708009388241,1708009391136,\Highly agree\,\Highly agree\,\4\,1708009390247,1708009390247,2006,2006,2895,buq,qns-item-noham,94,2347828,0.0-1.0-0.93,65ce1e6cab6434f5e14383de,AWAITING REVIEW,2024-02-15T14:23:44.783000Z,2024-02-15T15:04:53.889000Z,,2024-02-15T15:04:54.598372Z,2470.0,CVPIIDEI,916,36,Male,Black,United States,United States,United States,English,No,Full-Time,Not Applicable
633266bf68544440fd064f94,,,,,,,,,,,,,,,,,,,,,65ce1e6cab6434f5e14383de,AWAITING REVIEW,2024-02-15T14:23:44.783000Z,2024-02-15T15:04:53.889000Z,,2024-02-15T15:04:54.598372Z,2470.0,CVPIIDEI,916,36,Male,Black,United States,United States,United States,English,No,Full-Time,Not Applicable
