PROLIFIC_PID,Question,qns_options,quest_num,answer,answer_num,question_load_timestamp,next_btn_timestamp,text_selected,final_text_selected,option_num_selected,preview_timestamps,final_text_selected_time_stamp,rt_first_option_click,rt_final_option_click,rt_submit_click,questionnaire,trial_type,trial_index,time_elapsed,internal_node_id,Demographic_Submission id,Demographic_Status,Demographic_Started at,Demographic_Completed at,Demographic_Reviewed at,Demographic_Archived at,Demographic_Time taken,Demographic_Completion code,Demographic_Total approvals,Demographic_Age,Demographic_Sex,Demographic_Ethnicity simplified,Demographic_Country of birth,Demographic_Country of residence,Demographic_Nationality,Demographic_Language,Demographic_Student status,Demographic_Employment status,Demographic_Custom study tncs accepted at
62d04f92bfa53e94ef2fabaf,<b>Knowing what?s true and knowing what to do about it are usually basically the same.,Highly disagree,1/94,Somewhat disagree,2,1708006887656,1708006899408,\Somewhat disagree\,\Somewhat disagree\,\2\,1708006898606,1708006898606,10950,10950,11752,buq,qns-item-noham,1,26529,0.0-1.0-0.0,65ce1dc2d4a33ea7a58daa48,AWAITING REVIEW,2024-02-15T14:20:56.182000Z,2024-02-15T14:38:44.999000Z,,2024-02-15T14:38:45.533735Z,1069.0,CVPIIDEI,849,39,Male,White,United States,United States,United States,English,No,Full-Time,Not Applicable
62d04f92bfa53e94ef2fabaf,<b>Most people just believe whatever is convenient for them.,Highly disagree,2/94,Highly agree,4,1708006899409,1708006903684,\Highly agree\,\Highly agree\,\4\,1708006902849,1708006902849,3440,3440,4275,buq,qns-item-noham,2,30806,0.0-1.0-0.1,65ce1dc2d4a33ea7a58daa48,AWAITING REVIEW,2024-02-15T14:20:56.182000Z,2024-02-15T14:38:44.999000Z,,2024-02-15T14:38:45.533735Z,1069.0,CVPIIDEI,849,39,Male,White,United States,United States,United States,English,No,Full-Time,Not Applicable
62d04f92bfa53e94ef2fabaf,<b>Having some big beliefs helps me sort out minor ones.,Highly disagree,3/94,Somewhat agree,3,1708006903688,1708006910416,\Somewhat agree\,\Somewhat agree\,\3\,1708006909122,1708006909122,5434,5434,6728,buq,qns-item-noham,3,37537,0.0-1.0-0.2,65ce1dc2d4a33ea7a58daa48,AWAITING REVIEW,2024-02-15T14:20:56.182000Z,2024-02-15T14:38:44.999000Z,,2024-02-15T14:38:45.533735Z,1069.0,CVPIIDEI,849,39,Male,White,United States,United States,United States,English,No,Full-Time,Not Applicable
62d04f92bfa53e94ef2fabaf,<b>Political questions are usually pretty complicated.,Highly disagree,4/94,Somewhat agree,3,1708006910418,1708006916834,\Somewhat agree\,\Somewhat agree\,\3\,1708006916034,1708006916034,5616,5616,6416,buq,qns-item-noham,4,43955,0.0-1.0-0.3,65ce1dc2d4a33ea7a58daa48,AWAITING REVIEW,2024-02-15T14:20:56.182000Z,2024-02-15T14:38:44.999000Z,,2024-02-15T14:38:45.533735Z,1069.0,CVPIIDEI,849,39,Male,White,United States,United States,United States,English,No,Full-Time,Not Applicable
62d04f92bfa53e94ef2fabaf,<b>Figuring out what?s important in life requires learning a lot of facts.,Highly disagree,5/94,Somewhat agree,3,1708006916836,1708006926299,\Somewhat agree\,\Somewhat agree\,\3\,1708006925563,1708006925563,8727,8727,9463,buq,qns-item-noham,5,53420,0.0-1.0-0.4,65ce1dc2d4a33ea7a58daa48,AWAITING REVIEW,2024-02-15T14:20:56.182000Z,2024-02-15T14:38:44.999000Z,,2024-02-15T14:38:45.533735Z,1069.0,CVPIIDEI,849,39,Male,White,United States,United States,United States,English,No,Full-Time,Not Applicable
62d04f92bfa53e94ef2fabaf,<b>It is difficult for me to remember the last time I was surprised by politics.,Highly disagree,6/94,Highly agree,4,1708006926300,1708006932402,\Highly agree\,\Highly agree\,\4\,1708006931071,1708006931071,4771,4771,6102,buq,qns-item-noham,6,59523,0.0-1.0-0.5,65ce1dc2d4a33ea7a58daa48,AWAITING REVIEW,2024-02-15T14:20:56.182000Z,2024-02-15T14:38:44.999000Z,,2024-02-15T14:38:45.533735Z,1069.0,CVPIIDEI,849,39,Male,White,United States,United States,United States,English,No,Full-Time,Not Applicable
62d04f92bfa53e94ef2fabaf,<b>People?s false beliefs are understandable.,Highly disagree,7/94,Somewhat agree,3,1708006932403,1708006938299,\Somewhat agree\,\Somewhat agree\,\3\,1708006937198,1708006937198,4795,4795,5896,buq,qns-item-noham,7,65420,0.0-1.0-0.6,65ce1dc2d4a33ea7a58daa48,AWAITING REVIEW,2024-02-15T14:20:56.182000Z,2024-02-15T14:38:44.999000Z,,2024-02-15T14:38:45.533735Z,1069.0,CVPIIDEI,849,39,Male,White,United States,United States,United States,English,No,Full-Time,Not Applicable
62d04f92bfa53e94ef2fabaf,<b>I spend a lot of time trying to be informed about politics.,Highly disagree,8/94,Highly agree,4,1708006938300,1708006945054,\Highly agree\,\Highly agree\,\4\,1708006944046,1708006944046,5746,5746,6754,buq,qns-item-noham,8,72175,0.0-1.0-0.7,65ce1dc2d4a33ea7a58daa48,AWAITING REVIEW,2024-02-15T14:20:56.182000Z,2024-02-15T14:38:44.999000Z,,2024-02-15T14:38:45.533735Z,1069.0,CVPIIDEI,849,39,Male,White,United States,United States,United States,English,No,Full-Time,Not Applicable
62d04f92bfa53e94ef2fabaf,<b>I think a lot about whether my beliefs are right.,Highly disagree,9/94,Somewhat agree,3,1708006945055,1708006951933,\Somewhat agree\,\Somewhat agree\,\3\,1708006950784,1708006950784,5729,5729,6878,buq,qns-item-noham,9,79054,0.0-1.0-0.8,65ce1dc2d4a33ea7a58daa48,AWAITING REVIEW,2024-02-15T14:20:56.182000Z,2024-02-15T14:38:44.999000Z,,2024-02-15T14:38:45.533735Z,1069.0,CVPIIDEI,849,39,Male,White,United States,United States,United States,English,No,Full-Time,Not Applicable
62d04f92bfa53e94ef2fabaf,<b>Statistics can be pretty misleading sometimes.,Highly disagree,10/94,Somewhat agree,3,1708006951934,1708006957457,\Somewhat agree\,\Somewhat agree\,\3\,1708006955170,1708006955170,3236,3236,5523,buq,qns-item-noham,10,84578,0.0-1.0-0.9,65ce1dc2d4a33ea7a58daa48,AWAITING REVIEW,2024-02-15T14:20:56.182000Z,2024-02-15T14:38:44.999000Z,,2024-02-15T14:38:45.533735Z,1069.0,CVPIIDEI,849,39,Male,White,United States,United States,United States,English,No,Full-Time,Not Applicable
62d04f92bfa53e94ef2fabaf,<b>I have lots of beliefs that I?m only sort of sure about.,Highly disagree,11/94,Somewhat agree,3,1708006957458,1708006971821,\Somewhat agree\,\Somewhat agree\,\3\,1708006970869,1708006970869,13411,13411,14363,buq,qns-item-noham,11,98942,0.0-1.0-0.10,65ce1dc2d4a33ea7a58daa48,AWAITING REVIEW,2024-02-15T14:20:56.182000Z,2024-02-15T14:38:44.999000Z,,2024-02-15T14:38:45.533735Z,1069.0,CVPIIDEI,849,39,Male,White,United States,United States,United States,English,No,Full-Time,Not Applicable
62d04f92bfa53e94ef2fabaf,"<b>If I go to my favorite restaurant and the food is surprisingly bad, it reminds me there are many disappointments in life.",Highly disagree,12/94,Highly agree,4,1708006971822,1708006983838,\Highly agree\,\Highly agree\,\4\,1708006982268,1708006982268,10446,10446,12016,buq,qns-item-noham,12,110959,0.0-1.0-0.11,65ce1dc2d4a33ea7a58daa48,AWAITING REVIEW,2024-02-15T14:20:56.182000Z,2024-02-15T14:38:44.999000Z,,2024-02-15T14:38:45.533735Z,1069.0,CVPIIDEI,849,39,Male,White,United States,United States,United States,English,No,Full-Time,Not Applicable
62d04f92bfa53e94ef2fabaf,"<b>If you are paying attention, please select ?Somewhat agree?",Highly disagree,13/94,Somewhat agree,3,1708006983839,1708006988780,\Somewhat agree\,\Somewhat agree\,\3\,1708006988112,1708006988112,4273,4273,4941,buq,qns-item-noham,13,115901,0.0-1.0-0.12,65ce1dc2d4a33ea7a58daa48,AWAITING REVIEW,2024-02-15T14:20:56.182000Z,2024-02-15T14:38:44.999000Z,,2024-02-15T14:38:45.533735Z,1069.0,CVPIIDEI,849,39,Male,White,United States,United States,United States,English,No,Full-Time,Not Applicable
62d04f92bfa53e94ef2fabaf,"<b>When I talk to others, I often worry I?ll convince them of something I didn?t mean to.",Highly disagree,14/94,Somewhat disagree,2,1708006988781,1708006999214,\Somewhat disagree\,\Somewhat disagree\,\2\,1708006998369,1708006998369,9588,9588,10433,buq,qns-item-noham,14,126335,0.0-1.0-0.13,65ce1dc2d4a33ea7a58daa48,AWAITING REVIEW,2024-02-15T14:20:56.182000Z,2024-02-15T14:38:44.999000Z,,2024-02-15T14:38:45.533735Z,1069.0,CVPIIDEI,849,39,Male,White,United States,United States,United States,English,No,Full-Time,Not Applicable
62d04f92bfa53e94ef2fabaf,<b>I would need to learn something utterly shocking about my party in order to change my political views.,Highly disagree,15/94,Somewhat agree,3,1708006999215,1708007008135,\Somewhat agree\,\Somewhat agree\,\3\,1708007007119,1708007007119,7904,7904,8920,buq,qns-item-noham,15,135256,0.0-1.0-0.14,65ce1dc2d4a33ea7a58daa48,AWAITING REVIEW,2024-02-15T14:20:56.182000Z,2024-02-15T14:38:44.999000Z,,2024-02-15T14:38:45.533735Z,1069.0,CVPIIDEI,849,39,Male,White,United States,United States,United States,English,No,Full-Time,Not Applicable
62d04f92bfa53e94ef2fabaf,"<b>When I have new experiences, I tend to think of them as unique.",Highly disagree,16/94,Highly agree,4,1708007008137,1708007016292,\Highly agree\,\Highly agree\,\4\,1708007015603,1708007015603,7466,7466,8155,buq,qns-item-noham,16,143413,0.0-1.0-0.15,65ce1dc2d4a33ea7a58daa48,AWAITING REVIEW,2024-02-15T14:20:56.182000Z,2024-02-15T14:38:44.999000Z,,2024-02-15T14:38:45.533735Z,1069.0,CVPIIDEI,849,39,Male,White,United States,United States,United States,English,No,Full-Time,Not Applicable
62d04f92bfa53e94ef2fabaf,<b>I change my mind about specific policies pretty frequently.,Highly disagree,17/94,Somewhat disagree,2,1708007016293,1708007024328,\Somewhat agree\,\Somewhat disagree\,\3\,1708007020795,1708007023297,4502,7004,8035,buq,qns-item-noham,17,151449,0.0-1.0-0.16,65ce1dc2d4a33ea7a58daa48,AWAITING REVIEW,2024-02-15T14:20:56.182000Z,2024-02-15T14:38:44.999000Z,,2024-02-15T14:38:45.533735Z,1069.0,CVPIIDEI,849,39,Male,White,United States,United States,United States,English,No,Full-Time,Not Applicable
62d04f92bfa53e94ef2fabaf,"<b>If a politician in my political party supports something I disagree with, I give them the benefit of the doubt, as such issues often involve hidden complexities that aren?t obvious.   ",Highly disagree,18/94,Somewhat agree,3,1708007024330,1708007037616,\Somewhat agree\,\Somewhat agree\,\3\,1708007036504,1708007036504,12174,12174,13286,buq,qns-item-noham,18,164737,0.0-1.0-0.17,65ce1dc2d4a33ea7a58daa48,AWAITING REVIEW,2024-02-15T14:20:56.182000Z,2024-02-15T14:38:44.999000Z,,2024-02-15T14:38:45.533735Z,1069.0,CVPIIDEI,849,39,Male,White,United States,United States,United States,English,No,Full-Time,Not Applicable
62d04f92bfa53e94ef2fabaf,<b>People?s bad politics are usually motivated by hatefulness.,Highly disagree,19/94,Somewhat disagree,2,1708007037617,1708007050492,\Somewhat disagree\,\Somewhat disagree\,\2\,1708007049514,1708007049514,11897,11897,12875,buq,qns-item-noham,19,177613,0.0-1.0-0.18,65ce1dc2d4a33ea7a58daa48,AWAITING REVIEW,2024-02-15T14:20:56.182000Z,2024-02-15T14:38:44.999000Z,,2024-02-15T14:38:45.533735Z,1069.0,CVPIIDEI,849,39,Male,White,United States,United States,United States,English,No,Full-Time,Not Applicable
62d04f92bfa53e94ef2fabaf,<b>I think a lot about how to reconcile my beliefs with one another.,Highly disagree,20/94,Somewhat agree,3,1708007050493,1708007055549,\Somewhat agree\,\Somewhat agree\,\3\,1708007053338,1708007053338,2845,2845,5056,buq,qns-item-noham,20,182670,0.0-1.0-0.19,65ce1dc2d4a33ea7a58daa48,AWAITING REVIEW,2024-02-15T14:20:56.182000Z,2024-02-15T14:38:44.999000Z,,2024-02-15T14:38:45.533735Z,1069.0,CVPIIDEI,849,39,Male,White,United States,United States,United States,English,No,Full-Time,Not Applicable
62d04f92bfa53e94ef2fabaf,<b>I might have false beliefs about important topics.,Highly disagree,21/94,Somewhat agree,3,1708007055550,1708007062455,\Somewhat agree\,\Somewhat agree\,\3\,1708007061386,1708007061386,5836,5836,6905,buq,qns-item-noham,21,189576,0.0-1.0-0.20,65ce1dc2d4a33ea7a58daa48,AWAITING REVIEW,2024-02-15T14:20:56.182000Z,2024-02-15T14:38:44.999000Z,,2024-02-15T14:38:45.533735Z,1069.0,CVPIIDEI,849,39,Male,White,United States,United States,United States,English,No,Full-Time,Not Applicable
62d04f92bfa53e94ef2fabaf,"<b>If a good friend of mine does something unexpected that upsets me, I feel like I don?t know them anymore.",Highly disagree,22/94,Somewhat disagree,2,1708007062457,1708007073625,\Somewhat disagree\,\Somewhat disagree\,\2\,1708007072390,1708007072390,9933,9933,11168,buq,qns-item-noham,22,200746,0.0-1.0-0.21,65ce1dc2d4a33ea7a58daa48,AWAITING REVIEW,2024-02-15T14:20:56.182000Z,2024-02-15T14:38:44.999000Z,,2024-02-15T14:38:45.533735Z,1069.0,CVPIIDEI,849,39,Male,White,United States,United States,United States,English,No,Full-Time,Not Applicable
62d04f92bfa53e94ef2fabaf,<b>Other people?s beliefs are often incoherent.,Highly disagree,23/94,Somewhat agree,3,1708007073626,1708007079987,\Somewhat agree\,\Somewhat agree\,\3\,1708007079030,1708007079030,5404,5404,6361,buq,qns-item-noham,23,207108,0.0-1.0-0.22,65ce1dc2d4a33ea7a58daa48,AWAITING REVIEW,2024-02-15T14:20:56.182000Z,2024-02-15T14:38:44.999000Z,,2024-02-15T14:38:45.533735Z,1069.0,CVPIIDEI,849,39,Male,White,United States,United States,United States,English,No,Full-Time,Not Applicable
62d04f92bfa53e94ef2fabaf,"<b>Every now and then, a new experience will unsettle beliefs I?ve had for a while.",Highly disagree,24/94,Somewhat agree,3,1708007079988,1708007087588,\Somewhat agree\,\Somewhat agree\,\3\,1708007086872,1708007086872,6884,6884,7600,buq,qns-item-noham,24,214709,0.0-1.0-0.23,65ce1dc2d4a33ea7a58daa48,AWAITING REVIEW,2024-02-15T14:20:56.182000Z,2024-02-15T14:38:44.999000Z,,2024-02-15T14:38:45.533735Z,1069.0,CVPIIDEI,849,39,Male,White,United States,United States,United States,English,No,Full-Time,Not Applicable
62d04f92bfa53e94ef2fabaf,<b>Some policies I agree with in principle are so bad I don?t support them. ,Highly disagree,25/94,Highly agree,4,1708007087589,1708007096289,\Highly agree\,\Highly agree\,\4\,1708007095068,1708007095068,7479,7479,8700,buq,qns-item-noham,25,223410,0.0-1.0-0.24,65ce1dc2d4a33ea7a58daa48,AWAITING REVIEW,2024-02-15T14:20:56.182000Z,2024-02-15T14:38:44.999000Z,,2024-02-15T14:38:45.533735Z,1069.0,CVPIIDEI,849,39,Male,White,United States,United States,United States,English,No,Full-Time,Not Applicable
62d04f92bfa53e94ef2fabaf,<b>I?m pretty sure I?ve accidentally spread false information.,Highly disagree,26/94,Somewhat agree,3,1708007096290,1708007106766,\Somewhat agree\,\Somewhat agree\,\3\,1708007105787,1708007105787,9497,9497,10476,buq,qns-item-noham,26,233887,0.0-1.0-0.25,65ce1dc2d4a33ea7a58daa48,AWAITING REVIEW,2024-02-15T14:20:56.182000Z,2024-02-15T14:38:44.999000Z,,2024-02-15T14:38:45.533735Z,1069.0,CVPIIDEI,849,39,Male,White,United States,United States,United States,English,No,Full-Time,Not Applicable
62d04f92bfa53e94ef2fabaf,"<b>If I go to my favorite restaurant and the food is unexpectedly bad, then they have changed owners.",Highly disagree,27/94,Somewhat agree,3,1708007106767,1708007120538,\Somewhat agree\,\Somewhat agree\,\3\,1708007117451,1708007117451,10684,10684,13771,buq,qns-item-noham,27,247659,0.0-1.0-0.26,65ce1dc2d4a33ea7a58daa48,AWAITING REVIEW,2024-02-15T14:20:56.182000Z,2024-02-15T14:38:44.999000Z,,2024-02-15T14:38:45.533735Z,1069.0,CVPIIDEI,849,39,Male,White,United States,United States,United States,English,No,Full-Time,Not Applicable
62d04f92bfa53e94ef2fabaf,"<b>In politics, it?s important to trust your friends and family.",Highly disagree,28/94,Somewhat agree,3,1708007120539,1708007131921,\Highly agree\,\Somewhat agree\,\4\,1708007124031,1708007130941,3492,10402,11382,buq,qns-item-noham,28,259042,0.0-1.0-0.27,65ce1dc2d4a33ea7a58daa48,AWAITING REVIEW,2024-02-15T14:20:56.182000Z,2024-02-15T14:38:44.999000Z,,2024-02-15T14:38:45.533735Z,1069.0,CVPIIDEI,849,39,Male,White,United States,United States,United States,English,No,Full-Time,Not Applicable
62d04f92bfa53e94ef2fabaf,<b>It?s OK to have some conflicting beliefs.,Highly disagree,29/94,Highly agree,4,1708007131922,1708007135710,\Highly agree\,\Highly agree\,\4\,1708007134635,1708007134635,2713,2713,3788,buq,qns-item-noham,29,262831,0.0-1.0-0.28,65ce1dc2d4a33ea7a58daa48,AWAITING REVIEW,2024-02-15T14:20:56.182000Z,2024-02-15T14:38:44.999000Z,,2024-02-15T14:38:45.533735Z,1069.0,CVPIIDEI,849,39,Male,White,United States,United States,United States,English,No,Full-Time,Not Applicable
62d04f92bfa53e94ef2fabaf,<b>Listening to people I disagree with makes my opinions better.,Highly disagree,30/94,Highly agree,4,1708007135711,1708007140829,\Highly agree\,\Highly agree\,\4\,1708007139827,1708007139827,4116,4116,5118,buq,qns-item-noham,30,267950,0.0-1.0-0.29,65ce1dc2d4a33ea7a58daa48,AWAITING REVIEW,2024-02-15T14:20:56.182000Z,2024-02-15T14:38:44.999000Z,,2024-02-15T14:38:45.533735Z,1069.0,CVPIIDEI,849,39,Male,White,United States,United States,United States,English,No,Full-Time,Not Applicable
62d04f92bfa53e94ef2fabaf,<b>My moral compass sometimes makes it harder to determine what?s true.,Highly disagree,31/94,Somewhat agree,3,1708007140830,1708007147551,\Somewhat agree\,\Somewhat agree\,\3\,1708007146300,1708007146300,5470,5470,6721,buq,qns-item-noham,31,274672,0.0-1.0-0.30,65ce1dc2d4a33ea7a58daa48,AWAITING REVIEW,2024-02-15T14:20:56.182000Z,2024-02-15T14:38:44.999000Z,,2024-02-15T14:38:45.533735Z,1069.0,CVPIIDEI,849,39,Male,White,United States,United States,United States,English,No,Full-Time,Not Applicable
62d04f92bfa53e94ef2fabaf,<b>Evidence pointing in the wrong direction isn?t really evidence at all.,Highly disagree,32/94,Somewhat disagree,2,1708007147552,1708007164618,\Somewhat disagree\,\Somewhat disagree\,\2\,1708007162854,1708007162854,15302,15302,17066,buq,qns-item-noham,32,291739,0.0-1.0-0.31,65ce1dc2d4a33ea7a58daa48,AWAITING REVIEW,2024-02-15T14:20:56.182000Z,2024-02-15T14:38:44.999000Z,,2024-02-15T14:38:45.533735Z,1069.0,CVPIIDEI,849,39,Male,White,United States,United States,United States,English,No,Full-Time,Not Applicable
62d04f92bfa53e94ef2fabaf,"<b>If the political party I support messes up, it makes me think politics is rotten.",Highly disagree,33/94,Highly agree,4,1708007164619,1708007182896,\Somewhat agree\,\Highly agree\,\3\,1708007177231,1708007181917,12612,17298,18277,buq,qns-item-noham,33,310017,0.0-1.0-0.32,65ce1dc2d4a33ea7a58daa48,AWAITING REVIEW,2024-02-15T14:20:56.182000Z,2024-02-15T14:38:44.999000Z,,2024-02-15T14:38:45.533735Z,1069.0,CVPIIDEI,849,39,Male,White,United States,United States,United States,English,No,Full-Time,Not Applicable
62d04f92bfa53e94ef2fabaf,<b>Lots of important topics can only really be understood by some groups of people.,Highly disagree,34/94,Somewhat agree,3,1708007182897,1708007221096,\Somewhat agree\,\Somewhat agree\,\3\,1708007218680,1708007218680,35783,35783,38199,buq,qns-item-noham,34,348217,0.0-1.0-0.33,65ce1dc2d4a33ea7a58daa48,AWAITING REVIEW,2024-02-15T14:20:56.182000Z,2024-02-15T14:38:44.999000Z,,2024-02-15T14:38:45.533735Z,1069.0,CVPIIDEI,849,39,Male,White,United States,United States,United States,English,No,Full-Time,Not Applicable
62d04f92bfa53e94ef2fabaf,<b>Having conflicting beliefs means you haven?t thought about them enough.,Highly disagree,35/94,Highly disagree,1,1708007221097,1708007228812,\Highly disagree\,\Highly disagree\,\1\,1708007227580,1708007227580,6483,6483,7715,buq,qns-item-noham,35,355933,0.0-1.0-0.34,65ce1dc2d4a33ea7a58daa48,AWAITING REVIEW,2024-02-15T14:20:56.182000Z,2024-02-15T14:38:44.999000Z,,2024-02-15T14:38:45.533735Z,1069.0,CVPIIDEI,849,39,Male,White,United States,United States,United States,English,No,Full-Time,Not Applicable
62d04f92bfa53e94ef2fabaf,<b>I do not often change my political opinions.,Highly disagree,36/94,Highly disagree,1,1708007228814,1708007233449,\Highly disagree\,\Highly disagree\,\1\,1708007232583,1708007232583,3769,3769,4635,buq,qns-item-noham,36,360570,0.0-1.0-0.35,65ce1dc2d4a33ea7a58daa48,AWAITING REVIEW,2024-02-15T14:20:56.182000Z,2024-02-15T14:38:44.999000Z,,2024-02-15T14:38:45.533735Z,1069.0,CVPIIDEI,849,39,Male,White,United States,United States,United States,English,No,Full-Time,Not Applicable
62d04f92bfa53e94ef2fabaf,<b>It?s difficult to not have at least some conflicting beliefs.,Highly disagree,37/94,Highly agree,4,1708007233450,1708007241517,\Highly agree\,\Highly agree\,\4\,1708007238830,1708007238830,5380,5380,8067,buq,qns-item-noham,37,368638,0.0-1.0-0.36,65ce1dc2d4a33ea7a58daa48,AWAITING REVIEW,2024-02-15T14:20:56.182000Z,2024-02-15T14:38:44.999000Z,,2024-02-15T14:38:45.533735Z,1069.0,CVPIIDEI,849,39,Male,White,United States,United States,United States,English,No,Full-Time,Not Applicable
62d04f92bfa53e94ef2fabaf,<b>Wishful thinking causes a lot of problems.,Highly disagree,38/94,Somewhat agree,3,1708007241518,1708007247028,\Somewhat agree\,\Somewhat agree\,\3\,1708007245927,1708007245927,4409,4409,5510,buq,qns-item-noham,38,374149,0.0-1.0-0.37,65ce1dc2d4a33ea7a58daa48,AWAITING REVIEW,2024-02-15T14:20:56.182000Z,2024-02-15T14:38:44.999000Z,,2024-02-15T14:38:45.533735Z,1069.0,CVPIIDEI,849,39,Male,White,United States,United States,United States,English,No,Full-Time,Not Applicable
62d04f92bfa53e94ef2fabaf,<b>I judge a food item only once I try it many times.,Highly disagree,39/94,Somewhat agree,3,1708007247029,1708007252822,\Somewhat agree\,\Somewhat agree\,\3\,1708007252005,1708007252005,4976,4976,5793,buq,qns-item-noham,39,379943,0.0-1.0-0.38,65ce1dc2d4a33ea7a58daa48,AWAITING REVIEW,2024-02-15T14:20:56.182000Z,2024-02-15T14:38:44.999000Z,,2024-02-15T14:38:45.533735Z,1069.0,CVPIIDEI,849,39,Male,White,United States,United States,United States,English,No,Full-Time,Not Applicable
62d04f92bfa53e94ef2fabaf,"<b>When a person holds conflicting beliefs, they should really try to figure out what?s wrong.",Highly disagree,40/94,Somewhat agree,3,1708007252823,1708007265245,\Somewhat agree\,\Somewhat agree\,\3\,1708007262849,1708007262849,10026,10026,12422,buq,qns-item-noham,40,392366,0.0-1.0-0.39,65ce1dc2d4a33ea7a58daa48,AWAITING REVIEW,2024-02-15T14:20:56.182000Z,2024-02-15T14:38:44.999000Z,,2024-02-15T14:38:45.533735Z,1069.0,CVPIIDEI,849,39,Male,White,United States,United States,United States,English,No,Full-Time,Not Applicable
62d04f92bfa53e94ef2fabaf,<b>Knowing what?s important in life is easy.,Highly disagree,41/94,Highly disagree,1,1708007265245,1708007271646,\Highly disagree\,\Highly disagree\,\1\,1708007270333,1708007270333,5088,5088,6401,buq,qns-item-noham,41,398767,0.0-1.0-0.40,65ce1dc2d4a33ea7a58daa48,AWAITING REVIEW,2024-02-15T14:20:56.182000Z,2024-02-15T14:38:44.999000Z,,2024-02-15T14:38:45.533735Z,1069.0,CVPIIDEI,849,39,Male,White,United States,United States,United States,English,No,Full-Time,Not Applicable
62d04f92bfa53e94ef2fabaf,<b>I swim across the Atlantic Ocean to get to work every day.,Highly disagree,42/94,Highly disagree,1,1708007271647,1708007275503,\Highly disagree\,\Highly disagree\,\1\,1708007274361,1708007274361,2714,2714,3856,buq,qns-item-noham,42,402624,0.0-1.0-0.41,65ce1dc2d4a33ea7a58daa48,AWAITING REVIEW,2024-02-15T14:20:56.182000Z,2024-02-15T14:38:44.999000Z,,2024-02-15T14:38:45.533735Z,1069.0,CVPIIDEI,849,39,Male,White,United States,United States,United States,English,No,Full-Time,Not Applicable
62d04f92bfa53e94ef2fabaf,"<b>Sometimes, you just have to ignore evidence that you know is wrong.",Highly disagree,43/94,Somewhat disagree,2,1708007275504,1708007282548,\Somewhat disagree\,\Somewhat disagree\,\2\,1708007281016,1708007281016,5512,5512,7044,buq,qns-item-noham,43,409669,0.0-1.0-0.42,65ce1dc2d4a33ea7a58daa48,AWAITING REVIEW,2024-02-15T14:20:56.182000Z,2024-02-15T14:38:44.999000Z,,2024-02-15T14:38:45.533735Z,1069.0,CVPIIDEI,849,39,Male,White,United States,United States,United States,English,No,Full-Time,Not Applicable
62d04f92bfa53e94ef2fabaf,<b>I have had some false beliefs.,Highly disagree,44/94,Somewhat agree,3,1708007282549,1708007285684,\Somewhat agree\,\Somewhat agree\,\3\,1708007285053,1708007285053,2504,2504,3135,buq,qns-item-noham,44,412805,0.0-1.0-0.43,65ce1dc2d4a33ea7a58daa48,AWAITING REVIEW,2024-02-15T14:20:56.182000Z,2024-02-15T14:38:44.999000Z,,2024-02-15T14:38:45.533735Z,1069.0,CVPIIDEI,849,39,Male,White,United States,United States,United States,English,No,Full-Time,Not Applicable
62d04f92bfa53e94ef2fabaf,"<b>If one friend does something that upsets me, I sometimes start to distrust people in general.",Highly disagree,45/94,Somewhat agree,3,1708007285685,1708007293583,\Somewhat agree\,\Somewhat agree\,\3\,1708007292056,1708007292056,6371,6371,7898,buq,qns-item-noham,45,420704,0.0-1.0-0.44,65ce1dc2d4a33ea7a58daa48,AWAITING REVIEW,2024-02-15T14:20:56.182000Z,2024-02-15T14:38:44.999000Z,,2024-02-15T14:38:45.533735Z,1069.0,CVPIIDEI,849,39,Male,White,United States,United States,United States,English,No,Full-Time,Not Applicable
62d04f92bfa53e94ef2fabaf,<b>The facts about most important matters are easy to find.,Highly disagree,46/94,Highly disagree,1,1708007293584,1708007319348,\Highly disagree\,\Highly disagree\,\1\,1708007318410,1708007318410,24826,24826,25764,buq,qns-item-noham,46,446469,0.0-1.0-0.45,65ce1dc2d4a33ea7a58daa48,AWAITING REVIEW,2024-02-15T14:20:56.182000Z,2024-02-15T14:38:44.999000Z,,2024-02-15T14:38:45.533735Z,1069.0,CVPIIDEI,849,39,Male,White,United States,United States,United States,English,No,Full-Time,Not Applicable
62d04f92bfa53e94ef2fabaf,<b>It?s better to know what?s true than to know what?s moral.,Highly disagree,47/94,Somewhat agree,3,1708007319349,1708007327658,\Somewhat agree\,\Somewhat agree\,\3\,1708007326405,1708007326405,7056,7056,8309,buq,qns-item-noham,47,454779,0.0-1.0-0.46,65ce1dc2d4a33ea7a58daa48,AWAITING REVIEW,2024-02-15T14:20:56.182000Z,2024-02-15T14:38:44.999000Z,,2024-02-15T14:38:45.533735Z,1069.0,CVPIIDEI,849,39,Male,White,United States,United States,United States,English,No,Full-Time,Not Applicable
62d04f92bfa53e94ef2fabaf,<b>I used to think the world was less complicated than I do now.,Highly disagree,48/94,Highly agree,4,1708007327659,1708007332802,\Highly agree\,\Highly agree\,\4\,1708007331732,1708007331732,4073,4073,5143,buq,qns-item-noham,48,459923,0.0-1.0-0.47,65ce1dc2d4a33ea7a58daa48,AWAITING REVIEW,2024-02-15T14:20:56.182000Z,2024-02-15T14:38:44.999000Z,,2024-02-15T14:38:45.533735Z,1069.0,CVPIIDEI,849,39,Male,White,United States,United States,United States,English,No,Full-Time,Not Applicable
62d04f92bfa53e94ef2fabaf,<b>People are usually completely right or completely wrong.,Highly disagree,49/94,Highly disagree,1,1708007332803,1708007340610,\Highly disagree\,\Highly disagree\,\1\,1708007338639,1708007338639,5836,5836,7807,buq,qns-item-noham,49,467731,0.0-1.0-0.48,65ce1dc2d4a33ea7a58daa48,AWAITING REVIEW,2024-02-15T14:20:56.182000Z,2024-02-15T14:38:44.999000Z,,2024-02-15T14:38:45.533735Z,1069.0,CVPIIDEI,849,39,Male,White,United States,United States,United States,English,No,Full-Time,Not Applicable
62d04f92bfa53e94ef2fabaf,<b>I spend a lot of time considering alternatives to my beliefs.,Highly disagree,50/94,Somewhat agree,3,1708007340611,1708007346965,\Somewhat agree\,\Somewhat agree\,\3\,1708007345966,1708007345966,5355,5355,6354,buq,qns-item-noham,50,474086,0.0-1.0-0.49,65ce1dc2d4a33ea7a58daa48,AWAITING REVIEW,2024-02-15T14:20:56.182000Z,2024-02-15T14:38:44.999000Z,,2024-02-15T14:38:45.533735Z,1069.0,CVPIIDEI,849,39,Male,White,United States,United States,United States,English,No,Full-Time,Not Applicable
62d04f92bfa53e94ef2fabaf,"<b>Political enemies need to be defeated, not convinced.",Highly disagree,51/94,Somewhat disagree,2,1708007346966,1708007362062,\Somewhat disagree\,\Somewhat disagree\,\2\,1708007361061,1708007361061,14095,14095,15096,buq,qns-item-noham,51,489183,0.0-1.0-0.50,65ce1dc2d4a33ea7a58daa48,AWAITING REVIEW,2024-02-15T14:20:56.182000Z,2024-02-15T14:38:44.999000Z,,2024-02-15T14:38:45.533735Z,1069.0,CVPIIDEI,849,39,Male,White,United States,United States,United States,English,No,Full-Time,Not Applicable
62d04f92bfa53e94ef2fabaf,<b>I form my political views only after meticulously gathering historical and present information about their policies.,Highly disagree,52/94,Highly agree,4,1708007362063,1708007373015,\Highly agree\,\Highly agree\,\4\,1708007370778,1708007370778,8715,8715,10952,buq,qns-item-noham,52,500136,0.0-1.0-0.51,65ce1dc2d4a33ea7a58daa48,AWAITING REVIEW,2024-02-15T14:20:56.182000Z,2024-02-15T14:38:44.999000Z,,2024-02-15T14:38:45.533735Z,1069.0,CVPIIDEI,849,39,Male,White,United States,United States,United States,English,No,Full-Time,Not Applicable
62d04f92bfa53e94ef2fabaf,<b>It is difficult for me to remember the last time I was surprised by politics.,Highly disagree,53/94,Highly agree,4,1708007373016,1708007378855,\Highly agree\,\Highly agree\,\4\,1708007377745,1708007377745,4729,4729,5839,buq,qns-item-noham,53,505976,0.0-1.0-0.52,65ce1dc2d4a33ea7a58daa48,AWAITING REVIEW,2024-02-15T14:20:56.182000Z,2024-02-15T14:38:44.999000Z,,2024-02-15T14:38:45.533735Z,1069.0,CVPIIDEI,849,39,Male,White,United States,United States,United States,English,No,Full-Time,Not Applicable
62d04f92bfa53e94ef2fabaf,"<b>When I find out I?m wrong, I think a lot about my related beliefs.",Highly disagree,54/94,Highly agree,4,1708007378856,1708007394843,\Somewhat agree\,\Highly agree\,\3\,1708007386870,1708007392861,8014,14005,15987,buq,qns-item-noham,54,521964,0.0-1.0-0.53,65ce1dc2d4a33ea7a58daa48,AWAITING REVIEW,2024-02-15T14:20:56.182000Z,2024-02-15T14:38:44.999000Z,,2024-02-15T14:38:45.533735Z,1069.0,CVPIIDEI,849,39,Male,White,United States,United States,United States,English,No,Full-Time,Not Applicable
62d04f92bfa53e94ef2fabaf,"<b>If the political party I support messes up, it makes me think you can?t trust anyone these days",Highly disagree,55/94,Somewhat agree,3,1708007394844,1708007403034,\Somewhat agree\,\Somewhat agree\,\3\,1708007401358,1708007401358,6514,6514,8190,buq,qns-item-noham,55,530155,0.0-1.0-0.54,65ce1dc2d4a33ea7a58daa48,AWAITING REVIEW,2024-02-15T14:20:56.182000Z,2024-02-15T14:38:44.999000Z,,2024-02-15T14:38:45.533735Z,1069.0,CVPIIDEI,849,39,Male,White,United States,United States,United States,English,No,Full-Time,Not Applicable
62d04f92bfa53e94ef2fabaf,<b>People?s brains turn off when they talk about politics.,Highly disagree,56/94,Somewhat disagree,2,1708007403035,1708007419628,\Somewhat disagree\,\Somewhat disagree\,\2\,1708007418297,1708007418297,15262,15262,16593,buq,qns-item-noham,56,546749,0.0-1.0-0.55,65ce1dc2d4a33ea7a58daa48,AWAITING REVIEW,2024-02-15T14:20:56.182000Z,2024-02-15T14:38:44.999000Z,,2024-02-15T14:38:45.533735Z,1069.0,CVPIIDEI,849,39,Male,White,United States,United States,United States,English,No,Full-Time,Not Applicable
62d04f92bfa53e94ef2fabaf,<b>People who are wrong are usually just ignoring the obvious.,Highly disagree,57/94,Somewhat agree,3,1708007419629,1708007429865,\Somewhat agree\,\Somewhat agree\,\3\,1708007428862,1708007428862,9233,9233,10236,buq,qns-item-noham,57,556986,0.0-1.0-0.56,65ce1dc2d4a33ea7a58daa48,AWAITING REVIEW,2024-02-15T14:20:56.182000Z,2024-02-15T14:38:44.999000Z,,2024-02-15T14:38:45.533735Z,1069.0,CVPIIDEI,849,39,Male,White,United States,United States,United States,English,No,Full-Time,Not Applicable
62d04f92bfa53e94ef2fabaf,"<b>When forming my views on people, I rely more on what they are like now rather than rely on my past experience with them.",Highly disagree,58/94,Somewhat agree,3,1708007429866,1708007441411,\Highly agree\,\Somewhat agree\,\4\,1708007439154,1708007440607,9288,10741,11545,buq,qns-item-noham,58,568532,0.0-1.0-0.57,65ce1dc2d4a33ea7a58daa48,AWAITING REVIEW,2024-02-15T14:20:56.182000Z,2024-02-15T14:38:44.999000Z,,2024-02-15T14:38:45.533735Z,1069.0,CVPIIDEI,849,39,Male,White,United States,United States,United States,English,No,Full-Time,Not Applicable
62d04f92bfa53e94ef2fabaf,"<b>When people contradict my beliefs, I usually know about their evidence already.",Highly disagree,59/94,Somewhat disagree,2,1708007441412,1708007450646,\Somewhat disagree\,\Somewhat disagree\,\2\,1708007449350,1708007449350,7938,7938,9234,buq,qns-item-noham,59,577767,0.0-1.0-0.58,65ce1dc2d4a33ea7a58daa48,AWAITING REVIEW,2024-02-15T14:20:56.182000Z,2024-02-15T14:38:44.999000Z,,2024-02-15T14:38:45.533735Z,1069.0,CVPIIDEI,849,39,Male,White,United States,United States,United States,English,No,Full-Time,Not Applicable
62d04f92bfa53e94ef2fabaf,<b>Figuring out what?s true and what?s false mainly requires a strong moral compass.,Highly disagree,60/94,Somewhat disagree,2,1708007450647,1708007466333,\Somewhat agree\,\Somewhat disagree\,\3\,1708007458085,1708007465239,7438,14592,15686,buq,qns-item-noham,60,593454,0.0-1.0-0.59,65ce1dc2d4a33ea7a58daa48,AWAITING REVIEW,2024-02-15T14:20:56.182000Z,2024-02-15T14:38:44.999000Z,,2024-02-15T14:38:45.533735Z,1069.0,CVPIIDEI,849,39,Male,White,United States,United States,United States,English,No,Full-Time,Not Applicable
62d04f92bfa53e94ef2fabaf,"<b>Usually I?m wrong about simple things, not complicated ones.",Highly disagree,61/94,Somewhat disagree,2,1708007466334,1708007473723,\Somewhat disagree\,\Somewhat disagree\,\2\,1708007473061,1708007473061,6727,6727,7389,buq,qns-item-noham,61,600844,0.0-1.0-0.60,65ce1dc2d4a33ea7a58daa48,AWAITING REVIEW,2024-02-15T14:20:56.182000Z,2024-02-15T14:38:44.999000Z,,2024-02-15T14:38:45.533735Z,1069.0,CVPIIDEI,849,39,Male,White,United States,United States,United States,English,No,Full-Time,Not Applicable
62d04f92bfa53e94ef2fabaf,<b>Getting all the information I want about important things is hard.,Highly disagree,62/94,Highly agree,4,1708007473724,1708007480109,\Highly agree\,\Highly agree\,\4\,1708007479077,1708007479077,5353,5353,6385,buq,qns-item-noham,62,607230,0.0-1.0-0.61,65ce1dc2d4a33ea7a58daa48,AWAITING REVIEW,2024-02-15T14:20:56.182000Z,2024-02-15T14:38:44.999000Z,,2024-02-15T14:38:45.533735Z,1069.0,CVPIIDEI,849,39,Male,White,United States,United States,United States,English,No,Full-Time,Not Applicable
62d04f92bfa53e94ef2fabaf,<b>Most false beliefs spread because people try to deceive one another.,Highly disagree,63/94,Highly agree,4,1708007480110,1708007491441,\Highly agree\,\Highly agree\,\4\,1708007489965,1708007489965,9855,9855,11331,buq,qns-item-noham,63,618562,0.0-1.0-0.62,65ce1dc2d4a33ea7a58daa48,AWAITING REVIEW,2024-02-15T14:20:56.182000Z,2024-02-15T14:38:44.999000Z,,2024-02-15T14:38:45.533735Z,1069.0,CVPIIDEI,849,39,Male,White,United States,United States,United States,English,No,Full-Time,Not Applicable
62d04f92bfa53e94ef2fabaf,<b>I can usually find something to agree with in most people?s beliefs.,Highly disagree,64/94,Somewhat agree,3,1708007491442,1708007513918,\Somewhat agree\,\Somewhat agree\,\3\,1708007512789,1708007512789,21347,21347,22476,buq,qns-item-noham,64,641039,0.0-1.0-0.63,65ce1dc2d4a33ea7a58daa48,AWAITING REVIEW,2024-02-15T14:20:56.182000Z,2024-02-15T14:38:44.999000Z,,2024-02-15T14:38:45.533735Z,1069.0,CVPIIDEI,849,39,Male,White,United States,United States,United States,English,No,Full-Time,Not Applicable
62d04f92bfa53e94ef2fabaf,<b>I only form my views of people once I get to know them very well.,Highly disagree,65/94,Somewhat agree,3,1708007513919,1708007523830,\Somewhat agree\,\Somewhat agree\,\3\,1708007519038,1708007519038,5119,5119,9911,buq,qns-item-noham,65,650951,0.0-1.0-0.64,65ce1dc2d4a33ea7a58daa48,AWAITING REVIEW,2024-02-15T14:20:56.182000Z,2024-02-15T14:38:44.999000Z,,2024-02-15T14:38:45.533735Z,1069.0,CVPIIDEI,849,39,Male,White,United States,United States,United States,English,No,Full-Time,Not Applicable
62d04f92bfa53e94ef2fabaf,"<b>When people tell me important things about the world, I usually believe them.",Highly disagree,66/94,Somewhat disagree,2,1708007523831,1708007535225,\Somewhat disagree\,\Somewhat disagree\,\2\,1708007530550,1708007530550,6719,6719,11394,buq,qns-item-noham,66,662346,0.0-1.0-0.65,65ce1dc2d4a33ea7a58daa48,AWAITING REVIEW,2024-02-15T14:20:56.182000Z,2024-02-15T14:38:44.999000Z,,2024-02-15T14:38:45.533735Z,1069.0,CVPIIDEI,849,39,Male,White,United States,United States,United States,English,No,Full-Time,Not Applicable
62d04f92bfa53e94ef2fabaf,"<b>If a friend does something that upsets me, it reminds me what an unpredictable place the world is.",Highly disagree,67/94,Highly agree,4,1708007535226,1708007543210,\Highly agree\,\Highly agree\,\4\,1708007542312,1708007542312,7086,7086,7984,buq,qns-item-noham,67,670331,0.0-1.0-0.66,65ce1dc2d4a33ea7a58daa48,AWAITING REVIEW,2024-02-15T14:20:56.182000Z,2024-02-15T14:38:44.999000Z,,2024-02-15T14:38:45.533735Z,1069.0,CVPIIDEI,849,39,Male,White,United States,United States,United States,English,No,Full-Time,Not Applicable
62d04f92bfa53e94ef2fabaf,<b>People tend to believe whatever is good for their friends.,Highly disagree,68/94,Highly agree,4,1708007543211,1708007550865,\Highly agree\,\Highly agree\,\4\,1708007550195,1708007550195,6984,6984,7654,buq,qns-item-noham,68,677986,0.0-1.0-0.67,65ce1dc2d4a33ea7a58daa48,AWAITING REVIEW,2024-02-15T14:20:56.182000Z,2024-02-15T14:38:44.999000Z,,2024-02-15T14:38:45.533735Z,1069.0,CVPIIDEI,849,39,Male,White,United States,United States,United States,English,No,Full-Time,Not Applicable
62d04f92bfa53e94ef2fabaf,<b>I used to be more certain my beliefs were true.,Highly disagree,69/94,Somewhat disagree,2,1708007550866,1708007557854,\Somewhat disagree\,\Somewhat disagree\,\2\,1708007556839,1708007556839,5973,5973,6988,buq,qns-item-noham,69,684975,0.0-1.0-0.68,65ce1dc2d4a33ea7a58daa48,AWAITING REVIEW,2024-02-15T14:20:56.182000Z,2024-02-15T14:38:44.999000Z,,2024-02-15T14:38:45.533735Z,1069.0,CVPIIDEI,849,39,Male,White,United States,United States,United States,English,No,Full-Time,Not Applicable
62d04f92bfa53e94ef2fabaf,<b>It?s often pretty easy to figure out whether something is true based on who said it.,Highly disagree,70/94,Somewhat disagree,2,1708007557855,1708007569841,\Somewhat disagree\,\Somewhat disagree\,\2\,1708007566140,1708007568513,8285,10658,11986,buq,qns-item-noham,70,696962,0.0-1.0-0.69,65ce1dc2d4a33ea7a58daa48,AWAITING REVIEW,2024-02-15T14:20:56.182000Z,2024-02-15T14:38:44.999000Z,,2024-02-15T14:38:45.533735Z,1069.0,CVPIIDEI,849,39,Male,White,United States,United States,United States,English,No,Full-Time,Not Applicable
62d04f92bfa53e94ef2fabaf,<b>I transform into a hummingbird every day.,Highly disagree,71/94,Highly disagree,1,1708007569842,1708007574231,\Highly disagree\,\Highly disagree\,\1\,1708007572986,1708007572986,3144,3144,4389,buq,qns-item-noham,71,701352,0.0-1.0-0.70,65ce1dc2d4a33ea7a58daa48,AWAITING REVIEW,2024-02-15T14:20:56.182000Z,2024-02-15T14:38:44.999000Z,,2024-02-15T14:38:45.533735Z,1069.0,CVPIIDEI,849,39,Male,White,United States,United States,United States,English,No,Full-Time,Not Applicable
62d04f92bfa53e94ef2fabaf,<b>I think a lot about arguments against my views.,Highly disagree,72/94,Somewhat agree,3,1708007574232,1708007581653,\Somewhat agree\,\Somewhat agree\,\3\,1708007580732,1708007580732,6500,6500,7421,buq,qns-item-noham,72,708774,0.0-1.0-0.71,65ce1dc2d4a33ea7a58daa48,AWAITING REVIEW,2024-02-15T14:20:56.182000Z,2024-02-15T14:38:44.999000Z,,2024-02-15T14:38:45.533735Z,1069.0,CVPIIDEI,849,39,Male,White,United States,United States,United States,English,No,Full-Time,Not Applicable
62d04f92bfa53e94ef2fabaf,<b>Personal experience is usually more important than facts and figures.,Highly disagree,73/94,Highly disagree,1,1708007581654,1708007591483,\Highly disagree\,\Highly disagree\,\1\,1708007589752,1708007589752,8098,8098,9829,buq,qns-item-noham,73,718604,0.0-1.0-0.72,65ce1dc2d4a33ea7a58daa48,AWAITING REVIEW,2024-02-15T14:20:56.182000Z,2024-02-15T14:38:44.999000Z,,2024-02-15T14:38:45.533735Z,1069.0,CVPIIDEI,849,39,Male,White,United States,United States,United States,English,No,Full-Time,Not Applicable
62d04f92bfa53e94ef2fabaf,<b>I?ve been tricked before about important matters.,Highly disagree,74/94,Highly agree,4,1708007591484,1708007596415,\Highly agree\,\Highly agree\,\4\,1708007595697,1708007595697,4213,4213,4931,buq,qns-item-noham,74,723536,0.0-1.0-0.73,65ce1dc2d4a33ea7a58daa48,AWAITING REVIEW,2024-02-15T14:20:56.182000Z,2024-02-15T14:38:44.999000Z,,2024-02-15T14:38:45.533735Z,1069.0,CVPIIDEI,849,39,Male,White,United States,United States,United States,English,No,Full-Time,Not Applicable
62d04f92bfa53e94ef2fabaf,<b>I would need to be totally wowed if I were to change my opinion of a restaurant I don?t like.,Highly disagree,75/94,Highly agree,4,1708007596416,1708007608378,\Highly agree\,\Highly agree\,\4\,1708007606866,1708007606866,10450,10450,11962,buq,qns-item-noham,75,735499,0.0-1.0-0.74,65ce1dc2d4a33ea7a58daa48,AWAITING REVIEW,2024-02-15T14:20:56.182000Z,2024-02-15T14:38:44.999000Z,,2024-02-15T14:38:45.533735Z,1069.0,CVPIIDEI,849,39,Male,White,United States,United States,United States,English,No,Full-Time,Not Applicable
62d04f92bfa53e94ef2fabaf,<b>I care a lot about politics.,Highly disagree,76/94,Highly agree,4,1708007608379,1708007611752,\Highly agree\,\Highly agree\,\4\,1708007610947,1708007610947,2568,2568,3373,buq,qns-item-noham,76,738873,0.0-1.0-0.75,65ce1dc2d4a33ea7a58daa48,AWAITING REVIEW,2024-02-15T14:20:56.182000Z,2024-02-15T14:38:44.999000Z,,2024-02-15T14:38:45.533735Z,1069.0,CVPIIDEI,849,39,Male,White,United States,United States,United States,English,No,Full-Time,Not Applicable
62d04f92bfa53e94ef2fabaf,<b>There are some topics I?ve been really wrong about.,Highly disagree,77/94,Somewhat agree,3,1708007611753,1708007617642,\Somewhat agree\,\Somewhat agree\,\3\,1708007616411,1708007616411,4658,4658,5889,buq,qns-item-noham,77,744763,0.0-1.0-0.76,65ce1dc2d4a33ea7a58daa48,AWAITING REVIEW,2024-02-15T14:20:56.182000Z,2024-02-15T14:38:44.999000Z,,2024-02-15T14:38:45.533735Z,1069.0,CVPIIDEI,849,39,Male,White,United States,United States,United States,English,No,Full-Time,Not Applicable
62d04f92bfa53e94ef2fabaf,<b>Most beliefs can be supported with at least some evidence.,Highly disagree,78/94,Somewhat agree,3,1708007617643,1708007662407,\Somewhat agree\,\Somewhat agree\,\3\,1708007661572,1708007661572,43929,43929,44764,buq,qns-item-noham,78,789528,0.0-1.0-0.77,65ce1dc2d4a33ea7a58daa48,AWAITING REVIEW,2024-02-15T14:20:56.182000Z,2024-02-15T14:38:44.999000Z,,2024-02-15T14:38:45.533735Z,1069.0,CVPIIDEI,849,39,Male,White,United States,United States,United States,English,No,Full-Time,Not Applicable
62d04f92bfa53e94ef2fabaf,<b>Other people make life out to be more complicated than it really is.,Highly disagree,79/94,Highly agree,4,1708007662408,1708007669383,\Highly agree\,\Highly agree\,\4\,1708007668254,1708007668254,5846,5846,6975,buq,qns-item-noham,79,796504,0.0-1.0-0.78,65ce1dc2d4a33ea7a58daa48,AWAITING REVIEW,2024-02-15T14:20:56.182000Z,2024-02-15T14:38:44.999000Z,,2024-02-15T14:38:45.533735Z,1069.0,CVPIIDEI,849,39,Male,White,United States,United States,United States,English,No,Full-Time,Not Applicable
62d04f92bfa53e94ef2fabaf,"<b>Policy details don?t matter much, just the big picture.",Highly disagree,80/94,Somewhat disagree,2,1708007669384,1708007678918,\Somewhat disagree\,\Somewhat disagree\,\2\,1708007676342,1708007676342,6958,6958,9534,buq,qns-item-noham,80,806039,0.0-1.0-0.79,65ce1dc2d4a33ea7a58daa48,AWAITING REVIEW,2024-02-15T14:20:56.182000Z,2024-02-15T14:38:44.999000Z,,2024-02-15T14:38:45.533735Z,1069.0,CVPIIDEI,849,39,Male,White,United States,United States,United States,English,No,Full-Time,Not Applicable
62d04f92bfa53e94ef2fabaf,<b>I know my friends so well they can hardly ever surprise me.,Highly disagree,81/94,Somewhat agree,3,1708007678919,1708007691441,\Somewhat agree\,\Somewhat agree\,\3\,1708007690510,1708007690510,11591,11591,12522,buq,qns-item-noham,81,818562,0.0-1.0-0.80,65ce1dc2d4a33ea7a58daa48,AWAITING REVIEW,2024-02-15T14:20:56.182000Z,2024-02-15T14:38:44.999000Z,,2024-02-15T14:38:45.533735Z,1069.0,CVPIIDEI,849,39,Male,White,United States,United States,United States,English,No,Full-Time,Not Applicable
62d04f92bfa53e94ef2fabaf,<b>I do not often change my views on people.,Highly disagree,82/94,Somewhat disagree,2,1708007691442,1708007704198,\Somewhat agree\,\Somewhat disagree\,\3\,1708007698585,1708007703089,7143,11647,12756,buq,qns-item-noham,82,831320,0.0-1.0-0.81,65ce1dc2d4a33ea7a58daa48,AWAITING REVIEW,2024-02-15T14:20:56.182000Z,2024-02-15T14:38:44.999000Z,,2024-02-15T14:38:45.533735Z,1069.0,CVPIIDEI,849,39,Male,White,United States,United States,United States,English,No,Full-Time,Not Applicable
62d04f92bfa53e94ef2fabaf,<b>I?m more certain about my beliefs than I used to be.,Highly disagree,83/94,Somewhat agree,3,1708007704200,1708007710875,\Somewhat agree\,\Somewhat agree\,\3\,1708007709573,1708007709573,5373,5373,6675,buq,qns-item-noham,83,837996,0.0-1.0-0.82,65ce1dc2d4a33ea7a58daa48,AWAITING REVIEW,2024-02-15T14:20:56.182000Z,2024-02-15T14:38:44.999000Z,,2024-02-15T14:38:45.533735Z,1069.0,CVPIIDEI,849,39,Male,White,United States,United States,United States,English,No,Full-Time,Not Applicable
62d04f92bfa53e94ef2fabaf,<b>People often tell falsehoods unintentionally.,Highly disagree,84/94,Somewhat agree,3,1708007710876,1708007723135,\Somewhat agree\,\Somewhat agree\,\3\,1708007719025,1708007719025,8149,8149,12259,buq,qns-item-noham,84,850256,0.0-1.0-0.83,65ce1dc2d4a33ea7a58daa48,AWAITING REVIEW,2024-02-15T14:20:56.182000Z,2024-02-15T14:38:44.999000Z,,2024-02-15T14:38:45.533735Z,1069.0,CVPIIDEI,849,39,Male,White,United States,United States,United States,English,No,Full-Time,Not Applicable
62d04f92bfa53e94ef2fabaf,<b>Most people don?t know much about most things.,Highly disagree,85/94,Highly agree,4,1708007723136,1708007735671,\Highly agree\,\Highly agree\,\4\,1708007734559,1708007734559,11423,11423,12535,buq,qns-item-noham,85,862792,0.0-1.0-0.84,65ce1dc2d4a33ea7a58daa48,AWAITING REVIEW,2024-02-15T14:20:56.182000Z,2024-02-15T14:38:44.999000Z,,2024-02-15T14:38:45.533735Z,1069.0,CVPIIDEI,849,39,Male,White,United States,United States,United States,English,No,Full-Time,Not Applicable
62d04f92bfa53e94ef2fabaf,"<b>If I find out something new about someone, I easily change my views about them.",Highly disagree,86/94,Somewhat agree,3,1708007735672,1708007749893,\Somewhat agree\,\Somewhat agree\,\3\,1708007748255,1708007748255,12583,12583,14221,buq,qns-item-noham,86,877014,0.0-1.0-0.85,65ce1dc2d4a33ea7a58daa48,AWAITING REVIEW,2024-02-15T14:20:56.182000Z,2024-02-15T14:38:44.999000Z,,2024-02-15T14:38:45.533735Z,1069.0,CVPIIDEI,849,39,Male,White,United States,United States,United States,English,No,Full-Time,Not Applicable
62d04f92bfa53e94ef2fabaf,<b>Having true beliefs is difficult.,Highly disagree,87/94,Somewhat agree,3,1708007749894,1708007755918,\Somewhat agree\,\Somewhat agree\,\3\,1708007754773,1708007754773,4879,4879,6024,buq,qns-item-noham,87,883039,0.0-1.0-0.86,65ce1dc2d4a33ea7a58daa48,AWAITING REVIEW,2024-02-15T14:20:56.182000Z,2024-02-15T14:38:44.999000Z,,2024-02-15T14:38:45.533735Z,1069.0,CVPIIDEI,849,39,Male,White,United States,United States,United States,English,No,Full-Time,Not Applicable
62d04f92bfa53e94ef2fabaf,<b>I don?t try new foods since I know I won?t like them.,Highly disagree,88/94,Highly disagree,1,1708007755919,1708007762426,\Highly disagree\,\Highly disagree\,\1\,1708007761842,1708007761842,5923,5923,6507,buq,qns-item-noham,88,889547,0.0-1.0-0.87,65ce1dc2d4a33ea7a58daa48,AWAITING REVIEW,2024-02-15T14:20:56.182000Z,2024-02-15T14:38:44.999000Z,,2024-02-15T14:38:45.533735Z,1069.0,CVPIIDEI,849,39,Male,White,United States,United States,United States,English,No,Full-Time,Not Applicable
62d04f92bfa53e94ef2fabaf,<b>Other people trick each other a lot.,Highly disagree,89/94,Somewhat agree,3,1708007762427,1708007765807,\Somewhat agree\,\Somewhat agree\,\3\,1708007765046,1708007765046,2619,2619,3380,buq,qns-item-noham,89,892928,0.0-1.0-0.88,65ce1dc2d4a33ea7a58daa48,AWAITING REVIEW,2024-02-15T14:20:56.182000Z,2024-02-15T14:38:44.999000Z,,2024-02-15T14:38:45.533735Z,1069.0,CVPIIDEI,849,39,Male,White,United States,United States,United States,English,No,Full-Time,Not Applicable
62d04f92bfa53e94ef2fabaf,<b>I would need to learn a lot about a person for my opinion of them to be swayed.,Highly disagree,90/94,Somewhat agree,3,1708007765808,1708007774205,\Somewhat agree\,\Somewhat agree\,\3\,1708007773101,1708007773101,7293,7293,8397,buq,qns-item-noham,90,901326,0.0-1.0-0.89,65ce1dc2d4a33ea7a58daa48,AWAITING REVIEW,2024-02-15T14:20:56.182000Z,2024-02-15T14:38:44.999000Z,,2024-02-15T14:38:45.533735Z,1069.0,CVPIIDEI,849,39,Male,White,United States,United States,United States,English,No,Full-Time,Not Applicable
62d04f92bfa53e94ef2fabaf,<b>People can?t usually trick me when it comes to topics I care about.,Highly disagree,91/94,Somewhat agree,3,1708007774206,1708007781941,\Somewhat agree\,\Somewhat agree\,\3\,1708007780482,1708007780482,6276,6276,7735,buq,qns-item-noham,91,909062,0.0-1.0-0.90,65ce1dc2d4a33ea7a58daa48,AWAITING REVIEW,2024-02-15T14:20:56.182000Z,2024-02-15T14:38:44.999000Z,,2024-02-15T14:38:45.533735Z,1069.0,CVPIIDEI,849,39,Male,White,United States,United States,United States,English,No,Full-Time,Not Applicable
62d04f92bfa53e94ef2fabaf,<b>I do not often change my views on food.,Highly disagree,92/94,Somewhat disagree,2,1708007781942,1708007788667,\Somewhat disagree\,\Somewhat disagree\,\2\,1708007786683,1708007786683,4741,4741,6725,buq,qns-item-noham,92,915788,0.0-1.0-0.91,65ce1dc2d4a33ea7a58daa48,AWAITING REVIEW,2024-02-15T14:20:56.182000Z,2024-02-15T14:38:44.999000Z,,2024-02-15T14:38:45.533735Z,1069.0,CVPIIDEI,849,39,Male,White,United States,United States,United States,English,No,Full-Time,Not Applicable
62d04f92bfa53e94ef2fabaf,<b>Specific policies are often very important to me.,Highly disagree,93/94,Somewhat agree,3,1708007788669,1708007796514,\Somewhat agree\,\Somewhat agree\,\3\,1708007795428,1708007795428,6759,6759,7845,buq,qns-item-noham,93,923635,0.0-1.0-0.92,65ce1dc2d4a33ea7a58daa48,AWAITING REVIEW,2024-02-15T14:20:56.182000Z,2024-02-15T14:38:44.999000Z,,2024-02-15T14:38:45.533735Z,1069.0,CVPIIDEI,849,39,Male,White,United States,United States,United States,English,No,Full-Time,Not Applicable
62d04f92bfa53e94ef2fabaf,<b>Most people are woefully under-informed.,Highly disagree,94/94,Highly agree,4,1708007796515,1708007802756,\Highly agree\,\Highly agree\,\4\,1708007801895,1708007801895,5380,5380,6241,buq,qns-item-noham,94,929877,0.0-1.0-0.93,65ce1dc2d4a33ea7a58daa48,AWAITING REVIEW,2024-02-15T14:20:56.182000Z,2024-02-15T14:38:44.999000Z,,2024-02-15T14:38:45.533735Z,1069.0,CVPIIDEI,849,39,Male,White,United States,United States,United States,English,No,Full-Time,Not Applicable
62d04f92bfa53e94ef2fabaf,,,,,,,,,,,,,,,,,,,,,65ce1dc2d4a33ea7a58daa48,AWAITING REVIEW,2024-02-15T14:20:56.182000Z,2024-02-15T14:38:44.999000Z,,2024-02-15T14:38:45.533735Z,1069.0,CVPIIDEI,849,39,Male,White,United States,United States,United States,English,No,Full-Time,Not Applicable
