PROLIFIC_PID,Question,qns_options,quest_num,answer,answer_num,question_load_timestamp,next_btn_timestamp,text_selected,final_text_selected,option_num_selected,preview_timestamps,final_text_selected_time_stamp,rt_first_option_click,rt_final_option_click,rt_submit_click,questionnaire,trial_type,trial_index,time_elapsed,internal_node_id,Demographic_Submission id,Demographic_Status,Demographic_Started at,Demographic_Completed at,Demographic_Reviewed at,Demographic_Archived at,Demographic_Time taken,Demographic_Completion code,Demographic_Total approvals,Demographic_Age,Demographic_Sex,Demographic_Ethnicity simplified,Demographic_Country of birth,Demographic_Country of residence,Demographic_Nationality,Demographic_Language,Demographic_Student status,Demographic_Employment status,Demographic_Custom study tncs accepted at
61549a2caa92d84f392000e9,<b>Knowing what?s true and knowing what to do about it are usually basically the same.,Highly disagree,1/94,Somewhat agree,3,1708006951930,1708006970373,\Somewhat agree\,\Somewhat agree\,\3\,1708006969217,1708006969217,17287,17287,18443,buq,qns-item-noham,1,49772,0.0-1.0-0.0,65ce1d6a726e59eeb6124a43,RETURNED,2024-02-15T14:21:01.824000Z,2024-02-15T14:25:45.791000Z,,2024-02-15T14:25:47.100000Z,,CVPIIDEI,2745,CONSENT_REVOKED,CONSENT_REVOKED,CONSENT_REVOKED,CONSENT_REVOKED,CONSENT_REVOKED,CONSENT_REVOKED,CONSENT_REVOKED,CONSENT_REVOKED,CONSENT_REVOKED,Not Applicable
61549a2caa92d84f392000e9,<b>Most people just believe whatever is convenient for them.,Highly disagree,2/94,Somewhat agree,3,1708006970377,1708006973130,\Somewhat agree\,\Somewhat agree\,\3\,1708006972610,1708006972610,2233,2233,2753,buq,qns-item-noham,2,52529,0.0-1.0-0.1,65ce1d6a726e59eeb6124a43,RETURNED,2024-02-15T14:21:01.824000Z,2024-02-15T14:25:45.791000Z,,2024-02-15T14:25:47.100000Z,,CVPIIDEI,2745,CONSENT_REVOKED,CONSENT_REVOKED,CONSENT_REVOKED,CONSENT_REVOKED,CONSENT_REVOKED,CONSENT_REVOKED,CONSENT_REVOKED,CONSENT_REVOKED,CONSENT_REVOKED,Not Applicable
61549a2caa92d84f392000e9,<b>Having some big beliefs helps me sort out minor ones.,Highly disagree,3/94,Somewhat agree,3,1708006973131,1708006974392,\Somewhat agree\,\Somewhat agree\,\3\,1708006973850,1708006973850,719,719,1261,buq,qns-item-noham,3,53791,0.0-1.0-0.2,65ce1d6a726e59eeb6124a43,RETURNED,2024-02-15T14:21:01.824000Z,2024-02-15T14:25:45.791000Z,,2024-02-15T14:25:47.100000Z,,CVPIIDEI,2745,CONSENT_REVOKED,CONSENT_REVOKED,CONSENT_REVOKED,CONSENT_REVOKED,CONSENT_REVOKED,CONSENT_REVOKED,CONSENT_REVOKED,CONSENT_REVOKED,CONSENT_REVOKED,Not Applicable
61549a2caa92d84f392000e9,<b>Political questions are usually pretty complicated.,Highly disagree,4/94,Somewhat agree,3,1708006974395,1708006977786,\Somewhat agree\,\Somewhat agree\,\3\,1708006977193,1708006977193,2798,2798,3391,buq,qns-item-noham,4,57185,0.0-1.0-0.3,65ce1d6a726e59eeb6124a43,RETURNED,2024-02-15T14:21:01.824000Z,2024-02-15T14:25:45.791000Z,,2024-02-15T14:25:47.100000Z,,CVPIIDEI,2745,CONSENT_REVOKED,CONSENT_REVOKED,CONSENT_REVOKED,CONSENT_REVOKED,CONSENT_REVOKED,CONSENT_REVOKED,CONSENT_REVOKED,CONSENT_REVOKED,CONSENT_REVOKED,Not Applicable
61549a2caa92d84f392000e9,<b>Figuring out what?s important in life requires learning a lot of facts.,Highly disagree,5/94,Highly agree,4,1708006977789,1708006979681,\Highly agree\,\Highly agree\,\4\,1708006978963,1708006978963,1174,1174,1892,buq,qns-item-noham,5,59080,0.0-1.0-0.4,65ce1d6a726e59eeb6124a43,RETURNED,2024-02-15T14:21:01.824000Z,2024-02-15T14:25:45.791000Z,,2024-02-15T14:25:47.100000Z,,CVPIIDEI,2745,CONSENT_REVOKED,CONSENT_REVOKED,CONSENT_REVOKED,CONSENT_REVOKED,CONSENT_REVOKED,CONSENT_REVOKED,CONSENT_REVOKED,CONSENT_REVOKED,CONSENT_REVOKED,Not Applicable
61549a2caa92d84f392000e9,<b>It is difficult for me to remember the last time I was surprised by politics.,Highly disagree,6/94,Somewhat agree,3,1708006979683,1708006980969,\Somewhat agree\,\Somewhat agree\,\3\,1708006980540,1708006980540,857,857,1286,buq,qns-item-noham,6,60368,0.0-1.0-0.5,65ce1d6a726e59eeb6124a43,RETURNED,2024-02-15T14:21:01.824000Z,2024-02-15T14:25:45.791000Z,,2024-02-15T14:25:47.100000Z,,CVPIIDEI,2745,CONSENT_REVOKED,CONSENT_REVOKED,CONSENT_REVOKED,CONSENT_REVOKED,CONSENT_REVOKED,CONSENT_REVOKED,CONSENT_REVOKED,CONSENT_REVOKED,CONSENT_REVOKED,Not Applicable
61549a2caa92d84f392000e9,<b>People?s false beliefs are understandable.,Highly disagree,7/94,Somewhat disagree,2,1708006980971,1708006982161,\Somewhat disagree\,\Somewhat disagree\,\2\,1708006981681,1708006981681,710,710,1190,buq,qns-item-noham,7,61560,0.0-1.0-0.6,65ce1d6a726e59eeb6124a43,RETURNED,2024-02-15T14:21:01.824000Z,2024-02-15T14:25:45.791000Z,,2024-02-15T14:25:47.100000Z,,CVPIIDEI,2745,CONSENT_REVOKED,CONSENT_REVOKED,CONSENT_REVOKED,CONSENT_REVOKED,CONSENT_REVOKED,CONSENT_REVOKED,CONSENT_REVOKED,CONSENT_REVOKED,CONSENT_REVOKED,Not Applicable
61549a2caa92d84f392000e9,<b>I spend a lot of time trying to be informed about politics.,Highly disagree,8/94,Somewhat agree,3,1708006982162,1708006983339,\Somewhat agree\,\Somewhat agree\,\3\,1708006982906,1708006982906,744,744,1177,buq,qns-item-noham,8,62738,0.0-1.0-0.7,65ce1d6a726e59eeb6124a43,RETURNED,2024-02-15T14:21:01.824000Z,2024-02-15T14:25:45.791000Z,,2024-02-15T14:25:47.100000Z,,CVPIIDEI,2745,CONSENT_REVOKED,CONSENT_REVOKED,CONSENT_REVOKED,CONSENT_REVOKED,CONSENT_REVOKED,CONSENT_REVOKED,CONSENT_REVOKED,CONSENT_REVOKED,CONSENT_REVOKED,Not Applicable
61549a2caa92d84f392000e9,<b>I think a lot about whether my beliefs are right.,Highly disagree,9/94,Somewhat agree,3,1708006983341,1708006984586,\Somewhat agree\,\Somewhat agree\,\3\,1708006984155,1708006984155,814,814,1245,buq,qns-item-noham,9,63985,0.0-1.0-0.8,65ce1d6a726e59eeb6124a43,RETURNED,2024-02-15T14:21:01.824000Z,2024-02-15T14:25:45.791000Z,,2024-02-15T14:25:47.100000Z,,CVPIIDEI,2745,CONSENT_REVOKED,CONSENT_REVOKED,CONSENT_REVOKED,CONSENT_REVOKED,CONSENT_REVOKED,CONSENT_REVOKED,CONSENT_REVOKED,CONSENT_REVOKED,CONSENT_REVOKED,Not Applicable
61549a2caa92d84f392000e9,<b>Statistics can be pretty misleading sometimes.,Highly disagree,10/94,Somewhat disagree,2,1708006984588,1708006987585,\Somewhat disagree\,\Somewhat disagree\,\2\,1708006985651,1708006987075,1063,2487,2997,buq,qns-item-noham,10,66984,0.0-1.0-0.9,65ce1d6a726e59eeb6124a43,RETURNED,2024-02-15T14:21:01.824000Z,2024-02-15T14:25:45.791000Z,,2024-02-15T14:25:47.100000Z,,CVPIIDEI,2745,CONSENT_REVOKED,CONSENT_REVOKED,CONSENT_REVOKED,CONSENT_REVOKED,CONSENT_REVOKED,CONSENT_REVOKED,CONSENT_REVOKED,CONSENT_REVOKED,CONSENT_REVOKED,Not Applicable
61549a2caa92d84f392000e9,<b>I have lots of beliefs that I?m only sort of sure about.,Highly disagree,11/94,Somewhat disagree,2,1708006987587,1708006988690,\Somewhat disagree\,\Somewhat disagree\,\2\,1708006988243,1708006988243,656,656,1103,buq,qns-item-noham,11,68089,0.0-1.0-0.10,65ce1d6a726e59eeb6124a43,RETURNED,2024-02-15T14:21:01.824000Z,2024-02-15T14:25:45.791000Z,,2024-02-15T14:25:47.100000Z,,CVPIIDEI,2745,CONSENT_REVOKED,CONSENT_REVOKED,CONSENT_REVOKED,CONSENT_REVOKED,CONSENT_REVOKED,CONSENT_REVOKED,CONSENT_REVOKED,CONSENT_REVOKED,CONSENT_REVOKED,Not Applicable
61549a2caa92d84f392000e9,"<b>If I go to my favorite restaurant and the food is surprisingly bad, it reminds me there are many disappointments in life.",Highly disagree,12/94,Somewhat agree,3,1708006988693,1708006989858,\Somewhat agree\,\Somewhat agree\,\3\,1708006989409,1708006989409,716,716,1165,buq,qns-item-noham,12,69257,0.0-1.0-0.11,65ce1d6a726e59eeb6124a43,RETURNED,2024-02-15T14:21:01.824000Z,2024-02-15T14:25:45.791000Z,,2024-02-15T14:25:47.100000Z,,CVPIIDEI,2745,CONSENT_REVOKED,CONSENT_REVOKED,CONSENT_REVOKED,CONSENT_REVOKED,CONSENT_REVOKED,CONSENT_REVOKED,CONSENT_REVOKED,CONSENT_REVOKED,CONSENT_REVOKED,Not Applicable
61549a2caa92d84f392000e9,"<b>If you are paying attention, please select ?Somewhat agree?",Highly disagree,13/94,Somewhat agree,3,1708006989860,1708006993289,\Somewhat disagree\,\Somewhat agree\,\2\,1708006990337,1708006992259,477,2399,3429,buq,qns-item-noham,13,72688,0.0-1.0-0.12,65ce1d6a726e59eeb6124a43,RETURNED,2024-02-15T14:21:01.824000Z,2024-02-15T14:25:45.791000Z,,2024-02-15T14:25:47.100000Z,,CVPIIDEI,2745,CONSENT_REVOKED,CONSENT_REVOKED,CONSENT_REVOKED,CONSENT_REVOKED,CONSENT_REVOKED,CONSENT_REVOKED,CONSENT_REVOKED,CONSENT_REVOKED,CONSENT_REVOKED,Not Applicable
61549a2caa92d84f392000e9,"<b>When I talk to others, I often worry I?ll convince them of something I didn?t mean to.",Highly disagree,14/94,Somewhat agree,3,1708006993290,1708006994809,\Somewhat agree\,\Somewhat agree\,\3\,1708006994146,1708006994146,856,856,1519,buq,qns-item-noham,14,74208,0.0-1.0-0.13,65ce1d6a726e59eeb6124a43,RETURNED,2024-02-15T14:21:01.824000Z,2024-02-15T14:25:45.791000Z,,2024-02-15T14:25:47.100000Z,,CVPIIDEI,2745,CONSENT_REVOKED,CONSENT_REVOKED,CONSENT_REVOKED,CONSENT_REVOKED,CONSENT_REVOKED,CONSENT_REVOKED,CONSENT_REVOKED,CONSENT_REVOKED,CONSENT_REVOKED,Not Applicable
61549a2caa92d84f392000e9,<b>I would need to learn something utterly shocking about my party in order to change my political views.,Highly disagree,15/94,Somewhat disagree,2,1708006994812,1708006996032,\Somewhat disagree\,\Somewhat disagree\,\2\,1708006995555,1708006995555,743,743,1220,buq,qns-item-noham,15,75431,0.0-1.0-0.14,65ce1d6a726e59eeb6124a43,RETURNED,2024-02-15T14:21:01.824000Z,2024-02-15T14:25:45.791000Z,,2024-02-15T14:25:47.100000Z,,CVPIIDEI,2745,CONSENT_REVOKED,CONSENT_REVOKED,CONSENT_REVOKED,CONSENT_REVOKED,CONSENT_REVOKED,CONSENT_REVOKED,CONSENT_REVOKED,CONSENT_REVOKED,CONSENT_REVOKED,Not Applicable
61549a2caa92d84f392000e9,"<b>When I have new experiences, I tend to think of them as unique.",Highly disagree,16/94,Somewhat disagree,2,1708006996034,1708006997049,\Somewhat disagree\,\Somewhat disagree\,\2\,1708006996522,1708006996522,488,488,1015,buq,qns-item-noham,16,76448,0.0-1.0-0.15,65ce1d6a726e59eeb6124a43,RETURNED,2024-02-15T14:21:01.824000Z,2024-02-15T14:25:45.791000Z,,2024-02-15T14:25:47.100000Z,,CVPIIDEI,2745,CONSENT_REVOKED,CONSENT_REVOKED,CONSENT_REVOKED,CONSENT_REVOKED,CONSENT_REVOKED,CONSENT_REVOKED,CONSENT_REVOKED,CONSENT_REVOKED,CONSENT_REVOKED,Not Applicable
61549a2caa92d84f392000e9,<b>I change my mind about specific policies pretty frequently.,Highly disagree,17/94,Somewhat disagree,2,1708006997051,1708006998146,\Somewhat disagree\,\Somewhat disagree\,\2\,1708006997706,1708006997706,655,655,1095,buq,qns-item-noham,17,77545,0.0-1.0-0.16,65ce1d6a726e59eeb6124a43,RETURNED,2024-02-15T14:21:01.824000Z,2024-02-15T14:25:45.791000Z,,2024-02-15T14:25:47.100000Z,,CVPIIDEI,2745,CONSENT_REVOKED,CONSENT_REVOKED,CONSENT_REVOKED,CONSENT_REVOKED,CONSENT_REVOKED,CONSENT_REVOKED,CONSENT_REVOKED,CONSENT_REVOKED,CONSENT_REVOKED,Not Applicable
61549a2caa92d84f392000e9,"<b>If a politician in my political party supports something I disagree with, I give them the benefit of the doubt, as such issues often involve hidden complexities that aren?t obvious.   ",Highly disagree,18/94,Somewhat disagree,2,1708006998148,1708006999809,\Somewhat disagree\,\Somewhat disagree\,\2\,1708006999346,1708006999346,1198,1198,1661,buq,qns-item-noham,18,79208,0.0-1.0-0.17,65ce1d6a726e59eeb6124a43,RETURNED,2024-02-15T14:21:01.824000Z,2024-02-15T14:25:45.791000Z,,2024-02-15T14:25:47.100000Z,,CVPIIDEI,2745,CONSENT_REVOKED,CONSENT_REVOKED,CONSENT_REVOKED,CONSENT_REVOKED,CONSENT_REVOKED,CONSENT_REVOKED,CONSENT_REVOKED,CONSENT_REVOKED,CONSENT_REVOKED,Not Applicable
61549a2caa92d84f392000e9,<b>People?s bad politics are usually motivated by hatefulness.,Highly disagree,19/94,Somewhat agree,3,1708006999810,1708007000994,\Somewhat agree\,\Somewhat agree\,\3\,1708007000619,1708007000619,809,809,1184,buq,qns-item-noham,19,80393,0.0-1.0-0.18,65ce1d6a726e59eeb6124a43,RETURNED,2024-02-15T14:21:01.824000Z,2024-02-15T14:25:45.791000Z,,2024-02-15T14:25:47.100000Z,,CVPIIDEI,2745,CONSENT_REVOKED,CONSENT_REVOKED,CONSENT_REVOKED,CONSENT_REVOKED,CONSENT_REVOKED,CONSENT_REVOKED,CONSENT_REVOKED,CONSENT_REVOKED,CONSENT_REVOKED,Not Applicable
61549a2caa92d84f392000e9,<b>I think a lot about how to reconcile my beliefs with one another.,Highly disagree,20/94,Somewhat agree,3,1708007000996,1708007002065,\Somewhat agree\,\Somewhat agree\,\3\,1708007001682,1708007001682,686,686,1069,buq,qns-item-noham,20,81464,0.0-1.0-0.19,65ce1d6a726e59eeb6124a43,RETURNED,2024-02-15T14:21:01.824000Z,2024-02-15T14:25:45.791000Z,,2024-02-15T14:25:47.100000Z,,CVPIIDEI,2745,CONSENT_REVOKED,CONSENT_REVOKED,CONSENT_REVOKED,CONSENT_REVOKED,CONSENT_REVOKED,CONSENT_REVOKED,CONSENT_REVOKED,CONSENT_REVOKED,CONSENT_REVOKED,Not Applicable
61549a2caa92d84f392000e9,<b>I might have false beliefs about important topics.,Highly disagree,21/94,Somewhat disagree,2,1708007002067,1708007003035,\Somewhat disagree\,\Somewhat disagree\,\2\,1708007002657,1708007002657,590,590,968,buq,qns-item-noham,21,82434,0.0-1.0-0.20,65ce1d6a726e59eeb6124a43,RETURNED,2024-02-15T14:21:01.824000Z,2024-02-15T14:25:45.791000Z,,2024-02-15T14:25:47.100000Z,,CVPIIDEI,2745,CONSENT_REVOKED,CONSENT_REVOKED,CONSENT_REVOKED,CONSENT_REVOKED,CONSENT_REVOKED,CONSENT_REVOKED,CONSENT_REVOKED,CONSENT_REVOKED,CONSENT_REVOKED,Not Applicable
61549a2caa92d84f392000e9,"<b>If a good friend of mine does something unexpected that upsets me, I feel like I don?t know them anymore.",Highly disagree,22/94,Somewhat agree,3,1708007003037,1708007005658,\Highly agree\,\Somewhat agree\,\4\,1708007004465,1708007005185,1428,2148,2621,buq,qns-item-noham,22,85057,0.0-1.0-0.21,65ce1d6a726e59eeb6124a43,RETURNED,2024-02-15T14:21:01.824000Z,2024-02-15T14:25:45.791000Z,,2024-02-15T14:25:47.100000Z,,CVPIIDEI,2745,CONSENT_REVOKED,CONSENT_REVOKED,CONSENT_REVOKED,CONSENT_REVOKED,CONSENT_REVOKED,CONSENT_REVOKED,CONSENT_REVOKED,CONSENT_REVOKED,CONSENT_REVOKED,Not Applicable
61549a2caa92d84f392000e9,<b>Other people?s beliefs are often incoherent.,Highly disagree,23/94,Somewhat disagree,2,1708007005659,1708007006713,\Somewhat disagree\,\Somewhat disagree\,\2\,1708007006185,1708007006185,526,526,1054,buq,qns-item-noham,23,86112,0.0-1.0-0.22,65ce1d6a726e59eeb6124a43,RETURNED,2024-02-15T14:21:01.824000Z,2024-02-15T14:25:45.791000Z,,2024-02-15T14:25:47.100000Z,,CVPIIDEI,2745,CONSENT_REVOKED,CONSENT_REVOKED,CONSENT_REVOKED,CONSENT_REVOKED,CONSENT_REVOKED,CONSENT_REVOKED,CONSENT_REVOKED,CONSENT_REVOKED,CONSENT_REVOKED,Not Applicable
61549a2caa92d84f392000e9,"<b>Every now and then, a new experience will unsettle beliefs I?ve had for a while.",Highly disagree,24/94,Somewhat disagree,2,1708007006715,1708007008169,\Somewhat disagree\,\Somewhat disagree\,\2\,1708007007721,1708007007721,1006,1006,1454,buq,qns-item-noham,24,87568,0.0-1.0-0.23,65ce1d6a726e59eeb6124a43,RETURNED,2024-02-15T14:21:01.824000Z,2024-02-15T14:25:45.791000Z,,2024-02-15T14:25:47.100000Z,,CVPIIDEI,2745,CONSENT_REVOKED,CONSENT_REVOKED,CONSENT_REVOKED,CONSENT_REVOKED,CONSENT_REVOKED,CONSENT_REVOKED,CONSENT_REVOKED,CONSENT_REVOKED,CONSENT_REVOKED,Not Applicable
61549a2caa92d84f392000e9,<b>Some policies I agree with in principle are so bad I don?t support them. ,Highly disagree,25/94,Somewhat agree,3,1708007008171,1708007009161,\Somewhat agree\,\Somewhat agree\,\3\,1708007008738,1708007008738,567,567,990,buq,qns-item-noham,25,88560,0.0-1.0-0.24,65ce1d6a726e59eeb6124a43,RETURNED,2024-02-15T14:21:01.824000Z,2024-02-15T14:25:45.791000Z,,2024-02-15T14:25:47.100000Z,,CVPIIDEI,2745,CONSENT_REVOKED,CONSENT_REVOKED,CONSENT_REVOKED,CONSENT_REVOKED,CONSENT_REVOKED,CONSENT_REVOKED,CONSENT_REVOKED,CONSENT_REVOKED,CONSENT_REVOKED,Not Applicable
61549a2caa92d84f392000e9,<b>I?m pretty sure I?ve accidentally spread false information.,Highly disagree,26/94,Somewhat disagree,2,1708007009163,1708007010202,\Somewhat disagree\,\Somewhat disagree\,\2\,1708007009826,1708007009826,663,663,1039,buq,qns-item-noham,26,89601,0.0-1.0-0.25,65ce1d6a726e59eeb6124a43,RETURNED,2024-02-15T14:21:01.824000Z,2024-02-15T14:25:45.791000Z,,2024-02-15T14:25:47.100000Z,,CVPIIDEI,2745,CONSENT_REVOKED,CONSENT_REVOKED,CONSENT_REVOKED,CONSENT_REVOKED,CONSENT_REVOKED,CONSENT_REVOKED,CONSENT_REVOKED,CONSENT_REVOKED,CONSENT_REVOKED,Not Applicable
61549a2caa92d84f392000e9,"<b>If I go to my favorite restaurant and the food is unexpectedly bad, then they have changed owners.",Highly disagree,27/94,Somewhat disagree,2,1708007010204,1708007012185,\Somewhat disagree\,\Somewhat disagree\,\2\,1708007011522,1708007011522,1318,1318,1981,buq,qns-item-noham,27,91584,0.0-1.0-0.26,65ce1d6a726e59eeb6124a43,RETURNED,2024-02-15T14:21:01.824000Z,2024-02-15T14:25:45.791000Z,,2024-02-15T14:25:47.100000Z,,CVPIIDEI,2745,CONSENT_REVOKED,CONSENT_REVOKED,CONSENT_REVOKED,CONSENT_REVOKED,CONSENT_REVOKED,CONSENT_REVOKED,CONSENT_REVOKED,CONSENT_REVOKED,CONSENT_REVOKED,Not Applicable
61549a2caa92d84f392000e9,"<b>In politics, it?s important to trust your friends and family.",Highly disagree,28/94,Highly agree,4,1708007012187,1708007014722,\Somewhat disagree\,\Highly agree\,\2\,1708007013282,1708007014209,1095,2022,2535,buq,qns-item-noham,28,94121,0.0-1.0-0.27,65ce1d6a726e59eeb6124a43,RETURNED,2024-02-15T14:21:01.824000Z,2024-02-15T14:25:45.791000Z,,2024-02-15T14:25:47.100000Z,,CVPIIDEI,2745,CONSENT_REVOKED,CONSENT_REVOKED,CONSENT_REVOKED,CONSENT_REVOKED,CONSENT_REVOKED,CONSENT_REVOKED,CONSENT_REVOKED,CONSENT_REVOKED,CONSENT_REVOKED,Not Applicable
61549a2caa92d84f392000e9,<b>It?s OK to have some conflicting beliefs.,Highly disagree,29/94,Somewhat agree,3,1708007014723,1708007015953,\Somewhat agree\,\Somewhat agree\,\3\,1708007015537,1708007015537,814,814,1230,buq,qns-item-noham,29,95352,0.0-1.0-0.28,65ce1d6a726e59eeb6124a43,RETURNED,2024-02-15T14:21:01.824000Z,2024-02-15T14:25:45.791000Z,,2024-02-15T14:25:47.100000Z,,CVPIIDEI,2745,CONSENT_REVOKED,CONSENT_REVOKED,CONSENT_REVOKED,CONSENT_REVOKED,CONSENT_REVOKED,CONSENT_REVOKED,CONSENT_REVOKED,CONSENT_REVOKED,CONSENT_REVOKED,Not Applicable
61549a2caa92d84f392000e9,<b>Listening to people I disagree with makes my opinions better.,Highly disagree,30/94,Somewhat disagree,2,1708007015955,1708007017160,\Somewhat disagree\,\Somewhat disagree\,\2\,1708007016395,1708007016395,440,440,1205,buq,qns-item-noham,30,96560,0.0-1.0-0.29,65ce1d6a726e59eeb6124a43,RETURNED,2024-02-15T14:21:01.824000Z,2024-02-15T14:25:45.791000Z,,2024-02-15T14:25:47.100000Z,,CVPIIDEI,2745,CONSENT_REVOKED,CONSENT_REVOKED,CONSENT_REVOKED,CONSENT_REVOKED,CONSENT_REVOKED,CONSENT_REVOKED,CONSENT_REVOKED,CONSENT_REVOKED,CONSENT_REVOKED,Not Applicable
61549a2caa92d84f392000e9,<b>My moral compass sometimes makes it harder to determine what?s true.,Highly disagree,31/94,Somewhat agree,3,1708007017164,1708007018066,\Somewhat agree\,\Somewhat agree\,\3\,1708007017642,1708007017642,478,478,902,buq,qns-item-noham,31,97465,0.0-1.0-0.30,65ce1d6a726e59eeb6124a43,RETURNED,2024-02-15T14:21:01.824000Z,2024-02-15T14:25:45.791000Z,,2024-02-15T14:25:47.100000Z,,CVPIIDEI,2745,CONSENT_REVOKED,CONSENT_REVOKED,CONSENT_REVOKED,CONSENT_REVOKED,CONSENT_REVOKED,CONSENT_REVOKED,CONSENT_REVOKED,CONSENT_REVOKED,CONSENT_REVOKED,Not Applicable
61549a2caa92d84f392000e9,<b>Evidence pointing in the wrong direction isn?t really evidence at all.,Highly disagree,32/94,Somewhat disagree,2,1708007018067,1708007019874,\Somewhat disagree\,\Somewhat disagree\,\2\,1708007019274,1708007019274,1207,1207,1807,buq,qns-item-noham,32,99274,0.0-1.0-0.31,65ce1d6a726e59eeb6124a43,RETURNED,2024-02-15T14:21:01.824000Z,2024-02-15T14:25:45.791000Z,,2024-02-15T14:25:47.100000Z,,CVPIIDEI,2745,CONSENT_REVOKED,CONSENT_REVOKED,CONSENT_REVOKED,CONSENT_REVOKED,CONSENT_REVOKED,CONSENT_REVOKED,CONSENT_REVOKED,CONSENT_REVOKED,CONSENT_REVOKED,Not Applicable
61549a2caa92d84f392000e9,"<b>If the political party I support messes up, it makes me think politics is rotten.",Highly disagree,33/94,Somewhat agree,3,1708007019876,1708007020722,\Somewhat agree\,\Somewhat agree\,\3\,1708007020305,1708007020305,429,429,846,buq,qns-item-noham,33,100121,0.0-1.0-0.32,65ce1d6a726e59eeb6124a43,RETURNED,2024-02-15T14:21:01.824000Z,2024-02-15T14:25:45.791000Z,,2024-02-15T14:25:47.100000Z,,CVPIIDEI,2745,CONSENT_REVOKED,CONSENT_REVOKED,CONSENT_REVOKED,CONSENT_REVOKED,CONSENT_REVOKED,CONSENT_REVOKED,CONSENT_REVOKED,CONSENT_REVOKED,CONSENT_REVOKED,Not Applicable
61549a2caa92d84f392000e9,<b>Lots of important topics can only really be understood by some groups of people.,Highly disagree,34/94,Somewhat disagree,2,1708007020727,1708007021626,\Somewhat disagree\,\Somewhat disagree\,\2\,1708007021171,1708007021171,444,444,899,buq,qns-item-noham,34,101025,0.0-1.0-0.33,65ce1d6a726e59eeb6124a43,RETURNED,2024-02-15T14:21:01.824000Z,2024-02-15T14:25:45.791000Z,,2024-02-15T14:25:47.100000Z,,CVPIIDEI,2745,CONSENT_REVOKED,CONSENT_REVOKED,CONSENT_REVOKED,CONSENT_REVOKED,CONSENT_REVOKED,CONSENT_REVOKED,CONSENT_REVOKED,CONSENT_REVOKED,CONSENT_REVOKED,Not Applicable
61549a2caa92d84f392000e9,<b>Having conflicting beliefs means you haven?t thought about them enough.,Highly disagree,35/94,Somewhat agree,3,1708007021628,1708007022433,\Somewhat agree\,\Somewhat agree\,\3\,1708007022058,1708007022058,430,430,805,buq,qns-item-noham,35,101832,0.0-1.0-0.34,65ce1d6a726e59eeb6124a43,RETURNED,2024-02-15T14:21:01.824000Z,2024-02-15T14:25:45.791000Z,,2024-02-15T14:25:47.100000Z,,CVPIIDEI,2745,CONSENT_REVOKED,CONSENT_REVOKED,CONSENT_REVOKED,CONSENT_REVOKED,CONSENT_REVOKED,CONSENT_REVOKED,CONSENT_REVOKED,CONSENT_REVOKED,CONSENT_REVOKED,Not Applicable
61549a2caa92d84f392000e9,<b>I do not often change my political opinions.,Highly disagree,36/94,Somewhat disagree,2,1708007022434,1708007023482,\Somewhat disagree\,\Somewhat disagree\,\2\,1708007023115,1708007023115,681,681,1048,buq,qns-item-noham,36,102881,0.0-1.0-0.35,65ce1d6a726e59eeb6124a43,RETURNED,2024-02-15T14:21:01.824000Z,2024-02-15T14:25:45.791000Z,,2024-02-15T14:25:47.100000Z,,CVPIIDEI,2745,CONSENT_REVOKED,CONSENT_REVOKED,CONSENT_REVOKED,CONSENT_REVOKED,CONSENT_REVOKED,CONSENT_REVOKED,CONSENT_REVOKED,CONSENT_REVOKED,CONSENT_REVOKED,Not Applicable
61549a2caa92d84f392000e9,<b>It?s difficult to not have at least some conflicting beliefs.,Highly disagree,37/94,Somewhat disagree,2,1708007023483,1708007024290,\Somewhat disagree\,\Somewhat disagree\,\2\,1708007023906,1708007023906,423,423,807,buq,qns-item-noham,37,103689,0.0-1.0-0.36,65ce1d6a726e59eeb6124a43,RETURNED,2024-02-15T14:21:01.824000Z,2024-02-15T14:25:45.791000Z,,2024-02-15T14:25:47.100000Z,,CVPIIDEI,2745,CONSENT_REVOKED,CONSENT_REVOKED,CONSENT_REVOKED,CONSENT_REVOKED,CONSENT_REVOKED,CONSENT_REVOKED,CONSENT_REVOKED,CONSENT_REVOKED,CONSENT_REVOKED,Not Applicable
61549a2caa92d84f392000e9,<b>Wishful thinking causes a lot of problems.,Highly disagree,38/94,Somewhat disagree,2,1708007024291,1708007025107,\Somewhat disagree\,\Somewhat disagree\,\2\,1708007024788,1708007024788,497,497,816,buq,qns-item-noham,38,104506,0.0-1.0-0.37,65ce1d6a726e59eeb6124a43,RETURNED,2024-02-15T14:21:01.824000Z,2024-02-15T14:25:45.791000Z,,2024-02-15T14:25:47.100000Z,,CVPIIDEI,2745,CONSENT_REVOKED,CONSENT_REVOKED,CONSENT_REVOKED,CONSENT_REVOKED,CONSENT_REVOKED,CONSENT_REVOKED,CONSENT_REVOKED,CONSENT_REVOKED,CONSENT_REVOKED,Not Applicable
61549a2caa92d84f392000e9,<b>I judge a food item only once I try it many times.,Highly disagree,39/94,Somewhat disagree,2,1708007025109,1708007025923,\Somewhat disagree\,\Somewhat disagree\,\2\,1708007025611,1708007025611,502,502,814,buq,qns-item-noham,39,105322,0.0-1.0-0.38,65ce1d6a726e59eeb6124a43,RETURNED,2024-02-15T14:21:01.824000Z,2024-02-15T14:25:45.791000Z,,2024-02-15T14:25:47.100000Z,,CVPIIDEI,2745,CONSENT_REVOKED,CONSENT_REVOKED,CONSENT_REVOKED,CONSENT_REVOKED,CONSENT_REVOKED,CONSENT_REVOKED,CONSENT_REVOKED,CONSENT_REVOKED,CONSENT_REVOKED,Not Applicable
61549a2caa92d84f392000e9,"<b>When a person holds conflicting beliefs, they should really try to figure out what?s wrong.",Highly disagree,40/94,Somewhat agree,3,1708007025925,1708007027112,\Somewhat agree\,\Somewhat agree\,\3\,1708007026673,1708007026673,748,748,1187,buq,qns-item-noham,40,106511,0.0-1.0-0.39,65ce1d6a726e59eeb6124a43,RETURNED,2024-02-15T14:21:01.824000Z,2024-02-15T14:25:45.791000Z,,2024-02-15T14:25:47.100000Z,,CVPIIDEI,2745,CONSENT_REVOKED,CONSENT_REVOKED,CONSENT_REVOKED,CONSENT_REVOKED,CONSENT_REVOKED,CONSENT_REVOKED,CONSENT_REVOKED,CONSENT_REVOKED,CONSENT_REVOKED,Not Applicable
61549a2caa92d84f392000e9,<b>Knowing what?s important in life is easy.,Highly disagree,41/94,Somewhat agree,3,1708007027115,1708007028008,\Somewhat agree\,\Somewhat agree\,\3\,1708007027665,1708007027665,550,550,893,buq,qns-item-noham,41,107408,0.0-1.0-0.40,65ce1d6a726e59eeb6124a43,RETURNED,2024-02-15T14:21:01.824000Z,2024-02-15T14:25:45.791000Z,,2024-02-15T14:25:47.100000Z,,CVPIIDEI,2745,CONSENT_REVOKED,CONSENT_REVOKED,CONSENT_REVOKED,CONSENT_REVOKED,CONSENT_REVOKED,CONSENT_REVOKED,CONSENT_REVOKED,CONSENT_REVOKED,CONSENT_REVOKED,Not Applicable
61549a2caa92d84f392000e9,<b>I swim across the Atlantic Ocean to get to work every day.,Highly disagree,42/94,Somewhat disagree,2,1708007028010,1708007028867,\Somewhat disagree\,\Somewhat disagree\,\2\,1708007028386,1708007028386,376,376,857,buq,qns-item-noham,42,108266,0.0-1.0-0.41,65ce1d6a726e59eeb6124a43,RETURNED,2024-02-15T14:21:01.824000Z,2024-02-15T14:25:45.791000Z,,2024-02-15T14:25:47.100000Z,,CVPIIDEI,2745,CONSENT_REVOKED,CONSENT_REVOKED,CONSENT_REVOKED,CONSENT_REVOKED,CONSENT_REVOKED,CONSENT_REVOKED,CONSENT_REVOKED,CONSENT_REVOKED,CONSENT_REVOKED,Not Applicable
61549a2caa92d84f392000e9,"<b>Sometimes, you just have to ignore evidence that you know is wrong.",Highly disagree,43/94,Somewhat agree,3,1708007028868,1708007030106,\Somewhat agree\,\Somewhat agree\,\3\,1708007029435,1708007029435,567,567,1238,buq,qns-item-noham,43,109505,0.0-1.0-0.42,65ce1d6a726e59eeb6124a43,RETURNED,2024-02-15T14:21:01.824000Z,2024-02-15T14:25:45.791000Z,,2024-02-15T14:25:47.100000Z,,CVPIIDEI,2745,CONSENT_REVOKED,CONSENT_REVOKED,CONSENT_REVOKED,CONSENT_REVOKED,CONSENT_REVOKED,CONSENT_REVOKED,CONSENT_REVOKED,CONSENT_REVOKED,CONSENT_REVOKED,Not Applicable
61549a2caa92d84f392000e9,<b>I have had some false beliefs.,Highly disagree,44/94,Somewhat disagree,2,1708007030108,1708007031153,\Somewhat disagree\,\Somewhat disagree\,\2\,1708007030804,1708007030804,696,696,1045,buq,qns-item-noham,44,110552,0.0-1.0-0.43,65ce1d6a726e59eeb6124a43,RETURNED,2024-02-15T14:21:01.824000Z,2024-02-15T14:25:45.791000Z,,2024-02-15T14:25:47.100000Z,,CVPIIDEI,2745,CONSENT_REVOKED,CONSENT_REVOKED,CONSENT_REVOKED,CONSENT_REVOKED,CONSENT_REVOKED,CONSENT_REVOKED,CONSENT_REVOKED,CONSENT_REVOKED,CONSENT_REVOKED,Not Applicable
61549a2caa92d84f392000e9,"<b>If one friend does something that upsets me, I sometimes start to distrust people in general.",Highly disagree,45/94,Somewhat disagree,2,1708007031154,1708007031945,\Somewhat disagree\,\Somewhat disagree\,\2\,1708007031563,1708007031563,409,409,791,buq,qns-item-noham,45,111344,0.0-1.0-0.44,65ce1d6a726e59eeb6124a43,RETURNED,2024-02-15T14:21:01.824000Z,2024-02-15T14:25:45.791000Z,,2024-02-15T14:25:47.100000Z,,CVPIIDEI,2745,CONSENT_REVOKED,CONSENT_REVOKED,CONSENT_REVOKED,CONSENT_REVOKED,CONSENT_REVOKED,CONSENT_REVOKED,CONSENT_REVOKED,CONSENT_REVOKED,CONSENT_REVOKED,Not Applicable
61549a2caa92d84f392000e9,<b>The facts about most important matters are easy to find.,Highly disagree,46/94,Somewhat disagree,2,1708007031947,1708007032890,\Somewhat disagree\,\Somewhat disagree\,\2\,1708007032514,1708007032514,567,567,943,buq,qns-item-noham,46,112289,0.0-1.0-0.45,65ce1d6a726e59eeb6124a43,RETURNED,2024-02-15T14:21:01.824000Z,2024-02-15T14:25:45.791000Z,,2024-02-15T14:25:47.100000Z,,CVPIIDEI,2745,CONSENT_REVOKED,CONSENT_REVOKED,CONSENT_REVOKED,CONSENT_REVOKED,CONSENT_REVOKED,CONSENT_REVOKED,CONSENT_REVOKED,CONSENT_REVOKED,CONSENT_REVOKED,Not Applicable
61549a2caa92d84f392000e9,<b>It?s better to know what?s true than to know what?s moral.,Highly disagree,47/94,Somewhat disagree,2,1708007032892,1708007037121,\Somewhat disagree\,\Somewhat disagree\,\2\,1708007036514,1708007036514,3622,3622,4229,buq,qns-item-noham,47,116520,0.0-1.0-0.46,65ce1d6a726e59eeb6124a43,RETURNED,2024-02-15T14:21:01.824000Z,2024-02-15T14:25:45.791000Z,,2024-02-15T14:25:47.100000Z,,CVPIIDEI,2745,CONSENT_REVOKED,CONSENT_REVOKED,CONSENT_REVOKED,CONSENT_REVOKED,CONSENT_REVOKED,CONSENT_REVOKED,CONSENT_REVOKED,CONSENT_REVOKED,CONSENT_REVOKED,Not Applicable
61549a2caa92d84f392000e9,<b>I used to think the world was less complicated than I do now.,Highly disagree,48/94,Somewhat disagree,2,1708007037122,1708007038097,\Somewhat disagree\,\Somewhat disagree\,\2\,1708007037713,1708007037713,591,591,975,buq,qns-item-noham,48,117496,0.0-1.0-0.47,65ce1d6a726e59eeb6124a43,RETURNED,2024-02-15T14:21:01.824000Z,2024-02-15T14:25:45.791000Z,,2024-02-15T14:25:47.100000Z,,CVPIIDEI,2745,CONSENT_REVOKED,CONSENT_REVOKED,CONSENT_REVOKED,CONSENT_REVOKED,CONSENT_REVOKED,CONSENT_REVOKED,CONSENT_REVOKED,CONSENT_REVOKED,CONSENT_REVOKED,Not Applicable
61549a2caa92d84f392000e9,<b>People are usually completely right or completely wrong.,Highly disagree,49/94,Somewhat disagree,2,1708007038099,1708007038875,\Somewhat disagree\,\Somewhat disagree\,\2\,1708007038491,1708007038491,392,392,776,buq,qns-item-noham,49,118274,0.0-1.0-0.48,65ce1d6a726e59eeb6124a43,RETURNED,2024-02-15T14:21:01.824000Z,2024-02-15T14:25:45.791000Z,,2024-02-15T14:25:47.100000Z,,CVPIIDEI,2745,CONSENT_REVOKED,CONSENT_REVOKED,CONSENT_REVOKED,CONSENT_REVOKED,CONSENT_REVOKED,CONSENT_REVOKED,CONSENT_REVOKED,CONSENT_REVOKED,CONSENT_REVOKED,Not Applicable
61549a2caa92d84f392000e9,<b>I spend a lot of time considering alternatives to my beliefs.,Highly disagree,50/94,Somewhat disagree,2,1708007038877,1708007040802,\Somewhat disagree\,\Somewhat disagree\,\2\,1708007039250,1708007039250,373,373,1925,buq,qns-item-noham,50,120201,0.0-1.0-0.49,65ce1d6a726e59eeb6124a43,RETURNED,2024-02-15T14:21:01.824000Z,2024-02-15T14:25:45.791000Z,,2024-02-15T14:25:47.100000Z,,CVPIIDEI,2745,CONSENT_REVOKED,CONSENT_REVOKED,CONSENT_REVOKED,CONSENT_REVOKED,CONSENT_REVOKED,CONSENT_REVOKED,CONSENT_REVOKED,CONSENT_REVOKED,CONSENT_REVOKED,Not Applicable
61549a2caa92d84f392000e9,"<b>Political enemies need to be defeated, not convinced.",Highly disagree,51/94,Somewhat disagree,2,1708007040803,1708007041737,\Somewhat disagree\,\Somewhat disagree\,\2\,1708007041346,1708007041346,543,543,934,buq,qns-item-noham,51,121136,0.0-1.0-0.50,65ce1d6a726e59eeb6124a43,RETURNED,2024-02-15T14:21:01.824000Z,2024-02-15T14:25:45.791000Z,,2024-02-15T14:25:47.100000Z,,CVPIIDEI,2745,CONSENT_REVOKED,CONSENT_REVOKED,CONSENT_REVOKED,CONSENT_REVOKED,CONSENT_REVOKED,CONSENT_REVOKED,CONSENT_REVOKED,CONSENT_REVOKED,CONSENT_REVOKED,Not Applicable
61549a2caa92d84f392000e9,<b>I form my political views only after meticulously gathering historical and present information about their policies.,Highly disagree,52/94,Somewhat agree,3,1708007041738,1708007042634,\Somewhat agree\,\Somewhat agree\,\3\,1708007042241,1708007042241,503,503,896,buq,qns-item-noham,52,122033,0.0-1.0-0.51,65ce1d6a726e59eeb6124a43,RETURNED,2024-02-15T14:21:01.824000Z,2024-02-15T14:25:45.791000Z,,2024-02-15T14:25:47.100000Z,,CVPIIDEI,2745,CONSENT_REVOKED,CONSENT_REVOKED,CONSENT_REVOKED,CONSENT_REVOKED,CONSENT_REVOKED,CONSENT_REVOKED,CONSENT_REVOKED,CONSENT_REVOKED,CONSENT_REVOKED,Not Applicable
61549a2caa92d84f392000e9,<b>It is difficult for me to remember the last time I was surprised by politics.,Highly disagree,53/94,Somewhat agree,3,1708007042635,1708007043529,\Somewhat agree\,\Somewhat agree\,\3\,1708007043155,1708007043155,520,520,894,buq,qns-item-noham,53,122928,0.0-1.0-0.52,65ce1d6a726e59eeb6124a43,RETURNED,2024-02-15T14:21:01.824000Z,2024-02-15T14:25:45.791000Z,,2024-02-15T14:25:47.100000Z,,CVPIIDEI,2745,CONSENT_REVOKED,CONSENT_REVOKED,CONSENT_REVOKED,CONSENT_REVOKED,CONSENT_REVOKED,CONSENT_REVOKED,CONSENT_REVOKED,CONSENT_REVOKED,CONSENT_REVOKED,Not Applicable
61549a2caa92d84f392000e9,"<b>When I find out I?m wrong, I think a lot about my related beliefs.",Highly disagree,54/94,Somewhat disagree,2,1708007043532,1708007044649,\Somewhat disagree\,\Somewhat disagree\,\2\,1708007044291,1708007044291,759,759,1117,buq,qns-item-noham,54,124048,0.0-1.0-0.53,65ce1d6a726e59eeb6124a43,RETURNED,2024-02-15T14:21:01.824000Z,2024-02-15T14:25:45.791000Z,,2024-02-15T14:25:47.100000Z,,CVPIIDEI,2745,CONSENT_REVOKED,CONSENT_REVOKED,CONSENT_REVOKED,CONSENT_REVOKED,CONSENT_REVOKED,CONSENT_REVOKED,CONSENT_REVOKED,CONSENT_REVOKED,CONSENT_REVOKED,Not Applicable
61549a2caa92d84f392000e9,"<b>If the political party I support messes up, it makes me think you can?t trust anyone these days",Highly disagree,55/94,Somewhat agree,3,1708007044651,1708007045515,\Somewhat agree\,\Somewhat agree\,\3\,1708007045121,1708007045121,470,470,864,buq,qns-item-noham,55,124914,0.0-1.0-0.54,65ce1d6a726e59eeb6124a43,RETURNED,2024-02-15T14:21:01.824000Z,2024-02-15T14:25:45.791000Z,,2024-02-15T14:25:47.100000Z,,CVPIIDEI,2745,CONSENT_REVOKED,CONSENT_REVOKED,CONSENT_REVOKED,CONSENT_REVOKED,CONSENT_REVOKED,CONSENT_REVOKED,CONSENT_REVOKED,CONSENT_REVOKED,CONSENT_REVOKED,Not Applicable
61549a2caa92d84f392000e9,<b>People?s brains turn off when they talk about politics.,Highly disagree,56/94,Somewhat disagree,2,1708007045517,1708007046635,\Somewhat disagree\,\Somewhat disagree\,\2\,1708007045945,1708007045945,428,428,1118,buq,qns-item-noham,56,126034,0.0-1.0-0.55,65ce1d6a726e59eeb6124a43,RETURNED,2024-02-15T14:21:01.824000Z,2024-02-15T14:25:45.791000Z,,2024-02-15T14:25:47.100000Z,,CVPIIDEI,2745,CONSENT_REVOKED,CONSENT_REVOKED,CONSENT_REVOKED,CONSENT_REVOKED,CONSENT_REVOKED,CONSENT_REVOKED,CONSENT_REVOKED,CONSENT_REVOKED,CONSENT_REVOKED,Not Applicable
61549a2caa92d84f392000e9,<b>People who are wrong are usually just ignoring the obvious.,Highly disagree,57/94,Somewhat agree,3,1708007046636,1708007047411,\Somewhat agree\,\Somewhat agree\,\3\,1708007047042,1708007047042,406,406,775,buq,qns-item-noham,57,126810,0.0-1.0-0.56,65ce1d6a726e59eeb6124a43,RETURNED,2024-02-15T14:21:01.824000Z,2024-02-15T14:25:45.791000Z,,2024-02-15T14:25:47.100000Z,,CVPIIDEI,2745,CONSENT_REVOKED,CONSENT_REVOKED,CONSENT_REVOKED,CONSENT_REVOKED,CONSENT_REVOKED,CONSENT_REVOKED,CONSENT_REVOKED,CONSENT_REVOKED,CONSENT_REVOKED,Not Applicable
61549a2caa92d84f392000e9,"<b>When forming my views on people, I rely more on what they are like now rather than rely on my past experience with them.",Highly disagree,58/94,Somewhat disagree,2,1708007047412,1708007048265,\Somewhat disagree\,\Somewhat disagree\,\2\,1708007047857,1708007047857,445,445,853,buq,qns-item-noham,58,127664,0.0-1.0-0.57,65ce1d6a726e59eeb6124a43,RETURNED,2024-02-15T14:21:01.824000Z,2024-02-15T14:25:45.791000Z,,2024-02-15T14:25:47.100000Z,,CVPIIDEI,2745,CONSENT_REVOKED,CONSENT_REVOKED,CONSENT_REVOKED,CONSENT_REVOKED,CONSENT_REVOKED,CONSENT_REVOKED,CONSENT_REVOKED,CONSENT_REVOKED,CONSENT_REVOKED,Not Applicable
61549a2caa92d84f392000e9,"<b>When people contradict my beliefs, I usually know about their evidence already.",Highly disagree,59/94,Somewhat agree,3,1708007048267,1708007049145,\Somewhat agree\,\Somewhat agree\,\3\,1708007048753,1708007048753,486,486,878,buq,qns-item-noham,59,128544,0.0-1.0-0.58,65ce1d6a726e59eeb6124a43,RETURNED,2024-02-15T14:21:01.824000Z,2024-02-15T14:25:45.791000Z,,2024-02-15T14:25:47.100000Z,,CVPIIDEI,2745,CONSENT_REVOKED,CONSENT_REVOKED,CONSENT_REVOKED,CONSENT_REVOKED,CONSENT_REVOKED,CONSENT_REVOKED,CONSENT_REVOKED,CONSENT_REVOKED,CONSENT_REVOKED,Not Applicable
61549a2caa92d84f392000e9,<b>Figuring out what?s true and what?s false mainly requires a strong moral compass.,Highly disagree,60/94,Somewhat disagree,2,1708007049146,1708007050049,\Somewhat disagree\,\Somewhat disagree\,\2\,1708007049634,1708007049634,488,488,903,buq,qns-item-noham,60,129448,0.0-1.0-0.59,65ce1d6a726e59eeb6124a43,RETURNED,2024-02-15T14:21:01.824000Z,2024-02-15T14:25:45.791000Z,,2024-02-15T14:25:47.100000Z,,CVPIIDEI,2745,CONSENT_REVOKED,CONSENT_REVOKED,CONSENT_REVOKED,CONSENT_REVOKED,CONSENT_REVOKED,CONSENT_REVOKED,CONSENT_REVOKED,CONSENT_REVOKED,CONSENT_REVOKED,Not Applicable
61549a2caa92d84f392000e9,"<b>Usually I?m wrong about simple things, not complicated ones.",Highly disagree,61/94,Somewhat agree,3,1708007050051,1708007051025,\Somewhat agree\,\Somewhat agree\,\3\,1708007050649,1708007050649,598,598,974,buq,qns-item-noham,61,130425,0.0-1.0-0.60,65ce1d6a726e59eeb6124a43,RETURNED,2024-02-15T14:21:01.824000Z,2024-02-15T14:25:45.791000Z,,2024-02-15T14:25:47.100000Z,,CVPIIDEI,2745,CONSENT_REVOKED,CONSENT_REVOKED,CONSENT_REVOKED,CONSENT_REVOKED,CONSENT_REVOKED,CONSENT_REVOKED,CONSENT_REVOKED,CONSENT_REVOKED,CONSENT_REVOKED,Not Applicable
61549a2caa92d84f392000e9,<b>Getting all the information I want about important things is hard.,Highly disagree,62/94,Somewhat disagree,2,1708007051027,1708007052002,\Somewhat disagree\,\Somewhat disagree\,\2\,1708007051482,1708007051482,455,455,975,buq,qns-item-noham,62,131401,0.0-1.0-0.61,65ce1d6a726e59eeb6124a43,RETURNED,2024-02-15T14:21:01.824000Z,2024-02-15T14:25:45.791000Z,,2024-02-15T14:25:47.100000Z,,CVPIIDEI,2745,CONSENT_REVOKED,CONSENT_REVOKED,CONSENT_REVOKED,CONSENT_REVOKED,CONSENT_REVOKED,CONSENT_REVOKED,CONSENT_REVOKED,CONSENT_REVOKED,CONSENT_REVOKED,Not Applicable
61549a2caa92d84f392000e9,<b>Most false beliefs spread because people try to deceive one another.,Highly disagree,63/94,Somewhat disagree,2,1708007052003,1708007053072,\Somewhat disagree\,\Somewhat disagree\,\2\,1708007052715,1708007052715,712,712,1069,buq,qns-item-noham,63,132471,0.0-1.0-0.62,65ce1d6a726e59eeb6124a43,RETURNED,2024-02-15T14:21:01.824000Z,2024-02-15T14:25:45.791000Z,,2024-02-15T14:25:47.100000Z,,CVPIIDEI,2745,CONSENT_REVOKED,CONSENT_REVOKED,CONSENT_REVOKED,CONSENT_REVOKED,CONSENT_REVOKED,CONSENT_REVOKED,CONSENT_REVOKED,CONSENT_REVOKED,CONSENT_REVOKED,Not Applicable
61549a2caa92d84f392000e9,<b>I can usually find something to agree with in most people?s beliefs.,Highly disagree,64/94,Somewhat agree,3,1708007053074,1708007055458,\Somewhat agree\,\Somewhat agree\,\3\,1708007054122,1708007054122,1048,1048,2384,buq,qns-item-noham,64,134857,0.0-1.0-0.63,65ce1d6a726e59eeb6124a43,RETURNED,2024-02-15T14:21:01.824000Z,2024-02-15T14:25:45.791000Z,,2024-02-15T14:25:47.100000Z,,CVPIIDEI,2745,CONSENT_REVOKED,CONSENT_REVOKED,CONSENT_REVOKED,CONSENT_REVOKED,CONSENT_REVOKED,CONSENT_REVOKED,CONSENT_REVOKED,CONSENT_REVOKED,CONSENT_REVOKED,Not Applicable
61549a2caa92d84f392000e9,<b>I only form my views of people once I get to know them very well.,Highly disagree,65/94,Somewhat disagree,2,1708007055460,1708007056241,\Somewhat disagree\,\Somewhat disagree\,\2\,1708007055899,1708007055899,439,439,781,buq,qns-item-noham,65,135640,0.0-1.0-0.64,65ce1d6a726e59eeb6124a43,RETURNED,2024-02-15T14:21:01.824000Z,2024-02-15T14:25:45.791000Z,,2024-02-15T14:25:47.100000Z,,CVPIIDEI,2745,CONSENT_REVOKED,CONSENT_REVOKED,CONSENT_REVOKED,CONSENT_REVOKED,CONSENT_REVOKED,CONSENT_REVOKED,CONSENT_REVOKED,CONSENT_REVOKED,CONSENT_REVOKED,Not Applicable
61549a2caa92d84f392000e9,"<b>When people tell me important things about the world, I usually believe them.",Highly disagree,66/94,Somewhat disagree,2,1708007056242,1708007057098,\Somewhat disagree\,\Somewhat disagree\,\2\,1708007056691,1708007056691,449,449,856,buq,qns-item-noham,66,136497,0.0-1.0-0.65,65ce1d6a726e59eeb6124a43,RETURNED,2024-02-15T14:21:01.824000Z,2024-02-15T14:25:45.791000Z,,2024-02-15T14:25:47.100000Z,,CVPIIDEI,2745,CONSENT_REVOKED,CONSENT_REVOKED,CONSENT_REVOKED,CONSENT_REVOKED,CONSENT_REVOKED,CONSENT_REVOKED,CONSENT_REVOKED,CONSENT_REVOKED,CONSENT_REVOKED,Not Applicable
61549a2caa92d84f392000e9,"<b>If a friend does something that upsets me, it reminds me what an unpredictable place the world is.",Highly disagree,67/94,Somewhat agree,3,1708007057099,1708007058344,\Somewhat agree\,\Somewhat agree\,\3\,1708007057795,1708007057795,696,696,1245,buq,qns-item-noham,67,137743,0.0-1.0-0.66,65ce1d6a726e59eeb6124a43,RETURNED,2024-02-15T14:21:01.824000Z,2024-02-15T14:25:45.791000Z,,2024-02-15T14:25:47.100000Z,,CVPIIDEI,2745,CONSENT_REVOKED,CONSENT_REVOKED,CONSENT_REVOKED,CONSENT_REVOKED,CONSENT_REVOKED,CONSENT_REVOKED,CONSENT_REVOKED,CONSENT_REVOKED,CONSENT_REVOKED,Not Applicable
61549a2caa92d84f392000e9,<b>People tend to believe whatever is good for their friends.,Highly disagree,68/94,Somewhat disagree,2,1708007058346,1708007059760,\Somewhat disagree\,\Somewhat disagree\,\2\,1708007059002,1708007059002,656,656,1414,buq,qns-item-noham,68,139159,0.0-1.0-0.67,65ce1d6a726e59eeb6124a43,RETURNED,2024-02-15T14:21:01.824000Z,2024-02-15T14:25:45.791000Z,,2024-02-15T14:25:47.100000Z,,CVPIIDEI,2745,CONSENT_REVOKED,CONSENT_REVOKED,CONSENT_REVOKED,CONSENT_REVOKED,CONSENT_REVOKED,CONSENT_REVOKED,CONSENT_REVOKED,CONSENT_REVOKED,CONSENT_REVOKED,Not Applicable
61549a2caa92d84f392000e9,<b>I used to be more certain my beliefs were true.,Highly disagree,69/94,Somewhat disagree,2,1708007059762,1708007060570,\Somewhat disagree\,\Somewhat disagree\,\2\,1708007060210,1708007060210,448,448,808,buq,qns-item-noham,69,139969,0.0-1.0-0.68,65ce1d6a726e59eeb6124a43,RETURNED,2024-02-15T14:21:01.824000Z,2024-02-15T14:25:45.791000Z,,2024-02-15T14:25:47.100000Z,,CVPIIDEI,2745,CONSENT_REVOKED,CONSENT_REVOKED,CONSENT_REVOKED,CONSENT_REVOKED,CONSENT_REVOKED,CONSENT_REVOKED,CONSENT_REVOKED,CONSENT_REVOKED,CONSENT_REVOKED,Not Applicable
61549a2caa92d84f392000e9,<b>It?s often pretty easy to figure out whether something is true based on who said it.,Highly disagree,70/94,Somewhat disagree,2,1708007060571,1708007061387,\Somewhat disagree\,\Somewhat disagree\,\2\,1708007060971,1708007060971,400,400,816,buq,qns-item-noham,70,140786,0.0-1.0-0.69,65ce1d6a726e59eeb6124a43,RETURNED,2024-02-15T14:21:01.824000Z,2024-02-15T14:25:45.791000Z,,2024-02-15T14:25:47.100000Z,,CVPIIDEI,2745,CONSENT_REVOKED,CONSENT_REVOKED,CONSENT_REVOKED,CONSENT_REVOKED,CONSENT_REVOKED,CONSENT_REVOKED,CONSENT_REVOKED,CONSENT_REVOKED,CONSENT_REVOKED,Not Applicable
61549a2caa92d84f392000e9,<b>I transform into a hummingbird every day.,Highly disagree,71/94,Somewhat disagree,2,1708007061388,1708007062353,\Somewhat disagree\,\Somewhat disagree\,\2\,1708007061873,1708007061873,485,485,965,buq,qns-item-noham,71,141752,0.0-1.0-0.70,65ce1d6a726e59eeb6124a43,RETURNED,2024-02-15T14:21:01.824000Z,2024-02-15T14:25:45.791000Z,,2024-02-15T14:25:47.100000Z,,CVPIIDEI,2745,CONSENT_REVOKED,CONSENT_REVOKED,CONSENT_REVOKED,CONSENT_REVOKED,CONSENT_REVOKED,CONSENT_REVOKED,CONSENT_REVOKED,CONSENT_REVOKED,CONSENT_REVOKED,Not Applicable
61549a2caa92d84f392000e9,<b>I think a lot about arguments against my views.,Highly disagree,72/94,Somewhat agree,3,1708007062355,1708007063617,\Somewhat agree\,\Somewhat agree\,\3\,1708007063146,1708007063146,791,791,1262,buq,qns-item-noham,72,143016,0.0-1.0-0.71,65ce1d6a726e59eeb6124a43,RETURNED,2024-02-15T14:21:01.824000Z,2024-02-15T14:25:45.791000Z,,2024-02-15T14:25:47.100000Z,,CVPIIDEI,2745,CONSENT_REVOKED,CONSENT_REVOKED,CONSENT_REVOKED,CONSENT_REVOKED,CONSENT_REVOKED,CONSENT_REVOKED,CONSENT_REVOKED,CONSENT_REVOKED,CONSENT_REVOKED,Not Applicable
61549a2caa92d84f392000e9,<b>Personal experience is usually more important than facts and figures.,Highly disagree,73/94,Somewhat disagree,2,1708007063619,1708007064512,\Somewhat disagree\,\Somewhat disagree\,\2\,1708007064082,1708007064082,463,463,893,buq,qns-item-noham,73,143911,0.0-1.0-0.72,65ce1d6a726e59eeb6124a43,RETURNED,2024-02-15T14:21:01.824000Z,2024-02-15T14:25:45.791000Z,,2024-02-15T14:25:47.100000Z,,CVPIIDEI,2745,CONSENT_REVOKED,CONSENT_REVOKED,CONSENT_REVOKED,CONSENT_REVOKED,CONSENT_REVOKED,CONSENT_REVOKED,CONSENT_REVOKED,CONSENT_REVOKED,CONSENT_REVOKED,Not Applicable
61549a2caa92d84f392000e9,<b>I?ve been tricked before about important matters.,Highly disagree,74/94,Somewhat disagree,2,1708007064514,1708007065417,\Somewhat disagree\,\Somewhat disagree\,\2\,1708007065025,1708007065025,511,511,903,buq,qns-item-noham,74,144816,0.0-1.0-0.73,65ce1d6a726e59eeb6124a43,RETURNED,2024-02-15T14:21:01.824000Z,2024-02-15T14:25:45.791000Z,,2024-02-15T14:25:47.100000Z,,CVPIIDEI,2745,CONSENT_REVOKED,CONSENT_REVOKED,CONSENT_REVOKED,CONSENT_REVOKED,CONSENT_REVOKED,CONSENT_REVOKED,CONSENT_REVOKED,CONSENT_REVOKED,CONSENT_REVOKED,Not Applicable
61549a2caa92d84f392000e9,<b>I would need to be totally wowed if I were to change my opinion of a restaurant I don?t like.,Highly disagree,75/94,Somewhat disagree,2,1708007065418,1708007066313,\Somewhat disagree\,\Somewhat disagree\,\2\,1708007065906,1708007065906,488,488,895,buq,qns-item-noham,75,145712,0.0-1.0-0.74,65ce1d6a726e59eeb6124a43,RETURNED,2024-02-15T14:21:01.824000Z,2024-02-15T14:25:45.791000Z,,2024-02-15T14:25:47.100000Z,,CVPIIDEI,2745,CONSENT_REVOKED,CONSENT_REVOKED,CONSENT_REVOKED,CONSENT_REVOKED,CONSENT_REVOKED,CONSENT_REVOKED,CONSENT_REVOKED,CONSENT_REVOKED,CONSENT_REVOKED,Not Applicable
61549a2caa92d84f392000e9,<b>I care a lot about politics.,Highly disagree,76/94,Somewhat disagree,2,1708007066314,1708007067393,\Somewhat disagree\,\Somewhat disagree\,\2\,1708007067017,1708007067017,703,703,1079,buq,qns-item-noham,76,146792,0.0-1.0-0.75,65ce1d6a726e59eeb6124a43,RETURNED,2024-02-15T14:21:01.824000Z,2024-02-15T14:25:45.791000Z,,2024-02-15T14:25:47.100000Z,,CVPIIDEI,2745,CONSENT_REVOKED,CONSENT_REVOKED,CONSENT_REVOKED,CONSENT_REVOKED,CONSENT_REVOKED,CONSENT_REVOKED,CONSENT_REVOKED,CONSENT_REVOKED,CONSENT_REVOKED,Not Applicable
61549a2caa92d84f392000e9,<b>There are some topics I?ve been really wrong about.,Highly disagree,77/94,Somewhat agree,3,1708007067394,1708007069561,\Somewhat agree\,\Somewhat agree\,\3\,1708007069160,1708007069160,1766,1766,2167,buq,qns-item-noham,77,148960,0.0-1.0-0.76,65ce1d6a726e59eeb6124a43,RETURNED,2024-02-15T14:21:01.824000Z,2024-02-15T14:25:45.791000Z,,2024-02-15T14:25:47.100000Z,,CVPIIDEI,2745,CONSENT_REVOKED,CONSENT_REVOKED,CONSENT_REVOKED,CONSENT_REVOKED,CONSENT_REVOKED,CONSENT_REVOKED,CONSENT_REVOKED,CONSENT_REVOKED,CONSENT_REVOKED,Not Applicable
61549a2caa92d84f392000e9,<b>Most beliefs can be supported with at least some evidence.,Highly disagree,78/94,Somewhat agree,3,1708007069562,1708007070707,\Somewhat agree\,\Somewhat agree\,\3\,1708007070355,1708007070355,793,793,1145,buq,qns-item-noham,78,150106,0.0-1.0-0.77,65ce1d6a726e59eeb6124a43,RETURNED,2024-02-15T14:21:01.824000Z,2024-02-15T14:25:45.791000Z,,2024-02-15T14:25:47.100000Z,,CVPIIDEI,2745,CONSENT_REVOKED,CONSENT_REVOKED,CONSENT_REVOKED,CONSENT_REVOKED,CONSENT_REVOKED,CONSENT_REVOKED,CONSENT_REVOKED,CONSENT_REVOKED,CONSENT_REVOKED,Not Applicable
61549a2caa92d84f392000e9,<b>Other people make life out to be more complicated than it really is.,Highly disagree,79/94,Somewhat disagree,2,1708007070708,1708007071602,\Somewhat disagree\,\Somewhat disagree\,\2\,1708007071233,1708007071233,525,525,894,buq,qns-item-noham,79,151001,0.0-1.0-0.78,65ce1d6a726e59eeb6124a43,RETURNED,2024-02-15T14:21:01.824000Z,2024-02-15T14:25:45.791000Z,,2024-02-15T14:25:47.100000Z,,CVPIIDEI,2745,CONSENT_REVOKED,CONSENT_REVOKED,CONSENT_REVOKED,CONSENT_REVOKED,CONSENT_REVOKED,CONSENT_REVOKED,CONSENT_REVOKED,CONSENT_REVOKED,CONSENT_REVOKED,Not Applicable
61549a2caa92d84f392000e9,"<b>Policy details don?t matter much, just the big picture.",Highly disagree,80/94,Somewhat disagree,2,1708007071604,1708007072370,\Somewhat disagree\,\Somewhat disagree\,\2\,1708007072034,1708007072034,430,430,766,buq,qns-item-noham,80,151769,0.0-1.0-0.79,65ce1d6a726e59eeb6124a43,RETURNED,2024-02-15T14:21:01.824000Z,2024-02-15T14:25:45.791000Z,,2024-02-15T14:25:47.100000Z,,CVPIIDEI,2745,CONSENT_REVOKED,CONSENT_REVOKED,CONSENT_REVOKED,CONSENT_REVOKED,CONSENT_REVOKED,CONSENT_REVOKED,CONSENT_REVOKED,CONSENT_REVOKED,CONSENT_REVOKED,Not Applicable
61549a2caa92d84f392000e9,<b>I know my friends so well they can hardly ever surprise me.,Highly disagree,81/94,Somewhat disagree,2,1708007072371,1708007073241,\Somewhat disagree\,\Somewhat disagree\,\2\,1708007072883,1708007072883,512,512,870,buq,qns-item-noham,81,152640,0.0-1.0-0.80,65ce1d6a726e59eeb6124a43,RETURNED,2024-02-15T14:21:01.824000Z,2024-02-15T14:25:45.791000Z,,2024-02-15T14:25:47.100000Z,,CVPIIDEI,2745,CONSENT_REVOKED,CONSENT_REVOKED,CONSENT_REVOKED,CONSENT_REVOKED,CONSENT_REVOKED,CONSENT_REVOKED,CONSENT_REVOKED,CONSENT_REVOKED,CONSENT_REVOKED,Not Applicable
61549a2caa92d84f392000e9,<b>I do not often change my views on people.,Highly disagree,82/94,Somewhat disagree,2,1708007073243,1708007074003,\Somewhat disagree\,\Somewhat disagree\,\2\,1708007073634,1708007073634,391,391,760,buq,qns-item-noham,82,153402,0.0-1.0-0.81,65ce1d6a726e59eeb6124a43,RETURNED,2024-02-15T14:21:01.824000Z,2024-02-15T14:25:45.791000Z,,2024-02-15T14:25:47.100000Z,,CVPIIDEI,2745,CONSENT_REVOKED,CONSENT_REVOKED,CONSENT_REVOKED,CONSENT_REVOKED,CONSENT_REVOKED,CONSENT_REVOKED,CONSENT_REVOKED,CONSENT_REVOKED,CONSENT_REVOKED,Not Applicable
61549a2caa92d84f392000e9,<b>I?m more certain about my beliefs than I used to be.,Highly disagree,83/94,Somewhat disagree,2,1708007074004,1708007074801,\Somewhat disagree\,\Somewhat disagree\,\2\,1708007074434,1708007074434,430,430,797,buq,qns-item-noham,83,154200,0.0-1.0-0.82,65ce1d6a726e59eeb6124a43,RETURNED,2024-02-15T14:21:01.824000Z,2024-02-15T14:25:45.791000Z,,2024-02-15T14:25:47.100000Z,,CVPIIDEI,2745,CONSENT_REVOKED,CONSENT_REVOKED,CONSENT_REVOKED,CONSENT_REVOKED,CONSENT_REVOKED,CONSENT_REVOKED,CONSENT_REVOKED,CONSENT_REVOKED,CONSENT_REVOKED,Not Applicable
61549a2caa92d84f392000e9,<b>People often tell falsehoods unintentionally.,Highly disagree,84/94,Somewhat agree,3,1708007074802,1708007076642,\Somewhat agree\,\Somewhat agree\,\3\,1708007076290,1708007076290,1488,1488,1840,buq,qns-item-noham,84,156041,0.0-1.0-0.83,65ce1d6a726e59eeb6124a43,RETURNED,2024-02-15T14:21:01.824000Z,2024-02-15T14:25:45.791000Z,,2024-02-15T14:25:47.100000Z,,CVPIIDEI,2745,CONSENT_REVOKED,CONSENT_REVOKED,CONSENT_REVOKED,CONSENT_REVOKED,CONSENT_REVOKED,CONSENT_REVOKED,CONSENT_REVOKED,CONSENT_REVOKED,CONSENT_REVOKED,Not Applicable
61549a2caa92d84f392000e9,<b>Most people don?t know much about most things.,Highly disagree,85/94,Somewhat disagree,2,1708007076644,1708007077586,\Somewhat disagree\,\Somewhat disagree\,\2\,1708007077234,1708007077234,590,590,942,buq,qns-item-noham,85,156985,0.0-1.0-0.84,65ce1d6a726e59eeb6124a43,RETURNED,2024-02-15T14:21:01.824000Z,2024-02-15T14:25:45.791000Z,,2024-02-15T14:25:47.100000Z,,CVPIIDEI,2745,CONSENT_REVOKED,CONSENT_REVOKED,CONSENT_REVOKED,CONSENT_REVOKED,CONSENT_REVOKED,CONSENT_REVOKED,CONSENT_REVOKED,CONSENT_REVOKED,CONSENT_REVOKED,Not Applicable
61549a2caa92d84f392000e9,"<b>If I find out something new about someone, I easily change my views about them.",Highly disagree,86/94,Somewhat disagree,2,1708007077587,1708007078386,\Somewhat disagree\,\Somewhat disagree\,\2\,1708007077979,1708007077979,392,392,799,buq,qns-item-noham,86,157785,0.0-1.0-0.85,65ce1d6a726e59eeb6124a43,RETURNED,2024-02-15T14:21:01.824000Z,2024-02-15T14:25:45.791000Z,,2024-02-15T14:25:47.100000Z,,CVPIIDEI,2745,CONSENT_REVOKED,CONSENT_REVOKED,CONSENT_REVOKED,CONSENT_REVOKED,CONSENT_REVOKED,CONSENT_REVOKED,CONSENT_REVOKED,CONSENT_REVOKED,CONSENT_REVOKED,Not Applicable
61549a2caa92d84f392000e9,<b>Having true beliefs is difficult.,Highly disagree,87/94,Somewhat disagree,2,1708007078387,1708007080323,\Somewhat disagree\,\Somewhat disagree\,\2\,1708007078945,1708007078945,558,558,1936,buq,qns-item-noham,87,159722,0.0-1.0-0.86,65ce1d6a726e59eeb6124a43,RETURNED,2024-02-15T14:21:01.824000Z,2024-02-15T14:25:45.791000Z,,2024-02-15T14:25:47.100000Z,,CVPIIDEI,2745,CONSENT_REVOKED,CONSENT_REVOKED,CONSENT_REVOKED,CONSENT_REVOKED,CONSENT_REVOKED,CONSENT_REVOKED,CONSENT_REVOKED,CONSENT_REVOKED,CONSENT_REVOKED,Not Applicable
61549a2caa92d84f392000e9,<b>I don?t try new foods since I know I won?t like them.,Highly disagree,88/94,Somewhat disagree,2,1708007080325,1708007081203,\Somewhat disagree\,\Somewhat disagree\,\2\,1708007080803,1708007080803,478,478,878,buq,qns-item-noham,88,160602,0.0-1.0-0.87,65ce1d6a726e59eeb6124a43,RETURNED,2024-02-15T14:21:01.824000Z,2024-02-15T14:25:45.791000Z,,2024-02-15T14:25:47.100000Z,,CVPIIDEI,2745,CONSENT_REVOKED,CONSENT_REVOKED,CONSENT_REVOKED,CONSENT_REVOKED,CONSENT_REVOKED,CONSENT_REVOKED,CONSENT_REVOKED,CONSENT_REVOKED,CONSENT_REVOKED,Not Applicable
61549a2caa92d84f392000e9,<b>Other people trick each other a lot.,Highly disagree,89/94,Somewhat disagree,2,1708007081208,1708007081994,\Somewhat disagree\,\Somewhat disagree\,\2\,1708007081594,1708007081594,386,386,786,buq,qns-item-noham,89,161393,0.0-1.0-0.88,65ce1d6a726e59eeb6124a43,RETURNED,2024-02-15T14:21:01.824000Z,2024-02-15T14:25:45.791000Z,,2024-02-15T14:25:47.100000Z,,CVPIIDEI,2745,CONSENT_REVOKED,CONSENT_REVOKED,CONSENT_REVOKED,CONSENT_REVOKED,CONSENT_REVOKED,CONSENT_REVOKED,CONSENT_REVOKED,CONSENT_REVOKED,CONSENT_REVOKED,Not Applicable
61549a2caa92d84f392000e9,<b>I would need to learn a lot about a person for my opinion of them to be swayed.,Highly disagree,90/94,Somewhat agree,3,1708007081996,1708007083097,\Somewhat agree\,\Somewhat agree\,\3\,1708007082698,1708007082698,702,702,1101,buq,qns-item-noham,90,162496,0.0-1.0-0.89,65ce1d6a726e59eeb6124a43,RETURNED,2024-02-15T14:21:01.824000Z,2024-02-15T14:25:45.791000Z,,2024-02-15T14:25:47.100000Z,,CVPIIDEI,2745,CONSENT_REVOKED,CONSENT_REVOKED,CONSENT_REVOKED,CONSENT_REVOKED,CONSENT_REVOKED,CONSENT_REVOKED,CONSENT_REVOKED,CONSENT_REVOKED,CONSENT_REVOKED,Not Applicable
61549a2caa92d84f392000e9,<b>People can?t usually trick me when it comes to topics I care about.,Highly disagree,91/94,Somewhat disagree,2,1708007083098,1708007084082,\Somewhat disagree\,\Somewhat disagree\,\2\,1708007083740,1708007083740,642,642,984,buq,qns-item-noham,91,163481,0.0-1.0-0.90,65ce1d6a726e59eeb6124a43,RETURNED,2024-02-15T14:21:01.824000Z,2024-02-15T14:25:45.791000Z,,2024-02-15T14:25:47.100000Z,,CVPIIDEI,2745,CONSENT_REVOKED,CONSENT_REVOKED,CONSENT_REVOKED,CONSENT_REVOKED,CONSENT_REVOKED,CONSENT_REVOKED,CONSENT_REVOKED,CONSENT_REVOKED,CONSENT_REVOKED,Not Applicable
61549a2caa92d84f392000e9,<b>I do not often change my views on food.,Highly disagree,92/94,Somewhat agree,3,1708007084083,1708007087409,\Somewhat agree\,\Somewhat agree\,\3\,1708007086955,1708007086955,2872,2872,3326,buq,qns-item-noham,92,166808,0.0-1.0-0.91,65ce1d6a726e59eeb6124a43,RETURNED,2024-02-15T14:21:01.824000Z,2024-02-15T14:25:45.791000Z,,2024-02-15T14:25:47.100000Z,,CVPIIDEI,2745,CONSENT_REVOKED,CONSENT_REVOKED,CONSENT_REVOKED,CONSENT_REVOKED,CONSENT_REVOKED,CONSENT_REVOKED,CONSENT_REVOKED,CONSENT_REVOKED,CONSENT_REVOKED,Not Applicable
61549a2caa92d84f392000e9,<b>Specific policies are often very important to me.,Highly disagree,93/94,Somewhat agree,3,1708007087417,1708007090344,\Somewhat agree\,\Somewhat agree\,\3\,1708007089562,1708007089562,2145,2145,2927,buq,qns-item-noham,93,169744,0.0-1.0-0.92,65ce1d6a726e59eeb6124a43,RETURNED,2024-02-15T14:21:01.824000Z,2024-02-15T14:25:45.791000Z,,2024-02-15T14:25:47.100000Z,,CVPIIDEI,2745,CONSENT_REVOKED,CONSENT_REVOKED,CONSENT_REVOKED,CONSENT_REVOKED,CONSENT_REVOKED,CONSENT_REVOKED,CONSENT_REVOKED,CONSENT_REVOKED,CONSENT_REVOKED,Not Applicable
61549a2caa92d84f392000e9,<b>Most people are woefully under-informed.,Highly disagree,94/94,Somewhat disagree,2,1708007090347,1708007094595,\Somewhat disagree\,\Somewhat disagree\,\2\,1708007093475,1708007093475,3128,3128,4248,buq,qns-item-noham,94,173994,0.0-1.0-0.93,65ce1d6a726e59eeb6124a43,RETURNED,2024-02-15T14:21:01.824000Z,2024-02-15T14:25:45.791000Z,,2024-02-15T14:25:47.100000Z,,CVPIIDEI,2745,CONSENT_REVOKED,CONSENT_REVOKED,CONSENT_REVOKED,CONSENT_REVOKED,CONSENT_REVOKED,CONSENT_REVOKED,CONSENT_REVOKED,CONSENT_REVOKED,CONSENT_REVOKED,Not Applicable
61549a2caa92d84f392000e9,,,,,,,,,,,,,,,,,,,,,65ce1d6a726e59eeb6124a43,RETURNED,2024-02-15T14:21:01.824000Z,2024-02-15T14:25:45.791000Z,,2024-02-15T14:25:47.100000Z,,CVPIIDEI,2745,CONSENT_REVOKED,CONSENT_REVOKED,CONSENT_REVOKED,CONSENT_REVOKED,CONSENT_REVOKED,CONSENT_REVOKED,CONSENT_REVOKED,CONSENT_REVOKED,CONSENT_REVOKED,Not Applicable
