PROLIFIC_PID,Question,qns_options,quest_num,answer,answer_num,question_load_timestamp,next_btn_timestamp,text_selected,final_text_selected,option_num_selected,preview_timestamps,final_text_selected_time_stamp,rt_first_option_click,rt_final_option_click,rt_submit_click,questionnaire,trial_type,trial_index,time_elapsed,internal_node_id,Demographic_Submission id,Demographic_Status,Demographic_Started at,Demographic_Completed at,Demographic_Reviewed at,Demographic_Archived at,Demographic_Time taken,Demographic_Completion code,Demographic_Total approvals,Demographic_Age,Demographic_Sex,Demographic_Ethnicity simplified,Demographic_Country of birth,Demographic_Country of residence,Demographic_Nationality,Demographic_Language,Demographic_Student status,Demographic_Employment status,Demographic_Custom study tncs accepted at
63d40481d12fc9cc4c1adab0,<b>Knowing what?s true and knowing what to do about it are usually basically the same.,Highly disagree,1/94,Somewhat agree,3,1708007063957,1708007070563,\Somewhat agree\,\Somewhat agree\,\3\,1708007068529,1708007068529,4572,4572,6606,buq,qns-item-noham,1,8671,0.0-1.0-0.0,65ce1e8281197c75c2316f35,AWAITING REVIEW,2024-02-15T14:24:07.533000Z,2024-02-15T14:32:19.585000Z,,2024-02-15T14:32:20.137628Z,493.0,CVPIIDEI,1336,27,Male,White,United States,United States,United States,English,No,Full-Time,Not Applicable
63d40481d12fc9cc4c1adab0,<b>Most people just believe whatever is convenient for them.,Highly disagree,2/94,Highly agree,4,1708007070567,1708007073578,\Highly agree\,\Highly agree\,\4\,1708007072442,1708007072442,1875,1875,3011,buq,qns-item-noham,2,11687,0.0-1.0-0.1,65ce1e8281197c75c2316f35,AWAITING REVIEW,2024-02-15T14:24:07.533000Z,2024-02-15T14:32:19.585000Z,,2024-02-15T14:32:20.137628Z,493.0,CVPIIDEI,1336,27,Male,White,United States,United States,United States,English,No,Full-Time,Not Applicable
63d40481d12fc9cc4c1adab0,<b>Having some big beliefs helps me sort out minor ones.,Highly disagree,3/94,Somewhat agree,3,1708007073580,1708007075098,\Somewhat agree\,\Somewhat agree\,\3\,1708007074660,1708007074660,1080,1080,1518,buq,qns-item-noham,3,13206,0.0-1.0-0.2,65ce1e8281197c75c2316f35,AWAITING REVIEW,2024-02-15T14:24:07.533000Z,2024-02-15T14:32:19.585000Z,,2024-02-15T14:32:20.137628Z,493.0,CVPIIDEI,1336,27,Male,White,United States,United States,United States,English,No,Full-Time,Not Applicable
63d40481d12fc9cc4c1adab0,<b>Political questions are usually pretty complicated.,Highly disagree,4/94,Somewhat disagree,2,1708007075100,1708007077338,\Somewhat disagree\,\Somewhat disagree\,\2\,1708007075874,1708007075874,774,774,2238,buq,qns-item-noham,4,15446,0.0-1.0-0.3,65ce1e8281197c75c2316f35,AWAITING REVIEW,2024-02-15T14:24:07.533000Z,2024-02-15T14:32:19.585000Z,,2024-02-15T14:32:20.137628Z,493.0,CVPIIDEI,1336,27,Male,White,United States,United States,United States,English,No,Full-Time,Not Applicable
63d40481d12fc9cc4c1adab0,<b>Figuring out what?s important in life requires learning a lot of facts.,Highly disagree,5/94,Somewhat agree,3,1708007077339,1708007388436,\Somewhat agree\,\Somewhat agree\,\3\,1708007387763,1708007387763,310424,310424,311097,buq,qns-item-noham,5,326544,0.0-1.0-0.4,65ce1e8281197c75c2316f35,AWAITING REVIEW,2024-02-15T14:24:07.533000Z,2024-02-15T14:32:19.585000Z,,2024-02-15T14:32:20.137628Z,493.0,CVPIIDEI,1336,27,Male,White,United States,United States,United States,English,No,Full-Time,Not Applicable
63d40481d12fc9cc4c1adab0,<b>It is difficult for me to remember the last time I was surprised by politics.,Highly disagree,6/94,Somewhat agree,3,1708007388437,1708007390284,\Somewhat agree\,\Somewhat agree\,\3\,1708007389628,1708007389628,1191,1191,1847,buq,qns-item-noham,6,328392,0.0-1.0-0.5,65ce1e8281197c75c2316f35,AWAITING REVIEW,2024-02-15T14:24:07.533000Z,2024-02-15T14:32:19.585000Z,,2024-02-15T14:32:20.137628Z,493.0,CVPIIDEI,1336,27,Male,White,United States,United States,United States,English,No,Full-Time,Not Applicable
63d40481d12fc9cc4c1adab0,<b>People?s false beliefs are understandable.,Highly disagree,7/94,Somewhat disagree,2,1708007390286,1708007392166,\Somewhat disagree\,\Somewhat disagree\,\2\,1708007390860,1708007390860,574,574,1880,buq,qns-item-noham,7,330274,0.0-1.0-0.6,65ce1e8281197c75c2316f35,AWAITING REVIEW,2024-02-15T14:24:07.533000Z,2024-02-15T14:32:19.585000Z,,2024-02-15T14:32:20.137628Z,493.0,CVPIIDEI,1336,27,Male,White,United States,United States,United States,English,No,Full-Time,Not Applicable
63d40481d12fc9cc4c1adab0,<b>I spend a lot of time trying to be informed about politics.,Highly disagree,8/94,Somewhat disagree,2,1708007392167,1708007394244,\Somewhat agree\,\Somewhat disagree\,\3\,1708007392965,1708007393653,798,1486,2077,buq,qns-item-noham,8,332352,0.0-1.0-0.7,65ce1e8281197c75c2316f35,AWAITING REVIEW,2024-02-15T14:24:07.533000Z,2024-02-15T14:32:19.585000Z,,2024-02-15T14:32:20.137628Z,493.0,CVPIIDEI,1336,27,Male,White,United States,United States,United States,English,No,Full-Time,Not Applicable
63d40481d12fc9cc4c1adab0,<b>I think a lot about whether my beliefs are right.,Highly disagree,9/94,Highly disagree,1,1708007394246,1708007395173,\Highly disagree\,\Highly disagree\,\1\,1708007394733,1708007394733,487,487,927,buq,qns-item-noham,9,333281,0.0-1.0-0.8,65ce1e8281197c75c2316f35,AWAITING REVIEW,2024-02-15T14:24:07.533000Z,2024-02-15T14:32:19.585000Z,,2024-02-15T14:32:20.137628Z,493.0,CVPIIDEI,1336,27,Male,White,United States,United States,United States,English,No,Full-Time,Not Applicable
63d40481d12fc9cc4c1adab0,<b>Statistics can be pretty misleading sometimes.,Highly disagree,10/94,Somewhat agree,3,1708007395174,1708007396325,\Somewhat agree\,\Somewhat agree\,\3\,1708007395949,1708007395949,775,775,1151,buq,qns-item-noham,10,334433,0.0-1.0-0.9,65ce1e8281197c75c2316f35,AWAITING REVIEW,2024-02-15T14:24:07.533000Z,2024-02-15T14:32:19.585000Z,,2024-02-15T14:32:20.137628Z,493.0,CVPIIDEI,1336,27,Male,White,United States,United States,United States,English,No,Full-Time,Not Applicable
63d40481d12fc9cc4c1adab0,<b>I have lots of beliefs that I?m only sort of sure about.,Highly disagree,11/94,Highly agree,4,1708007396326,1708007397341,\Highly agree\,\Highly agree\,\4\,1708007396997,1708007396997,671,671,1015,buq,qns-item-noham,11,335449,0.0-1.0-0.10,65ce1e8281197c75c2316f35,AWAITING REVIEW,2024-02-15T14:24:07.533000Z,2024-02-15T14:32:19.585000Z,,2024-02-15T14:32:20.137628Z,493.0,CVPIIDEI,1336,27,Male,White,United States,United States,United States,English,No,Full-Time,Not Applicable
63d40481d12fc9cc4c1adab0,"<b>If I go to my favorite restaurant and the food is surprisingly bad, it reminds me there are many disappointments in life.",Highly disagree,12/94,Somewhat disagree,2,1708007397342,1708007398902,\Somewhat disagree\,\Somewhat disagree\,\2\,1708007397861,1708007397861,519,519,1560,buq,qns-item-noham,12,337010,0.0-1.0-0.11,65ce1e8281197c75c2316f35,AWAITING REVIEW,2024-02-15T14:24:07.533000Z,2024-02-15T14:32:19.585000Z,,2024-02-15T14:32:20.137628Z,493.0,CVPIIDEI,1336,27,Male,White,United States,United States,United States,English,No,Full-Time,Not Applicable
63d40481d12fc9cc4c1adab0,"<b>If you are paying attention, please select ?Somewhat agree?",Highly disagree,13/94,Somewhat agree,3,1708007398903,1708007400797,\Somewhat agree\,\Somewhat agree\,\3\,1708007400197,1708007400197,1294,1294,1894,buq,qns-item-noham,13,338905,0.0-1.0-0.12,65ce1e8281197c75c2316f35,AWAITING REVIEW,2024-02-15T14:24:07.533000Z,2024-02-15T14:32:19.585000Z,,2024-02-15T14:32:20.137628Z,493.0,CVPIIDEI,1336,27,Male,White,United States,United States,United States,English,No,Full-Time,Not Applicable
63d40481d12fc9cc4c1adab0,"<b>When I talk to others, I often worry I?ll convince them of something I didn?t mean to.",Highly disagree,14/94,Somewhat disagree,2,1708007400798,1708007402030,\Somewhat disagree\,\Somewhat disagree\,\2\,1708007401582,1708007401582,784,784,1232,buq,qns-item-noham,14,340138,0.0-1.0-0.13,65ce1e8281197c75c2316f35,AWAITING REVIEW,2024-02-15T14:24:07.533000Z,2024-02-15T14:32:19.585000Z,,2024-02-15T14:32:20.137628Z,493.0,CVPIIDEI,1336,27,Male,White,United States,United States,United States,English,No,Full-Time,Not Applicable
63d40481d12fc9cc4c1adab0,<b>I would need to learn something utterly shocking about my party in order to change my political views.,Highly disagree,15/94,Highly disagree,1,1708007402032,1708007403134,\Highly disagree\,\Highly disagree\,\1\,1708007402606,1708007402606,574,574,1102,buq,qns-item-noham,15,341242,0.0-1.0-0.14,65ce1e8281197c75c2316f35,AWAITING REVIEW,2024-02-15T14:24:07.533000Z,2024-02-15T14:32:19.585000Z,,2024-02-15T14:32:20.137628Z,493.0,CVPIIDEI,1336,27,Male,White,United States,United States,United States,English,No,Full-Time,Not Applicable
63d40481d12fc9cc4c1adab0,"<b>When I have new experiences, I tend to think of them as unique.",Highly disagree,16/94,Somewhat agree,3,1708007403135,1708007404005,\Somewhat agree\,\Somewhat agree\,\3\,1708007403574,1708007403574,439,439,870,buq,qns-item-noham,16,342113,0.0-1.0-0.15,65ce1e8281197c75c2316f35,AWAITING REVIEW,2024-02-15T14:24:07.533000Z,2024-02-15T14:32:19.585000Z,,2024-02-15T14:32:20.137628Z,493.0,CVPIIDEI,1336,27,Male,White,United States,United States,United States,English,No,Full-Time,Not Applicable
63d40481d12fc9cc4c1adab0,<b>I change my mind about specific policies pretty frequently.,Highly disagree,17/94,Somewhat disagree,2,1708007404007,1708007404854,\Somewhat disagree\,\Somewhat disagree\,\2\,1708007404423,1708007404423,416,416,847,buq,qns-item-noham,17,342962,0.0-1.0-0.16,65ce1e8281197c75c2316f35,AWAITING REVIEW,2024-02-15T14:24:07.533000Z,2024-02-15T14:32:19.585000Z,,2024-02-15T14:32:20.137628Z,493.0,CVPIIDEI,1336,27,Male,White,United States,United States,United States,English,No,Full-Time,Not Applicable
63d40481d12fc9cc4c1adab0,"<b>If a politician in my political party supports something I disagree with, I give them the benefit of the doubt, as such issues often involve hidden complexities that aren?t obvious.   ",Highly disagree,18/94,Somewhat agree,3,1708007404856,1708007405879,\Somewhat agree\,\Somewhat agree\,\3\,1708007405366,1708007405366,510,510,1023,buq,qns-item-noham,18,343987,0.0-1.0-0.17,65ce1e8281197c75c2316f35,AWAITING REVIEW,2024-02-15T14:24:07.533000Z,2024-02-15T14:32:19.585000Z,,2024-02-15T14:32:20.137628Z,493.0,CVPIIDEI,1336,27,Male,White,United States,United States,United States,English,No,Full-Time,Not Applicable
63d40481d12fc9cc4c1adab0,<b>People?s bad politics are usually motivated by hatefulness.,Highly disagree,19/94,Somewhat agree,3,1708007405881,1708007406886,\Somewhat agree\,\Somewhat agree\,\3\,1708007406520,1708007406520,639,639,1005,buq,qns-item-noham,19,344994,0.0-1.0-0.18,65ce1e8281197c75c2316f35,AWAITING REVIEW,2024-02-15T14:24:07.533000Z,2024-02-15T14:32:19.585000Z,,2024-02-15T14:32:20.137628Z,493.0,CVPIIDEI,1336,27,Male,White,United States,United States,United States,English,No,Full-Time,Not Applicable
63d40481d12fc9cc4c1adab0,<b>I think a lot about how to reconcile my beliefs with one another.,Highly disagree,20/94,Somewhat agree,3,1708007406888,1708007408255,\Somewhat agree\,\Somewhat agree\,\3\,1708007407567,1708007407567,679,679,1367,buq,qns-item-noham,20,346363,0.0-1.0-0.19,65ce1e8281197c75c2316f35,AWAITING REVIEW,2024-02-15T14:24:07.533000Z,2024-02-15T14:32:19.585000Z,,2024-02-15T14:32:20.137628Z,493.0,CVPIIDEI,1336,27,Male,White,United States,United States,United States,English,No,Full-Time,Not Applicable
63d40481d12fc9cc4c1adab0,<b>I might have false beliefs about important topics.,Highly disagree,21/94,Somewhat disagree,2,1708007408256,1708007409143,\Somewhat disagree\,\Somewhat disagree\,\2\,1708007408743,1708007408743,487,487,887,buq,qns-item-noham,21,347251,0.0-1.0-0.20,65ce1e8281197c75c2316f35,AWAITING REVIEW,2024-02-15T14:24:07.533000Z,2024-02-15T14:32:19.585000Z,,2024-02-15T14:32:20.137628Z,493.0,CVPIIDEI,1336,27,Male,White,United States,United States,United States,English,No,Full-Time,Not Applicable
63d40481d12fc9cc4c1adab0,"<b>If a good friend of mine does something unexpected that upsets me, I feel like I don?t know them anymore.",Highly disagree,22/94,Highly disagree,1,1708007409144,1708007410479,\Highly disagree\,\Highly disagree\,\1\,1708007409768,1708007409768,624,624,1335,buq,qns-item-noham,22,348588,0.0-1.0-0.21,65ce1e8281197c75c2316f35,AWAITING REVIEW,2024-02-15T14:24:07.533000Z,2024-02-15T14:32:19.585000Z,,2024-02-15T14:32:20.137628Z,493.0,CVPIIDEI,1336,27,Male,White,United States,United States,United States,English,No,Full-Time,Not Applicable
63d40481d12fc9cc4c1adab0,<b>Other people?s beliefs are often incoherent.,Highly disagree,23/94,Somewhat disagree,2,1708007410481,1708007412839,\Somewhat disagree\,\Somewhat disagree\,\2\,1708007410943,1708007410943,462,462,2358,buq,qns-item-noham,23,350947,0.0-1.0-0.22,65ce1e8281197c75c2316f35,AWAITING REVIEW,2024-02-15T14:24:07.533000Z,2024-02-15T14:32:19.585000Z,,2024-02-15T14:32:20.137628Z,493.0,CVPIIDEI,1336,27,Male,White,United States,United States,United States,English,No,Full-Time,Not Applicable
63d40481d12fc9cc4c1adab0,"<b>Every now and then, a new experience will unsettle beliefs I?ve had for a while.",Highly disagree,24/94,Somewhat agree,3,1708007412840,1708007413975,\Somewhat agree\,\Somewhat agree\,\3\,1708007413528,1708007413528,688,688,1135,buq,qns-item-noham,24,352083,0.0-1.0-0.23,65ce1e8281197c75c2316f35,AWAITING REVIEW,2024-02-15T14:24:07.533000Z,2024-02-15T14:32:19.585000Z,,2024-02-15T14:32:20.137628Z,493.0,CVPIIDEI,1336,27,Male,White,United States,United States,United States,English,No,Full-Time,Not Applicable
63d40481d12fc9cc4c1adab0,<b>Some policies I agree with in principle are so bad I don?t support them. ,Highly disagree,25/94,Somewhat agree,3,1708007413976,1708007414912,\Somewhat agree\,\Somewhat agree\,\3\,1708007414448,1708007414448,472,472,936,buq,qns-item-noham,25,353020,0.0-1.0-0.24,65ce1e8281197c75c2316f35,AWAITING REVIEW,2024-02-15T14:24:07.533000Z,2024-02-15T14:32:19.585000Z,,2024-02-15T14:32:20.137628Z,493.0,CVPIIDEI,1336,27,Male,White,United States,United States,United States,English,No,Full-Time,Not Applicable
63d40481d12fc9cc4c1adab0,<b>I?m pretty sure I?ve accidentally spread false information.,Highly disagree,26/94,Somewhat agree,3,1708007414913,1708007416016,\Somewhat agree\,\Somewhat agree\,\3\,1708007415360,1708007415360,447,447,1103,buq,qns-item-noham,26,354124,0.0-1.0-0.25,65ce1e8281197c75c2316f35,AWAITING REVIEW,2024-02-15T14:24:07.533000Z,2024-02-15T14:32:19.585000Z,,2024-02-15T14:32:20.137628Z,493.0,CVPIIDEI,1336,27,Male,White,United States,United States,United States,English,No,Full-Time,Not Applicable
63d40481d12fc9cc4c1adab0,"<b>If I go to my favorite restaurant and the food is unexpectedly bad, then they have changed owners.",Highly disagree,27/94,Somewhat agree,3,1708007416017,1708007417713,\Somewhat agree\,\Somewhat agree\,\3\,1708007417169,1708007417169,1152,1152,1696,buq,qns-item-noham,27,355821,0.0-1.0-0.26,65ce1e8281197c75c2316f35,AWAITING REVIEW,2024-02-15T14:24:07.533000Z,2024-02-15T14:32:19.585000Z,,2024-02-15T14:32:20.137628Z,493.0,CVPIIDEI,1336,27,Male,White,United States,United States,United States,English,No,Full-Time,Not Applicable
63d40481d12fc9cc4c1adab0,"<b>In politics, it?s important to trust your friends and family.",Highly disagree,28/94,Highly agree,4,1708007417714,1708007419671,\Highly agree\,\Highly agree\,\4\,1708007419200,1708007419200,1486,1486,1957,buq,qns-item-noham,28,357779,0.0-1.0-0.27,65ce1e8281197c75c2316f35,AWAITING REVIEW,2024-02-15T14:24:07.533000Z,2024-02-15T14:32:19.585000Z,,2024-02-15T14:32:20.137628Z,493.0,CVPIIDEI,1336,27,Male,White,United States,United States,United States,English,No,Full-Time,Not Applicable
63d40481d12fc9cc4c1adab0,<b>It?s OK to have some conflicting beliefs.,Highly disagree,29/94,Somewhat agree,3,1708007419673,1708007420913,\Somewhat agree\,\Somewhat agree\,\3\,1708007420488,1708007420488,815,815,1240,buq,qns-item-noham,29,359021,0.0-1.0-0.28,65ce1e8281197c75c2316f35,AWAITING REVIEW,2024-02-15T14:24:07.533000Z,2024-02-15T14:32:19.585000Z,,2024-02-15T14:32:20.137628Z,493.0,CVPIIDEI,1336,27,Male,White,United States,United States,United States,English,No,Full-Time,Not Applicable
63d40481d12fc9cc4c1adab0,<b>Listening to people I disagree with makes my opinions better.,Highly disagree,30/94,Somewhat agree,3,1708007420914,1708007422265,\Somewhat agree\,\Somewhat agree\,\3\,1708007421425,1708007421425,511,511,1351,buq,qns-item-noham,30,360373,0.0-1.0-0.29,65ce1e8281197c75c2316f35,AWAITING REVIEW,2024-02-15T14:24:07.533000Z,2024-02-15T14:32:19.585000Z,,2024-02-15T14:32:20.137628Z,493.0,CVPIIDEI,1336,27,Male,White,United States,United States,United States,English,No,Full-Time,Not Applicable
63d40481d12fc9cc4c1adab0,<b>My moral compass sometimes makes it harder to determine what?s true.,Highly disagree,31/94,Somewhat disagree,2,1708007422266,1708007424376,\Somewhat disagree\,\Somewhat disagree\,\2\,1708007423417,1708007423417,1151,1151,2110,buq,qns-item-noham,31,362484,0.0-1.0-0.30,65ce1e8281197c75c2316f35,AWAITING REVIEW,2024-02-15T14:24:07.533000Z,2024-02-15T14:32:19.585000Z,,2024-02-15T14:32:20.137628Z,493.0,CVPIIDEI,1336,27,Male,White,United States,United States,United States,English,No,Full-Time,Not Applicable
63d40481d12fc9cc4c1adab0,<b>Evidence pointing in the wrong direction isn?t really evidence at all.,Highly disagree,32/94,Somewhat disagree,2,1708007424377,1708007427321,\Somewhat disagree\,\Somewhat disagree\,\2\,1708007426393,1708007426393,2016,2016,2944,buq,qns-item-noham,32,365429,0.0-1.0-0.31,65ce1e8281197c75c2316f35,AWAITING REVIEW,2024-02-15T14:24:07.533000Z,2024-02-15T14:32:19.585000Z,,2024-02-15T14:32:20.137628Z,493.0,CVPIIDEI,1336,27,Male,White,United States,United States,United States,English,No,Full-Time,Not Applicable
63d40481d12fc9cc4c1adab0,"<b>If the political party I support messes up, it makes me think politics is rotten.",Highly disagree,33/94,Somewhat agree,3,1708007427322,1708007428848,\Somewhat agree\,\Somewhat agree\,\3\,1708007428449,1708007428449,1127,1127,1526,buq,qns-item-noham,33,366956,0.0-1.0-0.32,65ce1e8281197c75c2316f35,AWAITING REVIEW,2024-02-15T14:24:07.533000Z,2024-02-15T14:32:19.585000Z,,2024-02-15T14:32:20.137628Z,493.0,CVPIIDEI,1336,27,Male,White,United States,United States,United States,English,No,Full-Time,Not Applicable
63d40481d12fc9cc4c1adab0,<b>Lots of important topics can only really be understood by some groups of people.,Highly disagree,34/94,Highly agree,4,1708007428849,1708007430233,\Highly agree\,\Highly agree\,\4\,1708007429817,1708007429817,968,968,1384,buq,qns-item-noham,34,368341,0.0-1.0-0.33,65ce1e8281197c75c2316f35,AWAITING REVIEW,2024-02-15T14:24:07.533000Z,2024-02-15T14:32:19.585000Z,,2024-02-15T14:32:20.137628Z,493.0,CVPIIDEI,1336,27,Male,White,United States,United States,United States,English,No,Full-Time,Not Applicable
63d40481d12fc9cc4c1adab0,<b>Having conflicting beliefs means you haven?t thought about them enough.,Highly disagree,35/94,Somewhat agree,3,1708007430235,1708007431289,\Somewhat agree\,\Somewhat agree\,\3\,1708007430705,1708007430705,470,470,1054,buq,qns-item-noham,35,369397,0.0-1.0-0.34,65ce1e8281197c75c2316f35,AWAITING REVIEW,2024-02-15T14:24:07.533000Z,2024-02-15T14:32:19.585000Z,,2024-02-15T14:32:20.137628Z,493.0,CVPIIDEI,1336,27,Male,White,United States,United States,United States,English,No,Full-Time,Not Applicable
63d40481d12fc9cc4c1adab0,<b>I do not often change my political opinions.,Highly disagree,36/94,Somewhat disagree,2,1708007431291,1708007432585,\Somewhat disagree\,\Somewhat disagree\,\2\,1708007431721,1708007431721,430,430,1294,buq,qns-item-noham,36,370693,0.0-1.0-0.35,65ce1e8281197c75c2316f35,AWAITING REVIEW,2024-02-15T14:24:07.533000Z,2024-02-15T14:32:19.585000Z,,2024-02-15T14:32:20.137628Z,493.0,CVPIIDEI,1336,27,Male,White,United States,United States,United States,English,No,Full-Time,Not Applicable
63d40481d12fc9cc4c1adab0,<b>It?s difficult to not have at least some conflicting beliefs.,Highly disagree,37/94,Somewhat agree,3,1708007432587,1708007433402,\Somewhat agree\,\Somewhat agree\,\3\,1708007433026,1708007433026,439,439,815,buq,qns-item-noham,37,371510,0.0-1.0-0.36,65ce1e8281197c75c2316f35,AWAITING REVIEW,2024-02-15T14:24:07.533000Z,2024-02-15T14:32:19.585000Z,,2024-02-15T14:32:20.137628Z,493.0,CVPIIDEI,1336,27,Male,White,United States,United States,United States,English,No,Full-Time,Not Applicable
63d40481d12fc9cc4c1adab0,<b>Wishful thinking causes a lot of problems.,Highly disagree,38/94,Highly agree,4,1708007433404,1708007434201,\Highly agree\,\Highly agree\,\4\,1708007433802,1708007433802,398,398,797,buq,qns-item-noham,38,372309,0.0-1.0-0.37,65ce1e8281197c75c2316f35,AWAITING REVIEW,2024-02-15T14:24:07.533000Z,2024-02-15T14:32:19.585000Z,,2024-02-15T14:32:20.137628Z,493.0,CVPIIDEI,1336,27,Male,White,United States,United States,United States,English,No,Full-Time,Not Applicable
63d40481d12fc9cc4c1adab0,<b>I judge a food item only once I try it many times.,Highly disagree,39/94,Somewhat disagree,2,1708007434203,1708007435025,\Somewhat disagree\,\Somewhat disagree\,\2\,1708007434609,1708007434609,406,406,822,buq,qns-item-noham,39,373133,0.0-1.0-0.38,65ce1e8281197c75c2316f35,AWAITING REVIEW,2024-02-15T14:24:07.533000Z,2024-02-15T14:32:19.585000Z,,2024-02-15T14:32:20.137628Z,493.0,CVPIIDEI,1336,27,Male,White,United States,United States,United States,English,No,Full-Time,Not Applicable
63d40481d12fc9cc4c1adab0,"<b>When a person holds conflicting beliefs, they should really try to figure out what?s wrong.",Highly disagree,40/94,Highly disagree,1,1708007435027,1708007436035,\Highly disagree\,\Highly disagree\,\1\,1708007435425,1708007435425,398,398,1008,buq,qns-item-noham,40,374143,0.0-1.0-0.39,65ce1e8281197c75c2316f35,AWAITING REVIEW,2024-02-15T14:24:07.533000Z,2024-02-15T14:32:19.585000Z,,2024-02-15T14:32:20.137628Z,493.0,CVPIIDEI,1336,27,Male,White,United States,United States,United States,English,No,Full-Time,Not Applicable
63d40481d12fc9cc4c1adab0,<b>Knowing what?s important in life is easy.,Highly disagree,41/94,Somewhat agree,3,1708007436037,1708007437634,\Somewhat agree\,\Somewhat agree\,\3\,1708007437290,1708007437290,1253,1253,1597,buq,qns-item-noham,41,375742,0.0-1.0-0.40,65ce1e8281197c75c2316f35,AWAITING REVIEW,2024-02-15T14:24:07.533000Z,2024-02-15T14:32:19.585000Z,,2024-02-15T14:32:20.137628Z,493.0,CVPIIDEI,1336,27,Male,White,United States,United States,United States,English,No,Full-Time,Not Applicable
63d40481d12fc9cc4c1adab0,<b>I swim across the Atlantic Ocean to get to work every day.,Highly disagree,42/94,Highly disagree,1,1708007437635,1708007441067,\Highly disagree\,\Highly disagree\,\1\,1708007438875,1708007438875,1240,1240,3432,buq,qns-item-noham,42,379175,0.0-1.0-0.41,65ce1e8281197c75c2316f35,AWAITING REVIEW,2024-02-15T14:24:07.533000Z,2024-02-15T14:32:19.585000Z,,2024-02-15T14:32:20.137628Z,493.0,CVPIIDEI,1336,27,Male,White,United States,United States,United States,English,No,Full-Time,Not Applicable
63d40481d12fc9cc4c1adab0,"<b>Sometimes, you just have to ignore evidence that you know is wrong.",Highly disagree,43/94,Somewhat disagree,2,1708007441068,1708007443107,\Somewhat disagree\,\Somewhat disagree\,\2\,1708007442242,1708007442242,1174,1174,2039,buq,qns-item-noham,43,381215,0.0-1.0-0.42,65ce1e8281197c75c2316f35,AWAITING REVIEW,2024-02-15T14:24:07.533000Z,2024-02-15T14:32:19.585000Z,,2024-02-15T14:32:20.137628Z,493.0,CVPIIDEI,1336,27,Male,White,United States,United States,United States,English,No,Full-Time,Not Applicable
63d40481d12fc9cc4c1adab0,<b>I have had some false beliefs.,Highly disagree,44/94,Somewhat disagree,2,1708007443109,1708007444307,\Somewhat disagree\,\Somewhat disagree\,\2\,1708007443788,1708007443788,679,679,1198,buq,qns-item-noham,44,382415,0.0-1.0-0.43,65ce1e8281197c75c2316f35,AWAITING REVIEW,2024-02-15T14:24:07.533000Z,2024-02-15T14:32:19.585000Z,,2024-02-15T14:32:20.137628Z,493.0,CVPIIDEI,1336,27,Male,White,United States,United States,United States,English,No,Full-Time,Not Applicable
63d40481d12fc9cc4c1adab0,"<b>If one friend does something that upsets me, I sometimes start to distrust people in general.",Highly disagree,45/94,Somewhat agree,3,1708007444309,1708007445419,\Somewhat agree\,\Somewhat agree\,\3\,1708007444868,1708007444868,559,559,1110,buq,qns-item-noham,45,383527,0.0-1.0-0.44,65ce1e8281197c75c2316f35,AWAITING REVIEW,2024-02-15T14:24:07.533000Z,2024-02-15T14:32:19.585000Z,,2024-02-15T14:32:20.137628Z,493.0,CVPIIDEI,1336,27,Male,White,United States,United States,United States,English,No,Full-Time,Not Applicable
63d40481d12fc9cc4c1adab0,<b>The facts about most important matters are easy to find.,Highly disagree,46/94,Highly agree,4,1708007445420,1708007446395,\Highly agree\,\Highly agree\,\4\,1708007445939,1708007445939,519,519,975,buq,qns-item-noham,46,384503,0.0-1.0-0.45,65ce1e8281197c75c2316f35,AWAITING REVIEW,2024-02-15T14:24:07.533000Z,2024-02-15T14:32:19.585000Z,,2024-02-15T14:32:20.137628Z,493.0,CVPIIDEI,1336,27,Male,White,United States,United States,United States,English,No,Full-Time,Not Applicable
63d40481d12fc9cc4c1adab0,<b>It?s better to know what?s true than to know what?s moral.,Highly disagree,47/94,Somewhat disagree,2,1708007446396,1708007447259,\Somewhat disagree\,\Somewhat disagree\,\2\,1708007446827,1708007446827,431,431,863,buq,qns-item-noham,47,385367,0.0-1.0-0.46,65ce1e8281197c75c2316f35,AWAITING REVIEW,2024-02-15T14:24:07.533000Z,2024-02-15T14:32:19.585000Z,,2024-02-15T14:32:20.137628Z,493.0,CVPIIDEI,1336,27,Male,White,United States,United States,United States,English,No,Full-Time,Not Applicable
63d40481d12fc9cc4c1adab0,<b>I used to think the world was less complicated than I do now.,Highly disagree,48/94,Highly disagree,1,1708007447260,1708007448340,\Highly disagree\,\Highly disagree\,\1\,1708007447668,1708007447668,408,408,1080,buq,qns-item-noham,48,386448,0.0-1.0-0.47,65ce1e8281197c75c2316f35,AWAITING REVIEW,2024-02-15T14:24:07.533000Z,2024-02-15T14:32:19.585000Z,,2024-02-15T14:32:20.137628Z,493.0,CVPIIDEI,1336,27,Male,White,United States,United States,United States,English,No,Full-Time,Not Applicable
63d40481d12fc9cc4c1adab0,<b>People are usually completely right or completely wrong.,Highly disagree,49/94,Somewhat disagree,2,1708007448341,1708007450740,\Somewhat disagree\,\Somewhat disagree\,\2\,1708007448756,1708007448756,415,415,2399,buq,qns-item-noham,49,388848,0.0-1.0-0.48,65ce1e8281197c75c2316f35,AWAITING REVIEW,2024-02-15T14:24:07.533000Z,2024-02-15T14:32:19.585000Z,,2024-02-15T14:32:20.137628Z,493.0,CVPIIDEI,1336,27,Male,White,United States,United States,United States,English,No,Full-Time,Not Applicable
63d40481d12fc9cc4c1adab0,<b>I spend a lot of time considering alternatives to my beliefs.,Highly disagree,50/94,Somewhat disagree,2,1708007450741,1708007452101,\Somewhat disagree\,\Somewhat disagree\,\2\,1708007451692,1708007451692,951,951,1360,buq,qns-item-noham,50,390209,0.0-1.0-0.49,65ce1e8281197c75c2316f35,AWAITING REVIEW,2024-02-15T14:24:07.533000Z,2024-02-15T14:32:19.585000Z,,2024-02-15T14:32:20.137628Z,493.0,CVPIIDEI,1336,27,Male,White,United States,United States,United States,English,No,Full-Time,Not Applicable
63d40481d12fc9cc4c1adab0,"<b>Political enemies need to be defeated, not convinced.",Highly disagree,51/94,Somewhat disagree,2,1708007452102,1708007453099,\Somewhat disagree\,\Somewhat disagree\,\2\,1708007452548,1708007452548,446,446,997,buq,qns-item-noham,51,391207,0.0-1.0-0.50,65ce1e8281197c75c2316f35,AWAITING REVIEW,2024-02-15T14:24:07.533000Z,2024-02-15T14:32:19.585000Z,,2024-02-15T14:32:20.137628Z,493.0,CVPIIDEI,1336,27,Male,White,United States,United States,United States,English,No,Full-Time,Not Applicable
63d40481d12fc9cc4c1adab0,<b>I form my political views only after meticulously gathering historical and present information about their policies.,Highly disagree,52/94,Somewhat disagree,2,1708007453101,1708007454224,\Somewhat disagree\,\Somewhat disagree\,\2\,1708007453724,1708007453724,623,623,1123,buq,qns-item-noham,52,392332,0.0-1.0-0.51,65ce1e8281197c75c2316f35,AWAITING REVIEW,2024-02-15T14:24:07.533000Z,2024-02-15T14:32:19.585000Z,,2024-02-15T14:32:20.137628Z,493.0,CVPIIDEI,1336,27,Male,White,United States,United States,United States,English,No,Full-Time,Not Applicable
63d40481d12fc9cc4c1adab0,<b>It is difficult for me to remember the last time I was surprised by politics.,Highly disagree,53/94,Somewhat agree,3,1708007454226,1708007456873,\Somewhat agree\,\Somewhat agree\,\3\,1708007455624,1708007455624,1398,1398,2647,buq,qns-item-noham,53,394981,0.0-1.0-0.52,65ce1e8281197c75c2316f35,AWAITING REVIEW,2024-02-15T14:24:07.533000Z,2024-02-15T14:32:19.585000Z,,2024-02-15T14:32:20.137628Z,493.0,CVPIIDEI,1336,27,Male,White,United States,United States,United States,English,No,Full-Time,Not Applicable
63d40481d12fc9cc4c1adab0,"<b>When I find out I?m wrong, I think a lot about my related beliefs.",Highly disagree,54/94,Somewhat disagree,2,1708007456874,1708007459032,\Somewhat disagree\,\Somewhat disagree\,\2\,1708007458624,1708007458624,1750,1750,2158,buq,qns-item-noham,54,397140,0.0-1.0-0.53,65ce1e8281197c75c2316f35,AWAITING REVIEW,2024-02-15T14:24:07.533000Z,2024-02-15T14:32:19.585000Z,,2024-02-15T14:32:20.137628Z,493.0,CVPIIDEI,1336,27,Male,White,United States,United States,United States,English,No,Full-Time,Not Applicable
63d40481d12fc9cc4c1adab0,"<b>If the political party I support messes up, it makes me think you can?t trust anyone these days",Highly disagree,55/94,Somewhat agree,3,1708007459034,1708007460769,\Somewhat agree\,\Somewhat agree\,\3\,1708007460426,1708007460426,1392,1392,1735,buq,qns-item-noham,55,398877,0.0-1.0-0.54,65ce1e8281197c75c2316f35,AWAITING REVIEW,2024-02-15T14:24:07.533000Z,2024-02-15T14:32:19.585000Z,,2024-02-15T14:32:20.137628Z,493.0,CVPIIDEI,1336,27,Male,White,United States,United States,United States,English,No,Full-Time,Not Applicable
63d40481d12fc9cc4c1adab0,<b>People?s brains turn off when they talk about politics.,Highly disagree,56/94,Highly agree,4,1708007460771,1708007462801,\Highly agree\,\Highly agree\,\4\,1708007462305,1708007462305,1534,1534,2030,buq,qns-item-noham,56,400909,0.0-1.0-0.55,65ce1e8281197c75c2316f35,AWAITING REVIEW,2024-02-15T14:24:07.533000Z,2024-02-15T14:32:19.585000Z,,2024-02-15T14:32:20.137628Z,493.0,CVPIIDEI,1336,27,Male,White,United States,United States,United States,English,No,Full-Time,Not Applicable
63d40481d12fc9cc4c1adab0,<b>People who are wrong are usually just ignoring the obvious.,Highly disagree,57/94,Somewhat agree,3,1708007462803,1708007464330,\Somewhat agree\,\Somewhat agree\,\3\,1708007463841,1708007463841,1038,1038,1527,buq,qns-item-noham,57,402438,0.0-1.0-0.56,65ce1e8281197c75c2316f35,AWAITING REVIEW,2024-02-15T14:24:07.533000Z,2024-02-15T14:32:19.585000Z,,2024-02-15T14:32:20.137628Z,493.0,CVPIIDEI,1336,27,Male,White,United States,United States,United States,English,No,Full-Time,Not Applicable
63d40481d12fc9cc4c1adab0,"<b>When forming my views on people, I rely more on what they are like now rather than rely on my past experience with them.",Highly disagree,58/94,Somewhat disagree,2,1708007464331,1708007465466,\Somewhat disagree\,\Somewhat disagree\,\2\,1708007464865,1708007464865,534,534,1135,buq,qns-item-noham,58,403574,0.0-1.0-0.57,65ce1e8281197c75c2316f35,AWAITING REVIEW,2024-02-15T14:24:07.533000Z,2024-02-15T14:32:19.585000Z,,2024-02-15T14:32:20.137628Z,493.0,CVPIIDEI,1336,27,Male,White,United States,United States,United States,English,No,Full-Time,Not Applicable
63d40481d12fc9cc4c1adab0,"<b>When people contradict my beliefs, I usually know about their evidence already.",Highly disagree,59/94,Somewhat disagree,2,1708007465468,1708007466679,\Somewhat disagree\,\Somewhat disagree\,\2\,1708007466025,1708007466025,557,557,1211,buq,qns-item-noham,59,404788,0.0-1.0-0.58,65ce1e8281197c75c2316f35,AWAITING REVIEW,2024-02-15T14:24:07.533000Z,2024-02-15T14:32:19.585000Z,,2024-02-15T14:32:20.137628Z,493.0,CVPIIDEI,1336,27,Male,White,United States,United States,United States,English,No,Full-Time,Not Applicable
63d40481d12fc9cc4c1adab0,<b>Figuring out what?s true and what?s false mainly requires a strong moral compass.,Highly disagree,60/94,Somewhat disagree,2,1708007466681,1708007467631,\Somewhat disagree\,\Somewhat disagree\,\2\,1708007467152,1708007467152,471,471,950,buq,qns-item-noham,60,405739,0.0-1.0-0.59,65ce1e8281197c75c2316f35,AWAITING REVIEW,2024-02-15T14:24:07.533000Z,2024-02-15T14:32:19.585000Z,,2024-02-15T14:32:20.137628Z,493.0,CVPIIDEI,1336,27,Male,White,United States,United States,United States,English,No,Full-Time,Not Applicable
63d40481d12fc9cc4c1adab0,"<b>Usually I?m wrong about simple things, not complicated ones.",Highly disagree,61/94,Highly disagree,1,1708007467632,1708007468895,\Highly disagree\,\Highly disagree\,\1\,1708007468327,1708007468327,695,695,1263,buq,qns-item-noham,61,407003,0.0-1.0-0.60,65ce1e8281197c75c2316f35,AWAITING REVIEW,2024-02-15T14:24:07.533000Z,2024-02-15T14:32:19.585000Z,,2024-02-15T14:32:20.137628Z,493.0,CVPIIDEI,1336,27,Male,White,United States,United States,United States,English,No,Full-Time,Not Applicable
63d40481d12fc9cc4c1adab0,<b>Getting all the information I want about important things is hard.,Highly disagree,62/94,Somewhat disagree,2,1708007468896,1708007469944,\Somewhat disagree\,\Somewhat disagree\,\2\,1708007469527,1708007469527,631,631,1048,buq,qns-item-noham,62,408052,0.0-1.0-0.61,65ce1e8281197c75c2316f35,AWAITING REVIEW,2024-02-15T14:24:07.533000Z,2024-02-15T14:32:19.585000Z,,2024-02-15T14:32:20.137628Z,493.0,CVPIIDEI,1336,27,Male,White,United States,United States,United States,English,No,Full-Time,Not Applicable
63d40481d12fc9cc4c1adab0,<b>Most false beliefs spread because people try to deceive one another.,Highly disagree,63/94,Highly disagree,1,1708007469945,1708007470985,\Highly disagree\,\Highly disagree\,\1\,1708007470529,1708007470529,584,584,1040,buq,qns-item-noham,63,409093,0.0-1.0-0.62,65ce1e8281197c75c2316f35,AWAITING REVIEW,2024-02-15T14:24:07.533000Z,2024-02-15T14:32:19.585000Z,,2024-02-15T14:32:20.137628Z,493.0,CVPIIDEI,1336,27,Male,White,United States,United States,United States,English,No,Full-Time,Not Applicable
63d40481d12fc9cc4c1adab0,<b>I can usually find something to agree with in most people?s beliefs.,Highly disagree,64/94,Somewhat disagree,2,1708007470987,1708007472072,\Somewhat disagree\,\Somewhat disagree\,\2\,1708007471648,1708007471648,661,661,1085,buq,qns-item-noham,64,410180,0.0-1.0-0.63,65ce1e8281197c75c2316f35,AWAITING REVIEW,2024-02-15T14:24:07.533000Z,2024-02-15T14:32:19.585000Z,,2024-02-15T14:32:20.137628Z,493.0,CVPIIDEI,1336,27,Male,White,United States,United States,United States,English,No,Full-Time,Not Applicable
63d40481d12fc9cc4c1adab0,<b>I only form my views of people once I get to know them very well.,Highly disagree,65/94,Highly disagree,1,1708007472073,1708007473200,\Highly disagree\,\Highly disagree\,\1\,1708007472633,1708007472633,560,560,1127,buq,qns-item-noham,65,411308,0.0-1.0-0.64,65ce1e8281197c75c2316f35,AWAITING REVIEW,2024-02-15T14:24:07.533000Z,2024-02-15T14:32:19.585000Z,,2024-02-15T14:32:20.137628Z,493.0,CVPIIDEI,1336,27,Male,White,United States,United States,United States,English,No,Full-Time,Not Applicable
63d40481d12fc9cc4c1adab0,"<b>When people tell me important things about the world, I usually believe them.",Highly disagree,66/94,Somewhat agree,3,1708007473202,1708007475256,\Somewhat agree\,\Somewhat agree\,\3\,1708007474314,1708007474314,1112,1112,2054,buq,qns-item-noham,66,413364,0.0-1.0-0.65,65ce1e8281197c75c2316f35,AWAITING REVIEW,2024-02-15T14:24:07.533000Z,2024-02-15T14:32:19.585000Z,,2024-02-15T14:32:20.137628Z,493.0,CVPIIDEI,1336,27,Male,White,United States,United States,United States,English,No,Full-Time,Not Applicable
63d40481d12fc9cc4c1adab0,"<b>If a friend does something that upsets me, it reminds me what an unpredictable place the world is.",Highly disagree,67/94,Somewhat disagree,2,1708007475257,1708007476552,\Somewhat disagree\,\Somewhat disagree\,\2\,1708007475961,1708007475961,704,704,1295,buq,qns-item-noham,67,414660,0.0-1.0-0.66,65ce1e8281197c75c2316f35,AWAITING REVIEW,2024-02-15T14:24:07.533000Z,2024-02-15T14:32:19.585000Z,,2024-02-15T14:32:20.137628Z,493.0,CVPIIDEI,1336,27,Male,White,United States,United States,United States,English,No,Full-Time,Not Applicable
63d40481d12fc9cc4c1adab0,<b>People tend to believe whatever is good for their friends.,Highly disagree,68/94,Somewhat disagree,2,1708007476553,1708007477697,\Somewhat disagree\,\Somewhat disagree\,\2\,1708007477312,1708007477312,759,759,1144,buq,qns-item-noham,68,415805,0.0-1.0-0.67,65ce1e8281197c75c2316f35,AWAITING REVIEW,2024-02-15T14:24:07.533000Z,2024-02-15T14:32:19.585000Z,,2024-02-15T14:32:20.137628Z,493.0,CVPIIDEI,1336,27,Male,White,United States,United States,United States,English,No,Full-Time,Not Applicable
63d40481d12fc9cc4c1adab0,<b>I used to be more certain my beliefs were true.,Highly disagree,69/94,Somewhat agree,3,1708007477698,1708007479002,\Somewhat agree\,\Somewhat agree\,\3\,1708007478561,1708007478561,863,863,1304,buq,qns-item-noham,69,417110,0.0-1.0-0.68,65ce1e8281197c75c2316f35,AWAITING REVIEW,2024-02-15T14:24:07.533000Z,2024-02-15T14:32:19.585000Z,,2024-02-15T14:32:20.137628Z,493.0,CVPIIDEI,1336,27,Male,White,United States,United States,United States,English,No,Full-Time,Not Applicable
63d40481d12fc9cc4c1adab0,<b>It?s often pretty easy to figure out whether something is true based on who said it.,Highly disagree,70/94,Somewhat agree,3,1708007479004,1708007481073,\Somewhat agree\,\Somewhat agree\,\3\,1708007480737,1708007480737,1733,1733,2069,buq,qns-item-noham,70,419181,0.0-1.0-0.69,65ce1e8281197c75c2316f35,AWAITING REVIEW,2024-02-15T14:24:07.533000Z,2024-02-15T14:32:19.585000Z,,2024-02-15T14:32:20.137628Z,493.0,CVPIIDEI,1336,27,Male,White,United States,United States,United States,English,No,Full-Time,Not Applicable
63d40481d12fc9cc4c1adab0,<b>I transform into a hummingbird every day.,Highly disagree,71/94,Highly disagree,1,1708007481075,1708007483489,\Highly disagree\,\Highly disagree\,\1\,1708007482770,1708007482770,1695,1695,2414,buq,qns-item-noham,71,421597,0.0-1.0-0.70,65ce1e8281197c75c2316f35,AWAITING REVIEW,2024-02-15T14:24:07.533000Z,2024-02-15T14:32:19.585000Z,,2024-02-15T14:32:20.137628Z,493.0,CVPIIDEI,1336,27,Male,White,United States,United States,United States,English,No,Full-Time,Not Applicable
63d40481d12fc9cc4c1adab0,<b>I think a lot about arguments against my views.,Highly disagree,72/94,Somewhat agree,3,1708007483490,1708007484818,\Somewhat agree\,\Somewhat agree\,\3\,1708007484425,1708007484425,935,935,1328,buq,qns-item-noham,72,422926,0.0-1.0-0.71,65ce1e8281197c75c2316f35,AWAITING REVIEW,2024-02-15T14:24:07.533000Z,2024-02-15T14:32:19.585000Z,,2024-02-15T14:32:20.137628Z,493.0,CVPIIDEI,1336,27,Male,White,United States,United States,United States,English,No,Full-Time,Not Applicable
63d40481d12fc9cc4c1adab0,<b>Personal experience is usually more important than facts and figures.,Highly disagree,73/94,Somewhat agree,3,1708007484819,1708007486483,\Somewhat agree\,\Somewhat agree\,\3\,1708007485298,1708007485298,479,479,1664,buq,qns-item-noham,73,424591,0.0-1.0-0.72,65ce1e8281197c75c2316f35,AWAITING REVIEW,2024-02-15T14:24:07.533000Z,2024-02-15T14:32:19.585000Z,,2024-02-15T14:32:20.137628Z,493.0,CVPIIDEI,1336,27,Male,White,United States,United States,United States,English,No,Full-Time,Not Applicable
63d40481d12fc9cc4c1adab0,<b>I?ve been tricked before about important matters.,Highly disagree,74/94,Somewhat disagree,2,1708007486485,1708007487723,\Somewhat disagree\,\Somewhat disagree\,\2\,1708007486778,1708007486778,293,293,1238,buq,qns-item-noham,74,425831,0.0-1.0-0.73,65ce1e8281197c75c2316f35,AWAITING REVIEW,2024-02-15T14:24:07.533000Z,2024-02-15T14:32:19.585000Z,,2024-02-15T14:32:20.137628Z,493.0,CVPIIDEI,1336,27,Male,White,United States,United States,United States,English,No,Full-Time,Not Applicable
63d40481d12fc9cc4c1adab0,<b>I would need to be totally wowed if I were to change my opinion of a restaurant I don?t like.,Highly disagree,75/94,Somewhat agree,3,1708007487724,1708007489130,\Somewhat agree\,\Somewhat agree\,\3\,1708007488282,1708007488282,558,558,1406,buq,qns-item-noham,75,427238,0.0-1.0-0.74,65ce1e8281197c75c2316f35,AWAITING REVIEW,2024-02-15T14:24:07.533000Z,2024-02-15T14:32:19.585000Z,,2024-02-15T14:32:20.137628Z,493.0,CVPIIDEI,1336,27,Male,White,United States,United States,United States,English,No,Full-Time,Not Applicable
63d40481d12fc9cc4c1adab0,<b>I care a lot about politics.,Highly disagree,76/94,Somewhat agree,3,1708007489131,1708007490290,\Somewhat agree\,\Somewhat agree\,\3\,1708007489890,1708007489890,759,759,1159,buq,qns-item-noham,76,428398,0.0-1.0-0.75,65ce1e8281197c75c2316f35,AWAITING REVIEW,2024-02-15T14:24:07.533000Z,2024-02-15T14:32:19.585000Z,,2024-02-15T14:32:20.137628Z,493.0,CVPIIDEI,1336,27,Male,White,United States,United States,United States,English,No,Full-Time,Not Applicable
63d40481d12fc9cc4c1adab0,<b>There are some topics I?ve been really wrong about.,Highly disagree,77/94,Somewhat disagree,2,1708007490291,1708007492011,\Somewhat disagree\,\Somewhat disagree\,\2\,1708007491612,1708007491612,1321,1321,1720,buq,qns-item-noham,77,430119,0.0-1.0-0.76,65ce1e8281197c75c2316f35,AWAITING REVIEW,2024-02-15T14:24:07.533000Z,2024-02-15T14:32:19.585000Z,,2024-02-15T14:32:20.137628Z,493.0,CVPIIDEI,1336,27,Male,White,United States,United States,United States,English,No,Full-Time,Not Applicable
63d40481d12fc9cc4c1adab0,<b>Most beliefs can be supported with at least some evidence.,Highly disagree,78/94,Somewhat agree,3,1708007492013,1708007493052,\Somewhat agree\,\Somewhat agree\,\3\,1708007492538,1708007492538,525,525,1039,buq,qns-item-noham,78,431160,0.0-1.0-0.77,65ce1e8281197c75c2316f35,AWAITING REVIEW,2024-02-15T14:24:07.533000Z,2024-02-15T14:32:19.585000Z,,2024-02-15T14:32:20.137628Z,493.0,CVPIIDEI,1336,27,Male,White,United States,United States,United States,English,No,Full-Time,Not Applicable
63d40481d12fc9cc4c1adab0,<b>Other people make life out to be more complicated than it really is.,Highly disagree,79/94,Somewhat disagree,2,1708007493053,1708007494163,\Somewhat disagree\,\Somewhat disagree\,\2\,1708007493691,1708007493691,638,638,1110,buq,qns-item-noham,79,432271,0.0-1.0-0.78,65ce1e8281197c75c2316f35,AWAITING REVIEW,2024-02-15T14:24:07.533000Z,2024-02-15T14:32:19.585000Z,,2024-02-15T14:32:20.137628Z,493.0,CVPIIDEI,1336,27,Male,White,United States,United States,United States,English,No,Full-Time,Not Applicable
63d40481d12fc9cc4c1adab0,"<b>Policy details don?t matter much, just the big picture.",Highly disagree,80/94,Somewhat disagree,2,1708007494165,1708007495170,\Somewhat disagree\,\Somewhat disagree\,\2\,1708007494644,1708007494644,479,479,1005,buq,qns-item-noham,80,433278,0.0-1.0-0.79,65ce1e8281197c75c2316f35,AWAITING REVIEW,2024-02-15T14:24:07.533000Z,2024-02-15T14:32:19.585000Z,,2024-02-15T14:32:20.137628Z,493.0,CVPIIDEI,1336,27,Male,White,United States,United States,United States,English,No,Full-Time,Not Applicable
63d40481d12fc9cc4c1adab0,<b>I know my friends so well they can hardly ever surprise me.,Highly disagree,81/94,Somewhat disagree,2,1708007495171,1708007496995,\Somewhat disagree\,\Somewhat disagree\,\2\,1708007495644,1708007495644,473,473,1824,buq,qns-item-noham,81,435103,0.0-1.0-0.80,65ce1e8281197c75c2316f35,AWAITING REVIEW,2024-02-15T14:24:07.533000Z,2024-02-15T14:32:19.585000Z,,2024-02-15T14:32:20.137628Z,493.0,CVPIIDEI,1336,27,Male,White,United States,United States,United States,English,No,Full-Time,Not Applicable
63d40481d12fc9cc4c1adab0,<b>I do not often change my views on people.,Highly disagree,82/94,Somewhat agree,3,1708007496997,1708007498980,\Somewhat agree\,\Somewhat agree\,\3\,1708007498411,1708007498411,1414,1414,1983,buq,qns-item-noham,82,437088,0.0-1.0-0.81,65ce1e8281197c75c2316f35,AWAITING REVIEW,2024-02-15T14:24:07.533000Z,2024-02-15T14:32:19.585000Z,,2024-02-15T14:32:20.137628Z,493.0,CVPIIDEI,1336,27,Male,White,United States,United States,United States,English,No,Full-Time,Not Applicable
63d40481d12fc9cc4c1adab0,<b>I?m more certain about my beliefs than I used to be.,Highly disagree,83/94,Highly agree,4,1708007498981,1708007501316,\Somewhat disagree\,\Highly agree\,\2\,1708007499900,1708007500787,919,1806,2335,buq,qns-item-noham,83,439424,0.0-1.0-0.82,65ce1e8281197c75c2316f35,AWAITING REVIEW,2024-02-15T14:24:07.533000Z,2024-02-15T14:32:19.585000Z,,2024-02-15T14:32:20.137628Z,493.0,CVPIIDEI,1336,27,Male,White,United States,United States,United States,English,No,Full-Time,Not Applicable
63d40481d12fc9cc4c1adab0,<b>People often tell falsehoods unintentionally.,Highly disagree,84/94,Somewhat agree,3,1708007501317,1708007502820,\Somewhat agree\,\Somewhat agree\,\3\,1708007502317,1708007502317,1000,1000,1503,buq,qns-item-noham,84,440928,0.0-1.0-0.83,65ce1e8281197c75c2316f35,AWAITING REVIEW,2024-02-15T14:24:07.533000Z,2024-02-15T14:32:19.585000Z,,2024-02-15T14:32:20.137628Z,493.0,CVPIIDEI,1336,27,Male,White,United States,United States,United States,English,No,Full-Time,Not Applicable
63d40481d12fc9cc4c1adab0,<b>Most people don?t know much about most things.,Highly disagree,85/94,Somewhat disagree,2,1708007502822,1708007504221,\Somewhat disagree\,\Somewhat disagree\,\2\,1708007503477,1708007503477,655,655,1399,buq,qns-item-noham,85,442329,0.0-1.0-0.84,65ce1e8281197c75c2316f35,AWAITING REVIEW,2024-02-15T14:24:07.533000Z,2024-02-15T14:32:19.585000Z,,2024-02-15T14:32:20.137628Z,493.0,CVPIIDEI,1336,27,Male,White,United States,United States,United States,English,No,Full-Time,Not Applicable
63d40481d12fc9cc4c1adab0,"<b>If I find out something new about someone, I easily change my views about them.",Highly disagree,86/94,Somewhat disagree,2,1708007504223,1708007505765,\Somewhat disagree\,\Somewhat disagree\,\2\,1708007505348,1708007505348,1125,1125,1542,buq,qns-item-noham,86,443873,0.0-1.0-0.85,65ce1e8281197c75c2316f35,AWAITING REVIEW,2024-02-15T14:24:07.533000Z,2024-02-15T14:32:19.585000Z,,2024-02-15T14:32:20.137628Z,493.0,CVPIIDEI,1336,27,Male,White,United States,United States,United States,English,No,Full-Time,Not Applicable
63d40481d12fc9cc4c1adab0,<b>Having true beliefs is difficult.,Highly disagree,87/94,Somewhat disagree,2,1708007505766,1708007507461,\Somewhat disagree\,\Somewhat disagree\,\2\,1708007506469,1708007506469,703,703,1695,buq,qns-item-noham,87,445569,0.0-1.0-0.86,65ce1e8281197c75c2316f35,AWAITING REVIEW,2024-02-15T14:24:07.533000Z,2024-02-15T14:32:19.585000Z,,2024-02-15T14:32:20.137628Z,493.0,CVPIIDEI,1336,27,Male,White,United States,United States,United States,English,No,Full-Time,Not Applicable
63d40481d12fc9cc4c1adab0,<b>I don?t try new foods since I know I won?t like them.,Highly disagree,88/94,Somewhat agree,3,1708007507462,1708007508836,\Somewhat agree\,\Somewhat agree\,\3\,1708007508421,1708007508421,959,959,1374,buq,qns-item-noham,88,446944,0.0-1.0-0.87,65ce1e8281197c75c2316f35,AWAITING REVIEW,2024-02-15T14:24:07.533000Z,2024-02-15T14:32:19.585000Z,,2024-02-15T14:32:20.137628Z,493.0,CVPIIDEI,1336,27,Male,White,United States,United States,United States,English,No,Full-Time,Not Applicable
63d40481d12fc9cc4c1adab0,<b>Other people trick each other a lot.,Highly disagree,89/94,Highly agree,4,1708007508838,1708007510366,\Highly agree\,\Highly agree\,\4\,1708007509942,1708007509942,1104,1104,1528,buq,qns-item-noham,89,448474,0.0-1.0-0.88,65ce1e8281197c75c2316f35,AWAITING REVIEW,2024-02-15T14:24:07.533000Z,2024-02-15T14:32:19.585000Z,,2024-02-15T14:32:20.137628Z,493.0,CVPIIDEI,1336,27,Male,White,United States,United States,United States,English,No,Full-Time,Not Applicable
63d40481d12fc9cc4c1adab0,<b>I would need to learn a lot about a person for my opinion of them to be swayed.,Highly disagree,90/94,Somewhat agree,3,1708007510368,1708007511517,\Somewhat agree\,\Somewhat agree\,\3\,1708007510974,1708007510974,606,606,1149,buq,qns-item-noham,90,449625,0.0-1.0-0.89,65ce1e8281197c75c2316f35,AWAITING REVIEW,2024-02-15T14:24:07.533000Z,2024-02-15T14:32:19.585000Z,,2024-02-15T14:32:20.137628Z,493.0,CVPIIDEI,1336,27,Male,White,United States,United States,United States,English,No,Full-Time,Not Applicable
63d40481d12fc9cc4c1adab0,<b>People can?t usually trick me when it comes to topics I care about.,Highly disagree,91/94,Somewhat disagree,2,1708007511519,1708007512758,\Somewhat disagree\,\Somewhat disagree\,\2\,1708007512373,1708007512373,854,854,1239,buq,qns-item-noham,91,450866,0.0-1.0-0.90,65ce1e8281197c75c2316f35,AWAITING REVIEW,2024-02-15T14:24:07.533000Z,2024-02-15T14:32:19.585000Z,,2024-02-15T14:32:20.137628Z,493.0,CVPIIDEI,1336,27,Male,White,United States,United States,United States,English,No,Full-Time,Not Applicable
63d40481d12fc9cc4c1adab0,<b>I do not often change my views on food.,Highly disagree,92/94,Somewhat disagree,2,1708007512759,1708007514486,\Somewhat disagree\,\Somewhat disagree\,\2\,1708007514046,1708007514046,1287,1287,1727,buq,qns-item-noham,92,452594,0.0-1.0-0.91,65ce1e8281197c75c2316f35,AWAITING REVIEW,2024-02-15T14:24:07.533000Z,2024-02-15T14:32:19.585000Z,,2024-02-15T14:32:20.137628Z,493.0,CVPIIDEI,1336,27,Male,White,United States,United States,United States,English,No,Full-Time,Not Applicable
63d40481d12fc9cc4c1adab0,<b>Specific policies are often very important to me.,Highly disagree,93/94,Highly agree,4,1708007514488,1708007516720,\Highly agree\,\Highly agree\,\4\,1708007516270,1708007516270,1782,1782,2232,buq,qns-item-noham,93,454828,0.0-1.0-0.92,65ce1e8281197c75c2316f35,AWAITING REVIEW,2024-02-15T14:24:07.533000Z,2024-02-15T14:32:19.585000Z,,2024-02-15T14:32:20.137628Z,493.0,CVPIIDEI,1336,27,Male,White,United States,United States,United States,English,No,Full-Time,Not Applicable
63d40481d12fc9cc4c1adab0,<b>Most people are woefully under-informed.,Highly disagree,94/94,Highly agree,4,1708007516721,1708007519384,\Highly agree\,\Highly agree\,\4\,1708007518773,1708007518773,2052,2052,2663,buq,qns-item-noham,94,457492,0.0-1.0-0.93,65ce1e8281197c75c2316f35,AWAITING REVIEW,2024-02-15T14:24:07.533000Z,2024-02-15T14:32:19.585000Z,,2024-02-15T14:32:20.137628Z,493.0,CVPIIDEI,1336,27,Male,White,United States,United States,United States,English,No,Full-Time,Not Applicable
63d40481d12fc9cc4c1adab0,,,,,,,,,,,,,,,,,,,,,65ce1e8281197c75c2316f35,AWAITING REVIEW,2024-02-15T14:24:07.533000Z,2024-02-15T14:32:19.585000Z,,2024-02-15T14:32:20.137628Z,493.0,CVPIIDEI,1336,27,Male,White,United States,United States,United States,English,No,Full-Time,Not Applicable
