PROLIFIC_PID,Question,qns_options,quest_num,answer,answer_num,question_load_timestamp,next_btn_timestamp,text_selected,final_text_selected,option_num_selected,preview_timestamps,final_text_selected_time_stamp,rt_first_option_click,rt_final_option_click,rt_submit_click,questionnaire,trial_type,trial_index,time_elapsed,internal_node_id,Demographic_Submission id,Demographic_Status,Demographic_Started at,Demographic_Completed at,Demographic_Reviewed at,Demographic_Archived at,Demographic_Time taken,Demographic_Completion code,Demographic_Total approvals,Demographic_Age,Demographic_Sex,Demographic_Ethnicity simplified,Demographic_Country of birth,Demographic_Country of residence,Demographic_Nationality,Demographic_Language,Demographic_Student status,Demographic_Employment status,Demographic_Custom study tncs accepted at
5f91ad1383e7f604b18ae4cb,<b>Knowing what?s true and knowing what to do about it are usually basically the same.,Highly disagree,1/94,Somewhat disagree,2,1708007149787,1708007157903,\Somewhat disagree\,\Somewhat disagree\,\2\,1708007156933,1708007156933,7146,7146,8116,buq,qns-item-noham,1,15254,0.0-1.0-0.0,65ce1ecb19d5f8847e385522,AWAITING REVIEW,2024-02-15T14:25:21.572000Z,2024-02-15T14:34:34.019000Z,,2024-02-15T14:34:34.599003Z,553.0,CVPIIDEI,1179,26,Male,White,United States,United States,United States,English,No,Full-Time,Not Applicable
5f91ad1383e7f604b18ae4cb,<b>Most people just believe whatever is convenient for them.,Highly disagree,2/94,Somewhat agree,3,1708007157910,1708007164632,\Somewhat agree\,\Somewhat agree\,\3\,1708007163820,1708007163820,5910,5910,6722,buq,qns-item-noham,2,21984,0.0-1.0-0.1,65ce1ecb19d5f8847e385522,AWAITING REVIEW,2024-02-15T14:25:21.572000Z,2024-02-15T14:34:34.019000Z,,2024-02-15T14:34:34.599003Z,553.0,CVPIIDEI,1179,26,Male,White,United States,United States,United States,English,No,Full-Time,Not Applicable
5f91ad1383e7f604b18ae4cb,<b>Having some big beliefs helps me sort out minor ones.,Highly disagree,3/94,Highly agree,4,1708007164635,1708007167596,\Highly agree\,\Highly agree\,\4\,1708007167010,1708007167010,2375,2375,2961,buq,qns-item-noham,3,24947,0.0-1.0-0.2,65ce1ecb19d5f8847e385522,AWAITING REVIEW,2024-02-15T14:25:21.572000Z,2024-02-15T14:34:34.019000Z,,2024-02-15T14:34:34.599003Z,553.0,CVPIIDEI,1179,26,Male,White,United States,United States,United States,English,No,Full-Time,Not Applicable
5f91ad1383e7f604b18ae4cb,<b>Political questions are usually pretty complicated.,Highly disagree,4/94,Somewhat agree,3,1708007167598,1708007171668,\Somewhat agree\,\Somewhat agree\,\3\,1708007170504,1708007170504,2906,2906,4070,buq,qns-item-noham,4,29019,0.0-1.0-0.3,65ce1ecb19d5f8847e385522,AWAITING REVIEW,2024-02-15T14:25:21.572000Z,2024-02-15T14:34:34.019000Z,,2024-02-15T14:34:34.599003Z,553.0,CVPIIDEI,1179,26,Male,White,United States,United States,United States,English,No,Full-Time,Not Applicable
5f91ad1383e7f604b18ae4cb,<b>Figuring out what?s important in life requires learning a lot of facts.,Highly disagree,5/94,Somewhat agree,3,1708007171671,1708007174710,\Somewhat agree\,\Somewhat agree\,\3\,1708007174118,1708007174118,2447,2447,3039,buq,qns-item-noham,5,32061,0.0-1.0-0.4,65ce1ecb19d5f8847e385522,AWAITING REVIEW,2024-02-15T14:25:21.572000Z,2024-02-15T14:34:34.019000Z,,2024-02-15T14:34:34.599003Z,553.0,CVPIIDEI,1179,26,Male,White,United States,United States,United States,English,No,Full-Time,Not Applicable
5f91ad1383e7f604b18ae4cb,<b>It is difficult for me to remember the last time I was surprised by politics.,Highly disagree,6/94,Highly disagree,1,1708007174713,1708007180588,\Highly disagree\,\Highly disagree\,\1\,1708007179736,1708007179736,5023,5023,5875,buq,qns-item-noham,6,37939,0.0-1.0-0.5,65ce1ecb19d5f8847e385522,AWAITING REVIEW,2024-02-15T14:25:21.572000Z,2024-02-15T14:34:34.019000Z,,2024-02-15T14:34:34.599003Z,553.0,CVPIIDEI,1179,26,Male,White,United States,United States,United States,English,No,Full-Time,Not Applicable
5f91ad1383e7f604b18ae4cb,<b>People?s false beliefs are understandable.,Highly disagree,7/94,Somewhat agree,3,1708007180591,1708007185818,\Somewhat disagree\,\Somewhat agree\,\2\,1708007183082,1708007185224,2491,4633,5227,buq,qns-item-noham,7,43169,0.0-1.0-0.6,65ce1ecb19d5f8847e385522,AWAITING REVIEW,2024-02-15T14:25:21.572000Z,2024-02-15T14:34:34.019000Z,,2024-02-15T14:34:34.599003Z,553.0,CVPIIDEI,1179,26,Male,White,United States,United States,United States,English,No,Full-Time,Not Applicable
5f91ad1383e7f604b18ae4cb,<b>I spend a lot of time trying to be informed about politics.,Highly disagree,8/94,Somewhat agree,3,1708007185821,1708007188726,\Somewhat agree\,\Somewhat agree\,\3\,1708007187718,1708007187718,1897,1897,2905,buq,qns-item-noham,8,46077,0.0-1.0-0.7,65ce1ecb19d5f8847e385522,AWAITING REVIEW,2024-02-15T14:25:21.572000Z,2024-02-15T14:34:34.019000Z,,2024-02-15T14:34:34.599003Z,553.0,CVPIIDEI,1179,26,Male,White,United States,United States,United States,English,No,Full-Time,Not Applicable
5f91ad1383e7f604b18ae4cb,<b>I think a lot about whether my beliefs are right.,Highly disagree,9/94,Highly agree,4,1708007188729,1708007192142,\Highly agree\,\Highly agree\,\4\,1708007191470,1708007191470,2741,2741,3413,buq,qns-item-noham,9,49493,0.0-1.0-0.8,65ce1ecb19d5f8847e385522,AWAITING REVIEW,2024-02-15T14:25:21.572000Z,2024-02-15T14:34:34.019000Z,,2024-02-15T14:34:34.599003Z,553.0,CVPIIDEI,1179,26,Male,White,United States,United States,United States,English,No,Full-Time,Not Applicable
5f91ad1383e7f604b18ae4cb,<b>Statistics can be pretty misleading sometimes.,Highly disagree,10/94,Highly agree,4,1708007192145,1708007195558,\Highly agree\,\Highly agree\,\4\,1708007194792,1708007194792,2647,2647,3413,buq,qns-item-noham,10,52909,0.0-1.0-0.9,65ce1ecb19d5f8847e385522,AWAITING REVIEW,2024-02-15T14:25:21.572000Z,2024-02-15T14:34:34.019000Z,,2024-02-15T14:34:34.599003Z,553.0,CVPIIDEI,1179,26,Male,White,United States,United States,United States,English,No,Full-Time,Not Applicable
5f91ad1383e7f604b18ae4cb,<b>I have lots of beliefs that I?m only sort of sure about.,Highly disagree,11/94,Somewhat disagree,2,1708007195561,1708007201656,\Somewhat agree\,\Somewhat disagree\,\3\,1708007198256,1708007200952,2695,5391,6095,buq,qns-item-noham,11,59007,0.0-1.0-0.10,65ce1ecb19d5f8847e385522,AWAITING REVIEW,2024-02-15T14:25:21.572000Z,2024-02-15T14:34:34.019000Z,,2024-02-15T14:34:34.599003Z,553.0,CVPIIDEI,1179,26,Male,White,United States,United States,United States,English,No,Full-Time,Not Applicable
5f91ad1383e7f604b18ae4cb,"<b>If I go to my favorite restaurant and the food is surprisingly bad, it reminds me there are many disappointments in life.",Highly disagree,12/94,Somewhat disagree,2,1708007201658,1708007208308,\Somewhat agree\,\Somewhat disagree\,\3\,1708007205800,1708007207589,4142,5931,6650,buq,qns-item-noham,12,65659,0.0-1.0-0.11,65ce1ecb19d5f8847e385522,AWAITING REVIEW,2024-02-15T14:25:21.572000Z,2024-02-15T14:34:34.019000Z,,2024-02-15T14:34:34.599003Z,553.0,CVPIIDEI,1179,26,Male,White,United States,United States,United States,English,No,Full-Time,Not Applicable
5f91ad1383e7f604b18ae4cb,"<b>If you are paying attention, please select ?Somewhat agree?",Highly disagree,13/94,Somewhat agree,3,1708007208309,1708007210097,\Somewhat agree\,\Somewhat agree\,\3\,1708007209589,1708007209589,1280,1280,1788,buq,qns-item-noham,13,67449,0.0-1.0-0.12,65ce1ecb19d5f8847e385522,AWAITING REVIEW,2024-02-15T14:25:21.572000Z,2024-02-15T14:34:34.019000Z,,2024-02-15T14:34:34.599003Z,553.0,CVPIIDEI,1179,26,Male,White,United States,United States,United States,English,No,Full-Time,Not Applicable
5f91ad1383e7f604b18ae4cb,"<b>When I talk to others, I often worry I?ll convince them of something I didn?t mean to.",Highly disagree,14/94,Somewhat disagree,2,1708007210101,1708007216416,\Somewhat disagree\,\Somewhat disagree\,\2\,1708007215860,1708007215860,5759,5759,6315,buq,qns-item-noham,14,73767,0.0-1.0-0.13,65ce1ecb19d5f8847e385522,AWAITING REVIEW,2024-02-15T14:25:21.572000Z,2024-02-15T14:34:34.019000Z,,2024-02-15T14:34:34.599003Z,553.0,CVPIIDEI,1179,26,Male,White,United States,United States,United States,English,No,Full-Time,Not Applicable
5f91ad1383e7f604b18ae4cb,<b>I would need to learn something utterly shocking about my party in order to change my political views.,Highly disagree,15/94,Highly agree,4,1708007216419,1708007221495,\Highly agree\,\Highly agree\,\4\,1708007220848,1708007220848,4429,4429,5076,buq,qns-item-noham,15,78847,0.0-1.0-0.14,65ce1ecb19d5f8847e385522,AWAITING REVIEW,2024-02-15T14:25:21.572000Z,2024-02-15T14:34:34.019000Z,,2024-02-15T14:34:34.599003Z,553.0,CVPIIDEI,1179,26,Male,White,United States,United States,United States,English,No,Full-Time,Not Applicable
5f91ad1383e7f604b18ae4cb,"<b>When I have new experiences, I tend to think of them as unique.",Highly disagree,16/94,Somewhat agree,3,1708007221498,1708007229658,\Somewhat agree\,\Somewhat agree\,\3\,1708007227524,1708007227524,6026,6026,8160,buq,qns-item-noham,16,87009,0.0-1.0-0.15,65ce1ecb19d5f8847e385522,AWAITING REVIEW,2024-02-15T14:25:21.572000Z,2024-02-15T14:34:34.019000Z,,2024-02-15T14:34:34.599003Z,553.0,CVPIIDEI,1179,26,Male,White,United States,United States,United States,English,No,Full-Time,Not Applicable
5f91ad1383e7f604b18ae4cb,<b>I change my mind about specific policies pretty frequently.,Highly disagree,17/94,Highly disagree,1,1708007229659,1708007233224,\Highly disagree\,\Highly disagree\,\1\,1708007232683,1708007232683,3024,3024,3565,buq,qns-item-noham,17,90575,0.0-1.0-0.16,65ce1ecb19d5f8847e385522,AWAITING REVIEW,2024-02-15T14:25:21.572000Z,2024-02-15T14:34:34.019000Z,,2024-02-15T14:34:34.599003Z,553.0,CVPIIDEI,1179,26,Male,White,United States,United States,United States,English,No,Full-Time,Not Applicable
5f91ad1383e7f604b18ae4cb,"<b>If a politician in my political party supports something I disagree with, I give them the benefit of the doubt, as such issues often involve hidden complexities that aren?t obvious.   ",Highly disagree,18/94,Somewhat disagree,2,1708007233226,1708007246858,\Somewhat disagree\,\Somewhat disagree\,\2\,1708007242035,1708007242035,8809,8809,13632,buq,qns-item-noham,18,104209,0.0-1.0-0.17,65ce1ecb19d5f8847e385522,AWAITING REVIEW,2024-02-15T14:25:21.572000Z,2024-02-15T14:34:34.019000Z,,2024-02-15T14:34:34.599003Z,553.0,CVPIIDEI,1179,26,Male,White,United States,United States,United States,English,No,Full-Time,Not Applicable
5f91ad1383e7f604b18ae4cb,<b>People?s bad politics are usually motivated by hatefulness.,Highly disagree,19/94,Somewhat disagree,2,1708007246859,1708007253730,\Somewhat disagree\,\Somewhat disagree\,\2\,1708007252378,1708007252378,5519,5519,6871,buq,qns-item-noham,19,111081,0.0-1.0-0.18,65ce1ecb19d5f8847e385522,AWAITING REVIEW,2024-02-15T14:25:21.572000Z,2024-02-15T14:34:34.019000Z,,2024-02-15T14:34:34.599003Z,553.0,CVPIIDEI,1179,26,Male,White,United States,United States,United States,English,No,Full-Time,Not Applicable
5f91ad1383e7f604b18ae4cb,<b>I think a lot about how to reconcile my beliefs with one another.,Highly disagree,20/94,Somewhat disagree,2,1708007253731,1708007257614,\Somewhat disagree\,\Somewhat disagree\,\2\,1708007256965,1708007256965,3234,3234,3883,buq,qns-item-noham,20,114965,0.0-1.0-0.19,65ce1ecb19d5f8847e385522,AWAITING REVIEW,2024-02-15T14:25:21.572000Z,2024-02-15T14:34:34.019000Z,,2024-02-15T14:34:34.599003Z,553.0,CVPIIDEI,1179,26,Male,White,United States,United States,United States,English,No,Full-Time,Not Applicable
5f91ad1383e7f604b18ae4cb,<b>I might have false beliefs about important topics.,Highly disagree,21/94,Highly disagree,1,1708007257616,1708007262164,\Highly disagree\,\Highly disagree\,\1\,1708007261618,1708007261618,4002,4002,4548,buq,qns-item-noham,21,119515,0.0-1.0-0.20,65ce1ecb19d5f8847e385522,AWAITING REVIEW,2024-02-15T14:25:21.572000Z,2024-02-15T14:34:34.019000Z,,2024-02-15T14:34:34.599003Z,553.0,CVPIIDEI,1179,26,Male,White,United States,United States,United States,English,No,Full-Time,Not Applicable
5f91ad1383e7f604b18ae4cb,"<b>If a good friend of mine does something unexpected that upsets me, I feel like I don?t know them anymore.",Highly disagree,22/94,Somewhat disagree,2,1708007262166,1708007270544,\Somewhat disagree\,\Somewhat disagree\,\2\,1708007268590,1708007268590,6424,6424,8378,buq,qns-item-noham,22,127895,0.0-1.0-0.21,65ce1ecb19d5f8847e385522,AWAITING REVIEW,2024-02-15T14:25:21.572000Z,2024-02-15T14:34:34.019000Z,,2024-02-15T14:34:34.599003Z,553.0,CVPIIDEI,1179,26,Male,White,United States,United States,United States,English,No,Full-Time,Not Applicable
5f91ad1383e7f604b18ae4cb,<b>Other people?s beliefs are often incoherent.,Highly disagree,23/94,Somewhat agree,3,1708007270545,1708007275992,\Somewhat agree\,\Somewhat agree\,\3\,1708007274577,1708007274577,4032,4032,5447,buq,qns-item-noham,23,133343,0.0-1.0-0.22,65ce1ecb19d5f8847e385522,AWAITING REVIEW,2024-02-15T14:25:21.572000Z,2024-02-15T14:34:34.019000Z,,2024-02-15T14:34:34.599003Z,553.0,CVPIIDEI,1179,26,Male,White,United States,United States,United States,English,No,Full-Time,Not Applicable
5f91ad1383e7f604b18ae4cb,"<b>Every now and then, a new experience will unsettle beliefs I?ve had for a while.",Highly disagree,24/94,Somewhat disagree,2,1708007275993,1708007281010,\Somewhat disagree\,\Somewhat disagree\,\2\,1708007279744,1708007279744,3751,3751,5017,buq,qns-item-noham,24,138361,0.0-1.0-0.23,65ce1ecb19d5f8847e385522,AWAITING REVIEW,2024-02-15T14:25:21.572000Z,2024-02-15T14:34:34.019000Z,,2024-02-15T14:34:34.599003Z,553.0,CVPIIDEI,1179,26,Male,White,United States,United States,United States,English,No,Full-Time,Not Applicable
5f91ad1383e7f604b18ae4cb,<b>Some policies I agree with in principle are so bad I don?t support them. ,Highly disagree,25/94,Somewhat disagree,2,1708007281011,1708007292955,\Somewhat disagree\,\Somewhat disagree\,\2\,1708007292329,1708007292329,11318,11318,11944,buq,qns-item-noham,25,150307,0.0-1.0-0.24,65ce1ecb19d5f8847e385522,AWAITING REVIEW,2024-02-15T14:25:21.572000Z,2024-02-15T14:34:34.019000Z,,2024-02-15T14:34:34.599003Z,553.0,CVPIIDEI,1179,26,Male,White,United States,United States,United States,English,No,Full-Time,Not Applicable
5f91ad1383e7f604b18ae4cb,<b>I?m pretty sure I?ve accidentally spread false information.,Highly disagree,26/94,Somewhat disagree,2,1708007292957,1708007295966,\Somewhat disagree\,\Somewhat disagree\,\2\,1708007295379,1708007295379,2422,2422,3009,buq,qns-item-noham,26,153317,0.0-1.0-0.25,65ce1ecb19d5f8847e385522,AWAITING REVIEW,2024-02-15T14:25:21.572000Z,2024-02-15T14:34:34.019000Z,,2024-02-15T14:34:34.599003Z,553.0,CVPIIDEI,1179,26,Male,White,United States,United States,United States,English,No,Full-Time,Not Applicable
5f91ad1383e7f604b18ae4cb,"<b>If I go to my favorite restaurant and the food is unexpectedly bad, then they have changed owners.",Highly disagree,27/94,Somewhat disagree,2,1708007295968,1708007302703,\Somewhat disagree\,\Somewhat disagree\,\2\,1708007302171,1708007302171,6203,6203,6735,buq,qns-item-noham,27,160055,0.0-1.0-0.26,65ce1ecb19d5f8847e385522,AWAITING REVIEW,2024-02-15T14:25:21.572000Z,2024-02-15T14:34:34.019000Z,,2024-02-15T14:34:34.599003Z,553.0,CVPIIDEI,1179,26,Male,White,United States,United States,United States,English,No,Full-Time,Not Applicable
5f91ad1383e7f604b18ae4cb,"<b>In politics, it?s important to trust your friends and family.",Highly disagree,28/94,Somewhat agree,3,1708007302705,1708007306230,\Somewhat agree\,\Somewhat agree\,\3\,1708007305423,1708007305423,2718,2718,3525,buq,qns-item-noham,28,163581,0.0-1.0-0.27,65ce1ecb19d5f8847e385522,AWAITING REVIEW,2024-02-15T14:25:21.572000Z,2024-02-15T14:34:34.019000Z,,2024-02-15T14:34:34.599003Z,553.0,CVPIIDEI,1179,26,Male,White,United States,United States,United States,English,No,Full-Time,Not Applicable
5f91ad1383e7f604b18ae4cb,<b>It?s OK to have some conflicting beliefs.,Highly disagree,29/94,Somewhat agree,3,1708007306233,1708007308480,\Somewhat agree\,\Somewhat agree\,\3\,1708007307950,1708007307950,1717,1717,2247,buq,qns-item-noham,29,165831,0.0-1.0-0.28,65ce1ecb19d5f8847e385522,AWAITING REVIEW,2024-02-15T14:25:21.572000Z,2024-02-15T14:34:34.019000Z,,2024-02-15T14:34:34.599003Z,553.0,CVPIIDEI,1179,26,Male,White,United States,United States,United States,English,No,Full-Time,Not Applicable
5f91ad1383e7f604b18ae4cb,<b>Listening to people I disagree with makes my opinions better.,Highly disagree,30/94,Somewhat agree,3,1708007308482,1708007315556,\Somewhat agree\,\Somewhat agree\,\3\,1708007312498,1708007312498,4016,4016,7074,buq,qns-item-noham,30,172907,0.0-1.0-0.29,65ce1ecb19d5f8847e385522,AWAITING REVIEW,2024-02-15T14:25:21.572000Z,2024-02-15T14:34:34.019000Z,,2024-02-15T14:34:34.599003Z,553.0,CVPIIDEI,1179,26,Male,White,United States,United States,United States,English,No,Full-Time,Not Applicable
5f91ad1383e7f604b18ae4cb,<b>My moral compass sometimes makes it harder to determine what?s true.,Highly disagree,31/94,Highly disagree,1,1708007315557,1708007320800,\Highly disagree\,\Highly disagree\,\1\,1708007320089,1708007320089,4532,4532,5243,buq,qns-item-noham,31,178151,0.0-1.0-0.30,65ce1ecb19d5f8847e385522,AWAITING REVIEW,2024-02-15T14:25:21.572000Z,2024-02-15T14:34:34.019000Z,,2024-02-15T14:34:34.599003Z,553.0,CVPIIDEI,1179,26,Male,White,United States,United States,United States,English,No,Full-Time,Not Applicable
5f91ad1383e7f604b18ae4cb,<b>Evidence pointing in the wrong direction isn?t really evidence at all.,Highly disagree,32/94,Somewhat disagree,2,1708007320803,1708007324685,\Somewhat disagree\,\Somewhat disagree\,\2\,1708007324223,1708007324223,3420,3420,3882,buq,qns-item-noham,32,182036,0.0-1.0-0.31,65ce1ecb19d5f8847e385522,AWAITING REVIEW,2024-02-15T14:25:21.572000Z,2024-02-15T14:34:34.019000Z,,2024-02-15T14:34:34.599003Z,553.0,CVPIIDEI,1179,26,Male,White,United States,United States,United States,English,No,Full-Time,Not Applicable
5f91ad1383e7f604b18ae4cb,"<b>If the political party I support messes up, it makes me think politics is rotten.",Highly disagree,33/94,Somewhat agree,3,1708007324687,1708007331174,\Somewhat agree\,\Somewhat agree\,\3\,1708007330360,1708007330360,5673,5673,6487,buq,qns-item-noham,33,188525,0.0-1.0-0.32,65ce1ecb19d5f8847e385522,AWAITING REVIEW,2024-02-15T14:25:21.572000Z,2024-02-15T14:34:34.019000Z,,2024-02-15T14:34:34.599003Z,553.0,CVPIIDEI,1179,26,Male,White,United States,United States,United States,English,No,Full-Time,Not Applicable
5f91ad1383e7f604b18ae4cb,<b>Lots of important topics can only really be understood by some groups of people.,Highly disagree,34/94,Somewhat agree,3,1708007331175,1708007335620,\Somewhat agree\,\Somewhat agree\,\3\,1708007334870,1708007334870,3695,3695,4445,buq,qns-item-noham,34,192971,0.0-1.0-0.33,65ce1ecb19d5f8847e385522,AWAITING REVIEW,2024-02-15T14:25:21.572000Z,2024-02-15T14:34:34.019000Z,,2024-02-15T14:34:34.599003Z,553.0,CVPIIDEI,1179,26,Male,White,United States,United States,United States,English,No,Full-Time,Not Applicable
5f91ad1383e7f604b18ae4cb,<b>Having conflicting beliefs means you haven?t thought about them enough.,Highly disagree,35/94,Somewhat disagree,2,1708007335622,1708007338834,\Somewhat disagree\,\Somewhat disagree\,\2\,1708007338318,1708007338318,2696,2696,3212,buq,qns-item-noham,35,196185,0.0-1.0-0.34,65ce1ecb19d5f8847e385522,AWAITING REVIEW,2024-02-15T14:25:21.572000Z,2024-02-15T14:34:34.019000Z,,2024-02-15T14:34:34.599003Z,553.0,CVPIIDEI,1179,26,Male,White,United States,United States,United States,English,No,Full-Time,Not Applicable
5f91ad1383e7f604b18ae4cb,<b>I do not often change my political opinions.,Highly disagree,36/94,Somewhat agree,3,1708007338836,1708007341296,\Somewhat agree\,\Somewhat agree\,\3\,1708007340748,1708007340748,1912,1912,2460,buq,qns-item-noham,36,198647,0.0-1.0-0.35,65ce1ecb19d5f8847e385522,AWAITING REVIEW,2024-02-15T14:25:21.572000Z,2024-02-15T14:34:34.019000Z,,2024-02-15T14:34:34.599003Z,553.0,CVPIIDEI,1179,26,Male,White,United States,United States,United States,English,No,Full-Time,Not Applicable
5f91ad1383e7f604b18ae4cb,<b>It?s difficult to not have at least some conflicting beliefs.,Highly disagree,37/94,Somewhat agree,3,1708007341299,1708007343718,\Somewhat agree\,\Somewhat agree\,\3\,1708007343258,1708007343258,1959,1959,2419,buq,qns-item-noham,37,201069,0.0-1.0-0.36,65ce1ecb19d5f8847e385522,AWAITING REVIEW,2024-02-15T14:25:21.572000Z,2024-02-15T14:34:34.019000Z,,2024-02-15T14:34:34.599003Z,553.0,CVPIIDEI,1179,26,Male,White,United States,United States,United States,English,No,Full-Time,Not Applicable
5f91ad1383e7f604b18ae4cb,<b>Wishful thinking causes a lot of problems.,Highly disagree,38/94,Somewhat agree,3,1708007343720,1708007348690,\Somewhat agree\,\Somewhat agree\,\3\,1708007346384,1708007346384,2664,2664,4970,buq,qns-item-noham,38,206041,0.0-1.0-0.37,65ce1ecb19d5f8847e385522,AWAITING REVIEW,2024-02-15T14:25:21.572000Z,2024-02-15T14:34:34.019000Z,,2024-02-15T14:34:34.599003Z,553.0,CVPIIDEI,1179,26,Male,White,United States,United States,United States,English,No,Full-Time,Not Applicable
5f91ad1383e7f604b18ae4cb,<b>I judge a food item only once I try it many times.,Highly disagree,39/94,Somewhat disagree,2,1708007348692,1708007354428,\Somewhat disagree\,\Somewhat disagree\,\2\,1708007353888,1708007353888,5196,5196,5736,buq,qns-item-noham,39,211779,0.0-1.0-0.38,65ce1ecb19d5f8847e385522,AWAITING REVIEW,2024-02-15T14:25:21.572000Z,2024-02-15T14:34:34.019000Z,,2024-02-15T14:34:34.599003Z,553.0,CVPIIDEI,1179,26,Male,White,United States,United States,United States,English,No,Full-Time,Not Applicable
5f91ad1383e7f604b18ae4cb,"<b>When a person holds conflicting beliefs, they should really try to figure out what?s wrong.",Highly disagree,40/94,Somewhat agree,3,1708007354430,1708007360658,\Somewhat agree\,\Somewhat agree\,\3\,1708007359938,1708007359938,5508,5508,6228,buq,qns-item-noham,40,218009,0.0-1.0-0.39,65ce1ecb19d5f8847e385522,AWAITING REVIEW,2024-02-15T14:25:21.572000Z,2024-02-15T14:34:34.019000Z,,2024-02-15T14:34:34.599003Z,553.0,CVPIIDEI,1179,26,Male,White,United States,United States,United States,English,No,Full-Time,Not Applicable
5f91ad1383e7f604b18ae4cb,<b>Knowing what?s important in life is easy.,Highly disagree,41/94,Highly disagree,1,1708007360659,1708007363792,\Somewhat disagree\,\Highly disagree\,\2\,1708007362738,1708007363276,2079,2617,3133,buq,qns-item-noham,41,221143,0.0-1.0-0.40,65ce1ecb19d5f8847e385522,AWAITING REVIEW,2024-02-15T14:25:21.572000Z,2024-02-15T14:34:34.019000Z,,2024-02-15T14:34:34.599003Z,553.0,CVPIIDEI,1179,26,Male,White,United States,United States,United States,English,No,Full-Time,Not Applicable
5f91ad1383e7f604b18ae4cb,<b>I swim across the Atlantic Ocean to get to work every day.,Highly disagree,42/94,Highly disagree,1,1708007363793,1708007367662,\Highly disagree\,\Highly disagree\,\1\,1708007366716,1708007366716,2923,2923,3869,buq,qns-item-noham,42,225013,0.0-1.0-0.41,65ce1ecb19d5f8847e385522,AWAITING REVIEW,2024-02-15T14:25:21.572000Z,2024-02-15T14:34:34.019000Z,,2024-02-15T14:34:34.599003Z,553.0,CVPIIDEI,1179,26,Male,White,United States,United States,United States,English,No,Full-Time,Not Applicable
5f91ad1383e7f604b18ae4cb,"<b>Sometimes, you just have to ignore evidence that you know is wrong.",Highly disagree,43/94,Somewhat disagree,2,1708007367665,1708007372242,\Somewhat disagree\,\Somewhat disagree\,\2\,1708007371696,1708007371696,4031,4031,4577,buq,qns-item-noham,43,229593,0.0-1.0-0.42,65ce1ecb19d5f8847e385522,AWAITING REVIEW,2024-02-15T14:25:21.572000Z,2024-02-15T14:34:34.019000Z,,2024-02-15T14:34:34.599003Z,553.0,CVPIIDEI,1179,26,Male,White,United States,United States,United States,English,No,Full-Time,Not Applicable
5f91ad1383e7f604b18ae4cb,<b>I have had some false beliefs.,Highly disagree,44/94,Somewhat agree,3,1708007372243,1708007375236,\Somewhat agree\,\Somewhat agree\,\3\,1708007374110,1708007374110,1867,1867,2993,buq,qns-item-noham,44,232587,0.0-1.0-0.43,65ce1ecb19d5f8847e385522,AWAITING REVIEW,2024-02-15T14:25:21.572000Z,2024-02-15T14:34:34.019000Z,,2024-02-15T14:34:34.599003Z,553.0,CVPIIDEI,1179,26,Male,White,United States,United States,United States,English,No,Full-Time,Not Applicable
5f91ad1383e7f604b18ae4cb,"<b>If one friend does something that upsets me, I sometimes start to distrust people in general.",Highly disagree,45/94,Somewhat disagree,2,1708007375238,1708007381998,\Somewhat disagree\,\Somewhat disagree\,\2\,1708007381146,1708007381146,5908,5908,6760,buq,qns-item-noham,45,239349,0.0-1.0-0.44,65ce1ecb19d5f8847e385522,AWAITING REVIEW,2024-02-15T14:25:21.572000Z,2024-02-15T14:34:34.019000Z,,2024-02-15T14:34:34.599003Z,553.0,CVPIIDEI,1179,26,Male,White,United States,United States,United States,English,No,Full-Time,Not Applicable
5f91ad1383e7f604b18ae4cb,<b>The facts about most important matters are easy to find.,Highly disagree,46/94,Somewhat disagree,2,1708007382000,1708007387462,\Somewhat disagree\,\Somewhat disagree\,\2\,1708007386204,1708007386204,4204,4204,5462,buq,qns-item-noham,46,244813,0.0-1.0-0.45,65ce1ecb19d5f8847e385522,AWAITING REVIEW,2024-02-15T14:25:21.572000Z,2024-02-15T14:34:34.019000Z,,2024-02-15T14:34:34.599003Z,553.0,CVPIIDEI,1179,26,Male,White,United States,United States,United States,English,No,Full-Time,Not Applicable
5f91ad1383e7f604b18ae4cb,<b>It?s better to know what?s true than to know what?s moral.,Highly disagree,47/94,Somewhat agree,3,1708007387464,1708007395168,\Somewhat agree\,\Somewhat agree\,\3\,1708007394643,1708007394643,7179,7179,7704,buq,qns-item-noham,47,252519,0.0-1.0-0.46,65ce1ecb19d5f8847e385522,AWAITING REVIEW,2024-02-15T14:25:21.572000Z,2024-02-15T14:34:34.019000Z,,2024-02-15T14:34:34.599003Z,553.0,CVPIIDEI,1179,26,Male,White,United States,United States,United States,English,No,Full-Time,Not Applicable
5f91ad1383e7f604b18ae4cb,<b>I used to think the world was less complicated than I do now.,Highly disagree,48/94,Somewhat agree,3,1708007395169,1708007400514,\Somewhat disagree\,\Somewhat agree\,\2\,1708007398489,1708007399998,3320,4829,5345,buq,qns-item-noham,48,257865,0.0-1.0-0.47,65ce1ecb19d5f8847e385522,AWAITING REVIEW,2024-02-15T14:25:21.572000Z,2024-02-15T14:34:34.019000Z,,2024-02-15T14:34:34.599003Z,553.0,CVPIIDEI,1179,26,Male,White,United States,United States,United States,English,No,Full-Time,Not Applicable
5f91ad1383e7f604b18ae4cb,<b>People are usually completely right or completely wrong.,Highly disagree,49/94,Highly disagree,1,1708007400515,1708007404460,\Highly disagree\,\Highly disagree\,\1\,1708007403616,1708007403616,3101,3101,3945,buq,qns-item-noham,49,261811,0.0-1.0-0.48,65ce1ecb19d5f8847e385522,AWAITING REVIEW,2024-02-15T14:25:21.572000Z,2024-02-15T14:34:34.019000Z,,2024-02-15T14:34:34.599003Z,553.0,CVPIIDEI,1179,26,Male,White,United States,United States,United States,English,No,Full-Time,Not Applicable
5f91ad1383e7f604b18ae4cb,<b>I spend a lot of time considering alternatives to my beliefs.,Highly disagree,50/94,Somewhat disagree,2,1708007404463,1708007407994,\Somewhat disagree\,\Somewhat disagree\,\2\,1708007407485,1708007407485,3022,3022,3531,buq,qns-item-noham,50,265345,0.0-1.0-0.49,65ce1ecb19d5f8847e385522,AWAITING REVIEW,2024-02-15T14:25:21.572000Z,2024-02-15T14:34:34.019000Z,,2024-02-15T14:34:34.599003Z,553.0,CVPIIDEI,1179,26,Male,White,United States,United States,United States,English,No,Full-Time,Not Applicable
5f91ad1383e7f604b18ae4cb,"<b>Political enemies need to be defeated, not convinced.",Highly disagree,51/94,Somewhat agree,3,1708007407996,1708007413692,\Somewhat disagree\,\Somewhat agree\,\2\,1708007411745,1708007412778,3749,4782,5696,buq,qns-item-noham,51,271043,0.0-1.0-0.50,65ce1ecb19d5f8847e385522,AWAITING REVIEW,2024-02-15T14:25:21.572000Z,2024-02-15T14:34:34.019000Z,,2024-02-15T14:34:34.599003Z,553.0,CVPIIDEI,1179,26,Male,White,United States,United States,United States,English,No,Full-Time,Not Applicable
5f91ad1383e7f604b18ae4cb,<b>I form my political views only after meticulously gathering historical and present information about their policies.,Highly disagree,52/94,Somewhat agree,3,1708007413693,1708007419470,\Somewhat agree\,\Somewhat agree\,\3\,1708007418664,1708007418664,4971,4971,5777,buq,qns-item-noham,52,276821,0.0-1.0-0.51,65ce1ecb19d5f8847e385522,AWAITING REVIEW,2024-02-15T14:25:21.572000Z,2024-02-15T14:34:34.019000Z,,2024-02-15T14:34:34.599003Z,553.0,CVPIIDEI,1179,26,Male,White,United States,United States,United States,English,No,Full-Time,Not Applicable
5f91ad1383e7f604b18ae4cb,<b>It is difficult for me to remember the last time I was surprised by politics.,Highly disagree,53/94,Somewhat disagree,2,1708007419471,1708007424144,\Somewhat disagree\,\Somewhat disagree\,\2\,1708007422496,1708007422496,3025,3025,4673,buq,qns-item-noham,53,281495,0.0-1.0-0.52,65ce1ecb19d5f8847e385522,AWAITING REVIEW,2024-02-15T14:25:21.572000Z,2024-02-15T14:34:34.019000Z,,2024-02-15T14:34:34.599003Z,553.0,CVPIIDEI,1179,26,Male,White,United States,United States,United States,English,No,Full-Time,Not Applicable
5f91ad1383e7f604b18ae4cb,"<b>When I find out I?m wrong, I think a lot about my related beliefs.",Highly disagree,54/94,Somewhat agree,3,1708007424145,1708007429710,\Somewhat agree\,\Somewhat agree\,\3\,1708007429100,1708007429100,4955,4955,5565,buq,qns-item-noham,54,287061,0.0-1.0-0.53,65ce1ecb19d5f8847e385522,AWAITING REVIEW,2024-02-15T14:25:21.572000Z,2024-02-15T14:34:34.019000Z,,2024-02-15T14:34:34.599003Z,553.0,CVPIIDEI,1179,26,Male,White,United States,United States,United States,English,No,Full-Time,Not Applicable
5f91ad1383e7f604b18ae4cb,"<b>If the political party I support messes up, it makes me think you can?t trust anyone these days",Highly disagree,55/94,Somewhat disagree,2,1708007429712,1708007435948,\Somewhat disagree\,\Somewhat disagree\,\2\,1708007434580,1708007434580,4868,4868,6236,buq,qns-item-noham,55,293299,0.0-1.0-0.54,65ce1ecb19d5f8847e385522,AWAITING REVIEW,2024-02-15T14:25:21.572000Z,2024-02-15T14:34:34.019000Z,,2024-02-15T14:34:34.599003Z,553.0,CVPIIDEI,1179,26,Male,White,United States,United States,United States,English,No,Full-Time,Not Applicable
5f91ad1383e7f604b18ae4cb,<b>People?s brains turn off when they talk about politics.,Highly disagree,56/94,Highly agree,4,1708007435950,1708007439230,\Highly agree\,\Highly agree\,\4\,1708007438713,1708007438713,2763,2763,3280,buq,qns-item-noham,56,296581,0.0-1.0-0.55,65ce1ecb19d5f8847e385522,AWAITING REVIEW,2024-02-15T14:25:21.572000Z,2024-02-15T14:34:34.019000Z,,2024-02-15T14:34:34.599003Z,553.0,CVPIIDEI,1179,26,Male,White,United States,United States,United States,English,No,Full-Time,Not Applicable
5f91ad1383e7f604b18ae4cb,<b>People who are wrong are usually just ignoring the obvious.,Highly disagree,57/94,Somewhat disagree,2,1708007439231,1708007444952,\Somewhat agree\,\Somewhat disagree\,\3\,1708007442654,1708007444309,3423,5078,5721,buq,qns-item-noham,57,302303,0.0-1.0-0.56,65ce1ecb19d5f8847e385522,AWAITING REVIEW,2024-02-15T14:25:21.572000Z,2024-02-15T14:34:34.019000Z,,2024-02-15T14:34:34.599003Z,553.0,CVPIIDEI,1179,26,Male,White,United States,United States,United States,English,No,Full-Time,Not Applicable
5f91ad1383e7f604b18ae4cb,"<b>When forming my views on people, I rely more on what they are like now rather than rely on my past experience with them.",Highly disagree,58/94,Somewhat agree,3,1708007444954,1708007454402,\Somewhat agree\,\Somewhat agree\,\3\,1708007450961,1708007450961,6007,6007,9448,buq,qns-item-noham,58,311753,0.0-1.0-0.57,65ce1ecb19d5f8847e385522,AWAITING REVIEW,2024-02-15T14:25:21.572000Z,2024-02-15T14:34:34.019000Z,,2024-02-15T14:34:34.599003Z,553.0,CVPIIDEI,1179,26,Male,White,United States,United States,United States,English,No,Full-Time,Not Applicable
5f91ad1383e7f604b18ae4cb,"<b>When people contradict my beliefs, I usually know about their evidence already.",Highly disagree,59/94,Somewhat agree,3,1708007454404,1708007461029,\Somewhat agree\,\Somewhat agree\,\3\,1708007460232,1708007460232,5828,5828,6625,buq,qns-item-noham,59,318380,0.0-1.0-0.58,65ce1ecb19d5f8847e385522,AWAITING REVIEW,2024-02-15T14:25:21.572000Z,2024-02-15T14:34:34.019000Z,,2024-02-15T14:34:34.599003Z,553.0,CVPIIDEI,1179,26,Male,White,United States,United States,United States,English,No,Full-Time,Not Applicable
5f91ad1383e7f604b18ae4cb,<b>Figuring out what?s true and what?s false mainly requires a strong moral compass.,Highly disagree,60/94,Somewhat agree,3,1708007461031,1708007468134,\Somewhat agree\,\Somewhat agree\,\3\,1708007467618,1708007467618,6587,6587,7103,buq,qns-item-noham,60,325485,0.0-1.0-0.59,65ce1ecb19d5f8847e385522,AWAITING REVIEW,2024-02-15T14:25:21.572000Z,2024-02-15T14:34:34.019000Z,,2024-02-15T14:34:34.599003Z,553.0,CVPIIDEI,1179,26,Male,White,United States,United States,United States,English,No,Full-Time,Not Applicable
5f91ad1383e7f604b18ae4cb,"<b>Usually I?m wrong about simple things, not complicated ones.",Highly disagree,61/94,Somewhat agree,3,1708007468135,1708007473002,\Somewhat disagree\,\Somewhat agree\,\2\,1708007470502,1708007472136,2367,4001,4867,buq,qns-item-noham,61,330353,0.0-1.0-0.60,65ce1ecb19d5f8847e385522,AWAITING REVIEW,2024-02-15T14:25:21.572000Z,2024-02-15T14:34:34.019000Z,,2024-02-15T14:34:34.599003Z,553.0,CVPIIDEI,1179,26,Male,White,United States,United States,United States,English,No,Full-Time,Not Applicable
5f91ad1383e7f604b18ae4cb,<b>Getting all the information I want about important things is hard.,Highly disagree,62/94,Highly agree,4,1708007473004,1708007476130,\Highly agree\,\Highly agree\,\4\,1708007475692,1708007475692,2688,2688,3126,buq,qns-item-noham,62,333481,0.0-1.0-0.61,65ce1ecb19d5f8847e385522,AWAITING REVIEW,2024-02-15T14:25:21.572000Z,2024-02-15T14:34:34.019000Z,,2024-02-15T14:34:34.599003Z,553.0,CVPIIDEI,1179,26,Male,White,United States,United States,United States,English,No,Full-Time,Not Applicable
5f91ad1383e7f604b18ae4cb,<b>Most false beliefs spread because people try to deceive one another.,Highly disagree,63/94,Somewhat disagree,2,1708007476132,1708007480679,\Somewhat disagree\,\Somewhat disagree\,\2\,1708007479912,1708007479912,3780,3780,4547,buq,qns-item-noham,63,338030,0.0-1.0-0.62,65ce1ecb19d5f8847e385522,AWAITING REVIEW,2024-02-15T14:25:21.572000Z,2024-02-15T14:34:34.019000Z,,2024-02-15T14:34:34.599003Z,553.0,CVPIIDEI,1179,26,Male,White,United States,United States,United States,English,No,Full-Time,Not Applicable
5f91ad1383e7f604b18ae4cb,<b>I can usually find something to agree with in most people?s beliefs.,Highly disagree,64/94,Somewhat agree,3,1708007480681,1708007484282,\Somewhat agree\,\Somewhat agree\,\3\,1708007483742,1708007483742,3061,3061,3601,buq,qns-item-noham,64,341633,0.0-1.0-0.63,65ce1ecb19d5f8847e385522,AWAITING REVIEW,2024-02-15T14:25:21.572000Z,2024-02-15T14:34:34.019000Z,,2024-02-15T14:34:34.599003Z,553.0,CVPIIDEI,1179,26,Male,White,United States,United States,United States,English,No,Full-Time,Not Applicable
5f91ad1383e7f604b18ae4cb,<b>I only form my views of people once I get to know them very well.,Highly disagree,65/94,Somewhat agree,3,1708007484284,1708007491036,\Somewhat agree\,\Somewhat agree\,\3\,1708007489018,1708007489018,4734,4734,6752,buq,qns-item-noham,65,348387,0.0-1.0-0.64,65ce1ecb19d5f8847e385522,AWAITING REVIEW,2024-02-15T14:25:21.572000Z,2024-02-15T14:34:34.019000Z,,2024-02-15T14:34:34.599003Z,553.0,CVPIIDEI,1179,26,Male,White,United States,United States,United States,English,No,Full-Time,Not Applicable
5f91ad1383e7f604b18ae4cb,"<b>When people tell me important things about the world, I usually believe them.",Highly disagree,66/94,Somewhat agree,3,1708007491038,1708007495296,\Somewhat agree\,\Somewhat agree\,\3\,1708007494810,1708007494810,3772,3772,4258,buq,qns-item-noham,66,352647,0.0-1.0-0.65,65ce1ecb19d5f8847e385522,AWAITING REVIEW,2024-02-15T14:25:21.572000Z,2024-02-15T14:34:34.019000Z,,2024-02-15T14:34:34.599003Z,553.0,CVPIIDEI,1179,26,Male,White,United States,United States,United States,English,No,Full-Time,Not Applicable
5f91ad1383e7f604b18ae4cb,"<b>If a friend does something that upsets me, it reminds me what an unpredictable place the world is.",Highly disagree,67/94,Somewhat agree,3,1708007495298,1708007501836,\Somewhat agree\,\Somewhat agree\,\3\,1708007501274,1708007501274,5976,5976,6538,buq,qns-item-noham,67,359187,0.0-1.0-0.66,65ce1ecb19d5f8847e385522,AWAITING REVIEW,2024-02-15T14:25:21.572000Z,2024-02-15T14:34:34.019000Z,,2024-02-15T14:34:34.599003Z,553.0,CVPIIDEI,1179,26,Male,White,United States,United States,United States,English,No,Full-Time,Not Applicable
5f91ad1383e7f604b18ae4cb,<b>People tend to believe whatever is good for their friends.,Highly disagree,68/94,Somewhat agree,3,1708007501837,1708007505034,\Somewhat agree\,\Somewhat agree\,\3\,1708007504354,1708007504354,2517,2517,3197,buq,qns-item-noham,68,362385,0.0-1.0-0.67,65ce1ecb19d5f8847e385522,AWAITING REVIEW,2024-02-15T14:25:21.572000Z,2024-02-15T14:34:34.019000Z,,2024-02-15T14:34:34.599003Z,553.0,CVPIIDEI,1179,26,Male,White,United States,United States,United States,English,No,Full-Time,Not Applicable
5f91ad1383e7f604b18ae4cb,<b>I used to be more certain my beliefs were true.,Highly disagree,69/94,Somewhat disagree,2,1708007505035,1708007507730,\Somewhat disagree\,\Somewhat disagree\,\2\,1708007507230,1708007507230,2195,2195,2695,buq,qns-item-noham,69,365082,0.0-1.0-0.68,65ce1ecb19d5f8847e385522,AWAITING REVIEW,2024-02-15T14:25:21.572000Z,2024-02-15T14:34:34.019000Z,,2024-02-15T14:34:34.599003Z,553.0,CVPIIDEI,1179,26,Male,White,United States,United States,United States,English,No,Full-Time,Not Applicable
5f91ad1383e7f604b18ae4cb,<b>It?s often pretty easy to figure out whether something is true based on who said it.,Highly disagree,70/94,Somewhat agree,3,1708007507733,1708007513966,\Somewhat agree\,\Somewhat agree\,\3\,1708007513090,1708007513090,5357,5357,6233,buq,qns-item-noham,70,371317,0.0-1.0-0.69,65ce1ecb19d5f8847e385522,AWAITING REVIEW,2024-02-15T14:25:21.572000Z,2024-02-15T14:34:34.019000Z,,2024-02-15T14:34:34.599003Z,553.0,CVPIIDEI,1179,26,Male,White,United States,United States,United States,English,No,Full-Time,Not Applicable
5f91ad1383e7f604b18ae4cb,<b>I transform into a hummingbird every day.,Highly disagree,71/94,Highly disagree,1,1708007513968,1708007517224,\Highly disagree\,\Highly disagree\,\1\,1708007516208,1708007516208,2240,2240,3256,buq,qns-item-noham,71,374575,0.0-1.0-0.70,65ce1ecb19d5f8847e385522,AWAITING REVIEW,2024-02-15T14:25:21.572000Z,2024-02-15T14:34:34.019000Z,,2024-02-15T14:34:34.599003Z,553.0,CVPIIDEI,1179,26,Male,White,United States,United States,United States,English,No,Full-Time,Not Applicable
5f91ad1383e7f604b18ae4cb,<b>I think a lot about arguments against my views.,Highly disagree,72/94,Highly agree,4,1708007517226,1708007522813,\Highly agree\,\Highly agree\,\4\,1708007521842,1708007521842,4616,4616,5587,buq,qns-item-noham,72,380164,0.0-1.0-0.71,65ce1ecb19d5f8847e385522,AWAITING REVIEW,2024-02-15T14:25:21.572000Z,2024-02-15T14:34:34.019000Z,,2024-02-15T14:34:34.599003Z,553.0,CVPIIDEI,1179,26,Male,White,United States,United States,United States,English,No,Full-Time,Not Applicable
5f91ad1383e7f604b18ae4cb,<b>Personal experience is usually more important than facts and figures.,Highly disagree,73/94,Somewhat disagree,2,1708007522815,1708007525915,\Somewhat disagree\,\Somewhat disagree\,\2\,1708007525226,1708007525226,2411,2411,3100,buq,qns-item-noham,73,383266,0.0-1.0-0.72,65ce1ecb19d5f8847e385522,AWAITING REVIEW,2024-02-15T14:25:21.572000Z,2024-02-15T14:34:34.019000Z,,2024-02-15T14:34:34.599003Z,553.0,CVPIIDEI,1179,26,Male,White,United States,United States,United States,English,No,Full-Time,Not Applicable
5f91ad1383e7f604b18ae4cb,<b>I?ve been tricked before about important matters.,Highly disagree,74/94,Somewhat agree,3,1708007525917,1708007531134,\Somewhat disagree\,\Somewhat agree\,\2\,1708007529790,1708007530315,3873,4398,5217,buq,qns-item-noham,74,388485,0.0-1.0-0.73,65ce1ecb19d5f8847e385522,AWAITING REVIEW,2024-02-15T14:25:21.572000Z,2024-02-15T14:34:34.019000Z,,2024-02-15T14:34:34.599003Z,553.0,CVPIIDEI,1179,26,Male,White,United States,United States,United States,English,No,Full-Time,Not Applicable
5f91ad1383e7f604b18ae4cb,<b>I would need to be totally wowed if I were to change my opinion of a restaurant I don?t like.,Highly disagree,75/94,Somewhat agree,3,1708007531136,1708007536543,\Somewhat agree\,\Somewhat agree\,\3\,1708007535994,1708007535994,4858,4858,5407,buq,qns-item-noham,75,393894,0.0-1.0-0.74,65ce1ecb19d5f8847e385522,AWAITING REVIEW,2024-02-15T14:25:21.572000Z,2024-02-15T14:34:34.019000Z,,2024-02-15T14:34:34.599003Z,553.0,CVPIIDEI,1179,26,Male,White,United States,United States,United States,English,No,Full-Time,Not Applicable
5f91ad1383e7f604b18ae4cb,<b>I care a lot about politics.,Highly disagree,76/94,Somewhat agree,3,1708007536545,1708007540935,\Somewhat disagree\,\Somewhat agree\,\2\,1708007538464,1708007539832,1919,3287,4390,buq,qns-item-noham,76,398286,0.0-1.0-0.75,65ce1ecb19d5f8847e385522,AWAITING REVIEW,2024-02-15T14:25:21.572000Z,2024-02-15T14:34:34.019000Z,,2024-02-15T14:34:34.599003Z,553.0,CVPIIDEI,1179,26,Male,White,United States,United States,United States,English,No,Full-Time,Not Applicable
5f91ad1383e7f604b18ae4cb,<b>There are some topics I?ve been really wrong about.,Highly disagree,77/94,Somewhat agree,3,1708007540936,1708007543606,\Somewhat disagree\,\Somewhat agree\,\2\,1708007542464,1708007543028,1528,2092,2670,buq,qns-item-noham,77,400957,0.0-1.0-0.76,65ce1ecb19d5f8847e385522,AWAITING REVIEW,2024-02-15T14:25:21.572000Z,2024-02-15T14:34:34.019000Z,,2024-02-15T14:34:34.599003Z,553.0,CVPIIDEI,1179,26,Male,White,United States,United States,United States,English,No,Full-Time,Not Applicable
5f91ad1383e7f604b18ae4cb,<b>Most beliefs can be supported with at least some evidence.,Highly disagree,78/94,Highly agree,4,1708007543608,1708007547872,\Highly agree\,\Highly agree\,\4\,1708007547270,1708007547270,3662,3662,4264,buq,qns-item-noham,78,405223,0.0-1.0-0.77,65ce1ecb19d5f8847e385522,AWAITING REVIEW,2024-02-15T14:25:21.572000Z,2024-02-15T14:34:34.019000Z,,2024-02-15T14:34:34.599003Z,553.0,CVPIIDEI,1179,26,Male,White,United States,United States,United States,English,No,Full-Time,Not Applicable
5f91ad1383e7f604b18ae4cb,<b>Other people make life out to be more complicated than it really is.,Highly disagree,79/94,Somewhat disagree,2,1708007547874,1708007551679,\Somewhat disagree\,\Somewhat disagree\,\2\,1708007551038,1708007551038,3164,3164,3805,buq,qns-item-noham,79,409030,0.0-1.0-0.78,65ce1ecb19d5f8847e385522,AWAITING REVIEW,2024-02-15T14:25:21.572000Z,2024-02-15T14:34:34.019000Z,,2024-02-15T14:34:34.599003Z,553.0,CVPIIDEI,1179,26,Male,White,United States,United States,United States,English,No,Full-Time,Not Applicable
5f91ad1383e7f604b18ae4cb,"<b>Policy details don?t matter much, just the big picture.",Highly disagree,80/94,Somewhat disagree,2,1708007551682,1708007554336,\Somewhat disagree\,\Somewhat disagree\,\2\,1708007553843,1708007553843,2161,2161,2654,buq,qns-item-noham,80,411687,0.0-1.0-0.79,65ce1ecb19d5f8847e385522,AWAITING REVIEW,2024-02-15T14:25:21.572000Z,2024-02-15T14:34:34.019000Z,,2024-02-15T14:34:34.599003Z,553.0,CVPIIDEI,1179,26,Male,White,United States,United States,United States,English,No,Full-Time,Not Applicable
5f91ad1383e7f604b18ae4cb,<b>I know my friends so well they can hardly ever surprise me.,Highly disagree,81/94,Somewhat agree,3,1708007554338,1708007558484,\Somewhat agree\,\Somewhat agree\,\3\,1708007557939,1708007557939,3601,3601,4146,buq,qns-item-noham,81,415835,0.0-1.0-0.80,65ce1ecb19d5f8847e385522,AWAITING REVIEW,2024-02-15T14:25:21.572000Z,2024-02-15T14:34:34.019000Z,,2024-02-15T14:34:34.599003Z,553.0,CVPIIDEI,1179,26,Male,White,United States,United States,United States,English,No,Full-Time,Not Applicable
5f91ad1383e7f604b18ae4cb,<b>I do not often change my views on people.,Highly disagree,82/94,Somewhat agree,3,1708007558486,1708007560746,\Somewhat agree\,\Somewhat agree\,\3\,1708007560274,1708007560274,1788,1788,2260,buq,qns-item-noham,82,418097,0.0-1.0-0.81,65ce1ecb19d5f8847e385522,AWAITING REVIEW,2024-02-15T14:25:21.572000Z,2024-02-15T14:34:34.019000Z,,2024-02-15T14:34:34.599003Z,553.0,CVPIIDEI,1179,26,Male,White,United States,United States,United States,English,No,Full-Time,Not Applicable
5f91ad1383e7f604b18ae4cb,<b>I?m more certain about my beliefs than I used to be.,Highly disagree,83/94,Somewhat agree,3,1708007560748,1708007564730,\Somewhat agree\,\Somewhat agree\,\3\,1708007563182,1708007563182,2434,2434,3982,buq,qns-item-noham,83,422081,0.0-1.0-0.82,65ce1ecb19d5f8847e385522,AWAITING REVIEW,2024-02-15T14:25:21.572000Z,2024-02-15T14:34:34.019000Z,,2024-02-15T14:34:34.599003Z,553.0,CVPIIDEI,1179,26,Male,White,United States,United States,United States,English,No,Full-Time,Not Applicable
5f91ad1383e7f604b18ae4cb,<b>People often tell falsehoods unintentionally.,Highly disagree,84/94,Somewhat agree,3,1708007564732,1708007568254,\Somewhat agree\,\Somewhat agree\,\3\,1708007567746,1708007567746,3014,3014,3522,buq,qns-item-noham,84,425605,0.0-1.0-0.83,65ce1ecb19d5f8847e385522,AWAITING REVIEW,2024-02-15T14:25:21.572000Z,2024-02-15T14:34:34.019000Z,,2024-02-15T14:34:34.599003Z,553.0,CVPIIDEI,1179,26,Male,White,United States,United States,United States,English,No,Full-Time,Not Applicable
5f91ad1383e7f604b18ae4cb,<b>Most people don?t know much about most things.,Highly disagree,85/94,Highly agree,4,1708007568256,1708007571927,\Highly agree\,\Highly agree\,\4\,1708007571332,1708007571332,3076,3076,3671,buq,qns-item-noham,85,429278,0.0-1.0-0.84,65ce1ecb19d5f8847e385522,AWAITING REVIEW,2024-02-15T14:25:21.572000Z,2024-02-15T14:34:34.019000Z,,2024-02-15T14:34:34.599003Z,553.0,CVPIIDEI,1179,26,Male,White,United States,United States,United States,English,No,Full-Time,Not Applicable
5f91ad1383e7f604b18ae4cb,"<b>If I find out something new about someone, I easily change my views about them.",Highly disagree,86/94,Somewhat agree,3,1708007571929,1708007577030,\Somewhat agree\,\Somewhat agree\,\3\,1708007576358,1708007576358,4429,4429,5101,buq,qns-item-noham,86,434381,0.0-1.0-0.85,65ce1ecb19d5f8847e385522,AWAITING REVIEW,2024-02-15T14:25:21.572000Z,2024-02-15T14:34:34.019000Z,,2024-02-15T14:34:34.599003Z,553.0,CVPIIDEI,1179,26,Male,White,United States,United States,United States,English,No,Full-Time,Not Applicable
5f91ad1383e7f604b18ae4cb,<b>Having true beliefs is difficult.,Highly disagree,87/94,Highly disagree,1,1708007577032,1708007582524,\Highly disagree\,\Highly disagree\,\1\,1708007581960,1708007581960,4928,4928,5492,buq,qns-item-noham,87,439875,0.0-1.0-0.86,65ce1ecb19d5f8847e385522,AWAITING REVIEW,2024-02-15T14:25:21.572000Z,2024-02-15T14:34:34.019000Z,,2024-02-15T14:34:34.599003Z,553.0,CVPIIDEI,1179,26,Male,White,United States,United States,United States,English,No,Full-Time,Not Applicable
5f91ad1383e7f604b18ae4cb,<b>I don?t try new foods since I know I won?t like them.,Highly disagree,88/94,Somewhat disagree,2,1708007582526,1708007588118,\Somewhat disagree\,\Somewhat disagree\,\2\,1708007587532,1708007587532,5006,5006,5592,buq,qns-item-noham,88,445469,0.0-1.0-0.87,65ce1ecb19d5f8847e385522,AWAITING REVIEW,2024-02-15T14:25:21.572000Z,2024-02-15T14:34:34.019000Z,,2024-02-15T14:34:34.599003Z,553.0,CVPIIDEI,1179,26,Male,White,United States,United States,United States,English,No,Full-Time,Not Applicable
5f91ad1383e7f604b18ae4cb,<b>Other people trick each other a lot.,Highly disagree,89/94,Somewhat agree,3,1708007588120,1708007590628,\Somewhat agree\,\Somewhat agree\,\3\,1708007590088,1708007590088,1968,1968,2508,buq,qns-item-noham,89,447979,0.0-1.0-0.88,65ce1ecb19d5f8847e385522,AWAITING REVIEW,2024-02-15T14:25:21.572000Z,2024-02-15T14:34:34.019000Z,,2024-02-15T14:34:34.599003Z,553.0,CVPIIDEI,1179,26,Male,White,United States,United States,United States,English,No,Full-Time,Not Applicable
5f91ad1383e7f604b18ae4cb,<b>I would need to learn a lot about a person for my opinion of them to be swayed.,Highly disagree,90/94,Somewhat agree,3,1708007590631,1708007596951,\Somewhat agree\,\Somewhat agree\,\3\,1708007596513,1708007596513,5882,5882,6320,buq,qns-item-noham,90,454302,0.0-1.0-0.89,65ce1ecb19d5f8847e385522,AWAITING REVIEW,2024-02-15T14:25:21.572000Z,2024-02-15T14:34:34.019000Z,,2024-02-15T14:34:34.599003Z,553.0,CVPIIDEI,1179,26,Male,White,United States,United States,United States,English,No,Full-Time,Not Applicable
5f91ad1383e7f604b18ae4cb,<b>People can?t usually trick me when it comes to topics I care about.,Highly disagree,91/94,Somewhat agree,3,1708007596952,1708007600553,\Somewhat agree\,\Somewhat agree\,\3\,1708007599872,1708007599872,2920,2920,3601,buq,qns-item-noham,91,457904,0.0-1.0-0.90,65ce1ecb19d5f8847e385522,AWAITING REVIEW,2024-02-15T14:25:21.572000Z,2024-02-15T14:34:34.019000Z,,2024-02-15T14:34:34.599003Z,553.0,CVPIIDEI,1179,26,Male,White,United States,United States,United States,English,No,Full-Time,Not Applicable
5f91ad1383e7f604b18ae4cb,<b>I do not often change my views on food.,Highly disagree,92/94,Somewhat agree,3,1708007600555,1708007603499,\Somewhat agree\,\Somewhat agree\,\3\,1708007602609,1708007602609,2054,2054,2944,buq,qns-item-noham,92,460850,0.0-1.0-0.91,65ce1ecb19d5f8847e385522,AWAITING REVIEW,2024-02-15T14:25:21.572000Z,2024-02-15T14:34:34.019000Z,,2024-02-15T14:34:34.599003Z,553.0,CVPIIDEI,1179,26,Male,White,United States,United States,United States,English,No,Full-Time,Not Applicable
5f91ad1383e7f604b18ae4cb,<b>Specific policies are often very important to me.,Highly disagree,93/94,Somewhat agree,3,1708007603501,1708007606022,\Somewhat agree\,\Somewhat agree\,\3\,1708007605452,1708007605452,1951,1951,2521,buq,qns-item-noham,93,463373,0.0-1.0-0.92,65ce1ecb19d5f8847e385522,AWAITING REVIEW,2024-02-15T14:25:21.572000Z,2024-02-15T14:34:34.019000Z,,2024-02-15T14:34:34.599003Z,553.0,CVPIIDEI,1179,26,Male,White,United States,United States,United States,English,No,Full-Time,Not Applicable
5f91ad1383e7f604b18ae4cb,<b>Most people are woefully under-informed.,Highly disagree,94/94,Highly agree,4,1708007606024,1708007608915,\Highly agree\,\Highly agree\,\4\,1708007608108,1708007608108,2084,2084,2891,buq,qns-item-noham,94,466266,0.0-1.0-0.93,65ce1ecb19d5f8847e385522,AWAITING REVIEW,2024-02-15T14:25:21.572000Z,2024-02-15T14:34:34.019000Z,,2024-02-15T14:34:34.599003Z,553.0,CVPIIDEI,1179,26,Male,White,United States,United States,United States,English,No,Full-Time,Not Applicable
5f91ad1383e7f604b18ae4cb,,,,,,,,,,,,,,,,,,,,,65ce1ecb19d5f8847e385522,AWAITING REVIEW,2024-02-15T14:25:21.572000Z,2024-02-15T14:34:34.019000Z,,2024-02-15T14:34:34.599003Z,553.0,CVPIIDEI,1179,26,Male,White,United States,United States,United States,English,No,Full-Time,Not Applicable
