PROLIFIC_PID,Question,qns_options,quest_num,answer,answer_num,question_load_timestamp,next_btn_timestamp,text_selected,final_text_selected,option_num_selected,preview_timestamps,final_text_selected_time_stamp,rt_first_option_click,rt_final_option_click,rt_submit_click,questionnaire,trial_type,trial_index,time_elapsed,internal_node_id,Demographic_Submission id,Demographic_Status,Demographic_Started at,Demographic_Completed at,Demographic_Reviewed at,Demographic_Archived at,Demographic_Time taken,Demographic_Completion code,Demographic_Total approvals,Demographic_Age,Demographic_Sex,Demographic_Ethnicity simplified,Demographic_Country of birth,Demographic_Country of residence,Demographic_Nationality,Demographic_Language,Demographic_Student status,Demographic_Employment status,Demographic_Custom study tncs accepted at
5f4fdba442d1a7110ae00343,<b>Knowing what?s true and knowing what to do about it are usually basically the same.,Highly disagree,1/94,Somewhat disagree,2,1708007081403,1708007090356,\Somewhat disagree\,\Somewhat disagree\,\2\,1708007089765,1708007089765,8362,8362,8953,buq,qns-item-noham,1,13849,0.0-1.0-0.0,65ce1e94ba0b126130cb283e,AWAITING REVIEW,2024-02-15T14:24:23.565000Z,2024-02-15T14:32:41.303000Z,,2024-02-15T14:32:41.977942Z,498.0,CVPIIDEI,483,24,Female,Black,United States,United States,United States,English,No,Unemployed (and job seeking),Not Applicable
5f4fdba442d1a7110ae00343,<b>Most people just believe whatever is convenient for them.,Highly disagree,2/94,Highly agree,4,1708007090367,1708007093759,\Highly agree\,\Highly agree\,\4\,1708007093217,1708007093217,2850,2850,3392,buq,qns-item-noham,2,17252,0.0-1.0-0.1,65ce1e94ba0b126130cb283e,AWAITING REVIEW,2024-02-15T14:24:23.565000Z,2024-02-15T14:32:41.303000Z,,2024-02-15T14:32:41.977942Z,498.0,CVPIIDEI,483,24,Female,Black,United States,United States,United States,English,No,Unemployed (and job seeking),Not Applicable
5f4fdba442d1a7110ae00343,<b>Having some big beliefs helps me sort out minor ones.,Highly disagree,3/94,Highly agree,4,1708007093761,1708007097890,\Highly agree\,\Highly agree\,\4\,1708007097063,1708007097063,3302,3302,4129,buq,qns-item-noham,3,21383,0.0-1.0-0.2,65ce1e94ba0b126130cb283e,AWAITING REVIEW,2024-02-15T14:24:23.565000Z,2024-02-15T14:32:41.303000Z,,2024-02-15T14:32:41.977942Z,498.0,CVPIIDEI,483,24,Female,Black,United States,United States,United States,English,No,Unemployed (and job seeking),Not Applicable
5f4fdba442d1a7110ae00343,<b>Political questions are usually pretty complicated.,Highly disagree,4/94,Somewhat agree,3,1708007097892,1708007103032,\Somewhat agree\,\Somewhat agree\,\3\,1708007102456,1708007102456,4564,4564,5140,buq,qns-item-noham,4,26525,0.0-1.0-0.3,65ce1e94ba0b126130cb283e,AWAITING REVIEW,2024-02-15T14:24:23.565000Z,2024-02-15T14:32:41.303000Z,,2024-02-15T14:32:41.977942Z,498.0,CVPIIDEI,483,24,Female,Black,United States,United States,United States,English,No,Unemployed (and job seeking),Not Applicable
5f4fdba442d1a7110ae00343,<b>Figuring out what?s important in life requires learning a lot of facts.,Highly disagree,5/94,Somewhat agree,3,1708007103034,1708007106570,\Somewhat agree\,\Somewhat agree\,\3\,1708007105779,1708007105779,2745,2745,3536,buq,qns-item-noham,5,30063,0.0-1.0-0.4,65ce1e94ba0b126130cb283e,AWAITING REVIEW,2024-02-15T14:24:23.565000Z,2024-02-15T14:32:41.303000Z,,2024-02-15T14:32:41.977942Z,498.0,CVPIIDEI,483,24,Female,Black,United States,United States,United States,English,No,Unemployed (and job seeking),Not Applicable
5f4fdba442d1a7110ae00343,<b>It is difficult for me to remember the last time I was surprised by politics.,Highly disagree,6/94,Highly agree,4,1708007106573,1708007110872,\Highly agree\,\Highly agree\,\4\,1708007110287,1708007110287,3714,3714,4299,buq,qns-item-noham,6,34365,0.0-1.0-0.5,65ce1e94ba0b126130cb283e,AWAITING REVIEW,2024-02-15T14:24:23.565000Z,2024-02-15T14:32:41.303000Z,,2024-02-15T14:32:41.977942Z,498.0,CVPIIDEI,483,24,Female,Black,United States,United States,United States,English,No,Unemployed (and job seeking),Not Applicable
5f4fdba442d1a7110ae00343,<b>People?s false beliefs are understandable.,Highly disagree,7/94,Somewhat agree,3,1708007110875,1708007119858,\Somewhat agree\,\Somewhat agree\,\3\,1708007118973,1708007118973,8098,8098,8983,buq,qns-item-noham,7,43351,0.0-1.0-0.6,65ce1e94ba0b126130cb283e,AWAITING REVIEW,2024-02-15T14:24:23.565000Z,2024-02-15T14:32:41.303000Z,,2024-02-15T14:32:41.977942Z,498.0,CVPIIDEI,483,24,Female,Black,United States,United States,United States,English,No,Unemployed (and job seeking),Not Applicable
5f4fdba442d1a7110ae00343,<b>I spend a lot of time trying to be informed about politics.,Highly disagree,8/94,Somewhat disagree,2,1708007119862,1708007149643,\Somewhat disagree\,\Somewhat disagree\,\2\,1708007148047,1708007149231,28185,29369,29781,buq,qns-item-noham,8,73136,0.0-1.0-0.7,65ce1e94ba0b126130cb283e,AWAITING REVIEW,2024-02-15T14:24:23.565000Z,2024-02-15T14:32:41.303000Z,,2024-02-15T14:32:41.977942Z,498.0,CVPIIDEI,483,24,Female,Black,United States,United States,United States,English,No,Unemployed (and job seeking),Not Applicable
5f4fdba442d1a7110ae00343,<b>I think a lot about whether my beliefs are right.,Highly disagree,9/94,Highly agree,4,1708007149645,1708007153027,\Highly agree\,\Highly agree\,\4\,1708007152560,1708007152560,2915,2915,3382,buq,qns-item-noham,9,76520,0.0-1.0-0.8,65ce1e94ba0b126130cb283e,AWAITING REVIEW,2024-02-15T14:24:23.565000Z,2024-02-15T14:32:41.303000Z,,2024-02-15T14:32:41.977942Z,498.0,CVPIIDEI,483,24,Female,Black,United States,United States,United States,English,No,Unemployed (and job seeking),Not Applicable
5f4fdba442d1a7110ae00343,<b>Statistics can be pretty misleading sometimes.,Highly disagree,10/94,Somewhat agree,3,1708007153029,1708007155209,\Somewhat agree\,\Somewhat agree\,\3\,1708007154709,1708007154709,1680,1680,2180,buq,qns-item-noham,10,78702,0.0-1.0-0.9,65ce1e94ba0b126130cb283e,AWAITING REVIEW,2024-02-15T14:24:23.565000Z,2024-02-15T14:32:41.303000Z,,2024-02-15T14:32:41.977942Z,498.0,CVPIIDEI,483,24,Female,Black,United States,United States,United States,English,No,Unemployed (and job seeking),Not Applicable
5f4fdba442d1a7110ae00343,<b>I have lots of beliefs that I?m only sort of sure about.,Highly disagree,11/94,Somewhat agree,3,1708007155211,1708007198371,\Somewhat agree\,\Somewhat agree\,\3\,1708007156593,1708007156593,1382,1382,43160,buq,qns-item-noham,11,121864,0.0-1.0-0.10,65ce1e94ba0b126130cb283e,AWAITING REVIEW,2024-02-15T14:24:23.565000Z,2024-02-15T14:32:41.303000Z,,2024-02-15T14:32:41.977942Z,498.0,CVPIIDEI,483,24,Female,Black,United States,United States,United States,English,No,Unemployed (and job seeking),Not Applicable
5f4fdba442d1a7110ae00343,"<b>If I go to my favorite restaurant and the food is surprisingly bad, it reminds me there are many disappointments in life.",Highly disagree,12/94,Highly agree,4,1708007198374,1708007204859,\Highly agree\,\Highly agree\,\4\,1708007204379,1708007204379,6005,6005,6485,buq,qns-item-noham,12,128352,0.0-1.0-0.11,65ce1e94ba0b126130cb283e,AWAITING REVIEW,2024-02-15T14:24:23.565000Z,2024-02-15T14:32:41.303000Z,,2024-02-15T14:32:41.977942Z,498.0,CVPIIDEI,483,24,Female,Black,United States,United States,United States,English,No,Unemployed (and job seeking),Not Applicable
5f4fdba442d1a7110ae00343,"<b>If you are paying attention, please select ?Somewhat agree?",Highly disagree,13/94,Somewhat agree,3,1708007204861,1708007207231,\Somewhat agree\,\Somewhat agree\,\3\,1708007205878,1708007205878,1017,1017,2370,buq,qns-item-noham,13,130724,0.0-1.0-0.12,65ce1e94ba0b126130cb283e,AWAITING REVIEW,2024-02-15T14:24:23.565000Z,2024-02-15T14:32:41.303000Z,,2024-02-15T14:32:41.977942Z,498.0,CVPIIDEI,483,24,Female,Black,United States,United States,United States,English,No,Unemployed (and job seeking),Not Applicable
5f4fdba442d1a7110ae00343,"<b>When I talk to others, I often worry I?ll convince them of something I didn?t mean to.",Highly disagree,14/94,Highly agree,4,1708007207234,1708007212331,\Highly agree\,\Highly agree\,\4\,1708007211423,1708007211423,4189,4189,5097,buq,qns-item-noham,14,135824,0.0-1.0-0.13,65ce1e94ba0b126130cb283e,AWAITING REVIEW,2024-02-15T14:24:23.565000Z,2024-02-15T14:32:41.303000Z,,2024-02-15T14:32:41.977942Z,498.0,CVPIIDEI,483,24,Female,Black,United States,United States,United States,English,No,Unemployed (and job seeking),Not Applicable
5f4fdba442d1a7110ae00343,<b>I would need to learn something utterly shocking about my party in order to change my political views.,Highly disagree,15/94,Highly agree,4,1708007212333,1708007218009,\Highly agree\,\Highly agree\,\4\,1708007217462,1708007217462,5129,5129,5676,buq,qns-item-noham,15,141502,0.0-1.0-0.14,65ce1e94ba0b126130cb283e,AWAITING REVIEW,2024-02-15T14:24:23.565000Z,2024-02-15T14:32:41.303000Z,,2024-02-15T14:32:41.977942Z,498.0,CVPIIDEI,483,24,Female,Black,United States,United States,United States,English,No,Unemployed (and job seeking),Not Applicable
5f4fdba442d1a7110ae00343,"<b>When I have new experiences, I tend to think of them as unique.",Highly disagree,16/94,Somewhat agree,3,1708007218011,1708007222053,\Somewhat agree\,\Somewhat agree\,\3\,1708007221439,1708007221439,3428,3428,4042,buq,qns-item-noham,16,145546,0.0-1.0-0.15,65ce1e94ba0b126130cb283e,AWAITING REVIEW,2024-02-15T14:24:23.565000Z,2024-02-15T14:32:41.303000Z,,2024-02-15T14:32:41.977942Z,498.0,CVPIIDEI,483,24,Female,Black,United States,United States,United States,English,No,Unemployed (and job seeking),Not Applicable
5f4fdba442d1a7110ae00343,<b>I change my mind about specific policies pretty frequently.,Highly disagree,17/94,Somewhat agree,3,1708007222055,1708007225205,\Somewhat agree\,\Somewhat agree\,\3\,1708007224583,1708007224583,2528,2528,3150,buq,qns-item-noham,17,148698,0.0-1.0-0.16,65ce1e94ba0b126130cb283e,AWAITING REVIEW,2024-02-15T14:24:23.565000Z,2024-02-15T14:32:41.303000Z,,2024-02-15T14:32:41.977942Z,498.0,CVPIIDEI,483,24,Female,Black,United States,United States,United States,English,No,Unemployed (and job seeking),Not Applicable
5f4fdba442d1a7110ae00343,"<b>If a politician in my political party supports something I disagree with, I give them the benefit of the doubt, as such issues often involve hidden complexities that aren?t obvious.   ",Highly disagree,18/94,Highly agree,4,1708007225207,1708007231375,\Highly agree\,\Highly agree\,\4\,1708007230837,1708007230837,5630,5630,6168,buq,qns-item-noham,18,154868,0.0-1.0-0.17,65ce1e94ba0b126130cb283e,AWAITING REVIEW,2024-02-15T14:24:23.565000Z,2024-02-15T14:32:41.303000Z,,2024-02-15T14:32:41.977942Z,498.0,CVPIIDEI,483,24,Female,Black,United States,United States,United States,English,No,Unemployed (and job seeking),Not Applicable
5f4fdba442d1a7110ae00343,<b>People?s bad politics are usually motivated by hatefulness.,Highly disagree,19/94,Somewhat agree,3,1708007231378,1708007236043,\Somewhat agree\,\Somewhat agree\,\3\,1708007235305,1708007235305,3927,3927,4665,buq,qns-item-noham,19,159536,0.0-1.0-0.18,65ce1e94ba0b126130cb283e,AWAITING REVIEW,2024-02-15T14:24:23.565000Z,2024-02-15T14:32:41.303000Z,,2024-02-15T14:32:41.977942Z,498.0,CVPIIDEI,483,24,Female,Black,United States,United States,United States,English,No,Unemployed (and job seeking),Not Applicable
5f4fdba442d1a7110ae00343,<b>I think a lot about how to reconcile my beliefs with one another.,Highly disagree,20/94,Somewhat agree,3,1708007236044,1708007301459,\Somewhat agree\,\Somewhat agree\,\3\,1708007288376,1708007288376,52332,52332,65415,buq,qns-item-noham,20,224952,0.0-1.0-0.19,65ce1e94ba0b126130cb283e,AWAITING REVIEW,2024-02-15T14:24:23.565000Z,2024-02-15T14:32:41.303000Z,,2024-02-15T14:32:41.977942Z,498.0,CVPIIDEI,483,24,Female,Black,United States,United States,United States,English,No,Unemployed (and job seeking),Not Applicable
5f4fdba442d1a7110ae00343,<b>I might have false beliefs about important topics.,Highly disagree,21/94,Somewhat disagree,2,1708007301462,1708007350329,\Somewhat agree\,\Somewhat disagree\,\3\,1708007347614,1708007349740,46152,48278,48867,buq,qns-item-noham,21,273822,0.0-1.0-0.20,65ce1e94ba0b126130cb283e,AWAITING REVIEW,2024-02-15T14:24:23.565000Z,2024-02-15T14:32:41.303000Z,,2024-02-15T14:32:41.977942Z,498.0,CVPIIDEI,483,24,Female,Black,United States,United States,United States,English,No,Unemployed (and job seeking),Not Applicable
5f4fdba442d1a7110ae00343,"<b>If a good friend of mine does something unexpected that upsets me, I feel like I don?t know them anymore.",Highly disagree,22/94,Highly agree,4,1708007350331,1708007353693,\Highly agree\,\Highly agree\,\4\,1708007352967,1708007352967,2636,2636,3362,buq,qns-item-noham,22,277186,0.0-1.0-0.21,65ce1e94ba0b126130cb283e,AWAITING REVIEW,2024-02-15T14:24:23.565000Z,2024-02-15T14:32:41.303000Z,,2024-02-15T14:32:41.977942Z,498.0,CVPIIDEI,483,24,Female,Black,United States,United States,United States,English,No,Unemployed (and job seeking),Not Applicable
5f4fdba442d1a7110ae00343,<b>Other people?s beliefs are often incoherent.,Highly disagree,23/94,Somewhat agree,3,1708007353697,1708007356331,\Somewhat agree\,\Somewhat agree\,\3\,1708007355737,1708007355737,2040,2040,2634,buq,qns-item-noham,23,279824,0.0-1.0-0.22,65ce1e94ba0b126130cb283e,AWAITING REVIEW,2024-02-15T14:24:23.565000Z,2024-02-15T14:32:41.303000Z,,2024-02-15T14:32:41.977942Z,498.0,CVPIIDEI,483,24,Female,Black,United States,United States,United States,English,No,Unemployed (and job seeking),Not Applicable
5f4fdba442d1a7110ae00343,"<b>Every now and then, a new experience will unsettle beliefs I?ve had for a while.",Highly disagree,24/94,Somewhat agree,3,1708007356333,1708007358242,\Somewhat agree\,\Somewhat agree\,\3\,1708007357595,1708007357595,1262,1262,1909,buq,qns-item-noham,24,281735,0.0-1.0-0.23,65ce1e94ba0b126130cb283e,AWAITING REVIEW,2024-02-15T14:24:23.565000Z,2024-02-15T14:32:41.303000Z,,2024-02-15T14:32:41.977942Z,498.0,CVPIIDEI,483,24,Female,Black,United States,United States,United States,English,No,Unemployed (and job seeking),Not Applicable
5f4fdba442d1a7110ae00343,<b>Some policies I agree with in principle are so bad I don?t support them. ,Highly disagree,25/94,Somewhat agree,3,1708007358245,1708007361489,\Somewhat agree\,\Somewhat agree\,\3\,1708007359779,1708007359779,1534,1534,3244,buq,qns-item-noham,25,284982,0.0-1.0-0.24,65ce1e94ba0b126130cb283e,AWAITING REVIEW,2024-02-15T14:24:23.565000Z,2024-02-15T14:32:41.303000Z,,2024-02-15T14:32:41.977942Z,498.0,CVPIIDEI,483,24,Female,Black,United States,United States,United States,English,No,Unemployed (and job seeking),Not Applicable
5f4fdba442d1a7110ae00343,<b>I?m pretty sure I?ve accidentally spread false information.,Highly disagree,26/94,Highly agree,4,1708007361490,1708007364983,\Highly agree\,\Highly agree\,\4\,1708007364528,1708007364528,3038,3038,3493,buq,qns-item-noham,26,288476,0.0-1.0-0.25,65ce1e94ba0b126130cb283e,AWAITING REVIEW,2024-02-15T14:24:23.565000Z,2024-02-15T14:32:41.303000Z,,2024-02-15T14:32:41.977942Z,498.0,CVPIIDEI,483,24,Female,Black,United States,United States,United States,English,No,Unemployed (and job seeking),Not Applicable
5f4fdba442d1a7110ae00343,"<b>If I go to my favorite restaurant and the food is unexpectedly bad, then they have changed owners.",Highly disagree,27/94,Somewhat agree,3,1708007364986,1708007366511,\Somewhat agree\,\Somewhat agree\,\3\,1708007365850,1708007365850,864,864,1525,buq,qns-item-noham,27,290005,0.0-1.0-0.26,65ce1e94ba0b126130cb283e,AWAITING REVIEW,2024-02-15T14:24:23.565000Z,2024-02-15T14:32:41.303000Z,,2024-02-15T14:32:41.977942Z,498.0,CVPIIDEI,483,24,Female,Black,United States,United States,United States,English,No,Unemployed (and job seeking),Not Applicable
5f4fdba442d1a7110ae00343,"<b>In politics, it?s important to trust your friends and family.",Highly disagree,28/94,Highly agree,4,1708007366514,1708007367917,\Highly agree\,\Highly agree\,\4\,1708007367273,1708007367273,759,759,1403,buq,qns-item-noham,28,291410,0.0-1.0-0.27,65ce1e94ba0b126130cb283e,AWAITING REVIEW,2024-02-15T14:24:23.565000Z,2024-02-15T14:32:41.303000Z,,2024-02-15T14:32:41.977942Z,498.0,CVPIIDEI,483,24,Female,Black,United States,United States,United States,English,No,Unemployed (and job seeking),Not Applicable
5f4fdba442d1a7110ae00343,<b>It?s OK to have some conflicting beliefs.,Highly disagree,29/94,Somewhat agree,3,1708007367919,1708007369153,\Somewhat agree\,\Somewhat agree\,\3\,1708007368497,1708007368497,578,578,1234,buq,qns-item-noham,29,292647,0.0-1.0-0.28,65ce1e94ba0b126130cb283e,AWAITING REVIEW,2024-02-15T14:24:23.565000Z,2024-02-15T14:32:41.303000Z,,2024-02-15T14:32:41.977942Z,498.0,CVPIIDEI,483,24,Female,Black,United States,United States,United States,English,No,Unemployed (and job seeking),Not Applicable
5f4fdba442d1a7110ae00343,<b>Listening to people I disagree with makes my opinions better.,Highly disagree,30/94,Somewhat agree,3,1708007369155,1708007371123,\Somewhat agree\,\Somewhat agree\,\3\,1708007370566,1708007370566,1411,1411,1968,buq,qns-item-noham,30,294616,0.0-1.0-0.29,65ce1e94ba0b126130cb283e,AWAITING REVIEW,2024-02-15T14:24:23.565000Z,2024-02-15T14:32:41.303000Z,,2024-02-15T14:32:41.977942Z,498.0,CVPIIDEI,483,24,Female,Black,United States,United States,United States,English,No,Unemployed (and job seeking),Not Applicable
5f4fdba442d1a7110ae00343,<b>My moral compass sometimes makes it harder to determine what?s true.,Highly disagree,31/94,Highly agree,4,1708007371124,1708007372803,\Highly agree\,\Highly agree\,\4\,1708007372093,1708007372093,969,969,1679,buq,qns-item-noham,31,296296,0.0-1.0-0.30,65ce1e94ba0b126130cb283e,AWAITING REVIEW,2024-02-15T14:24:23.565000Z,2024-02-15T14:32:41.303000Z,,2024-02-15T14:32:41.977942Z,498.0,CVPIIDEI,483,24,Female,Black,United States,United States,United States,English,No,Unemployed (and job seeking),Not Applicable
5f4fdba442d1a7110ae00343,<b>Evidence pointing in the wrong direction isn?t really evidence at all.,Highly disagree,32/94,Somewhat agree,3,1708007372804,1708007373972,\Somewhat agree\,\Somewhat agree\,\3\,1708007373466,1708007373466,662,662,1168,buq,qns-item-noham,32,297465,0.0-1.0-0.31,65ce1e94ba0b126130cb283e,AWAITING REVIEW,2024-02-15T14:24:23.565000Z,2024-02-15T14:32:41.303000Z,,2024-02-15T14:32:41.977942Z,498.0,CVPIIDEI,483,24,Female,Black,United States,United States,United States,English,No,Unemployed (and job seeking),Not Applicable
5f4fdba442d1a7110ae00343,"<b>If the political party I support messes up, it makes me think politics is rotten.",Highly disagree,33/94,Highly agree,4,1708007373974,1708007375624,\Highly agree\,\Highly agree\,\4\,1708007375010,1708007375010,1036,1036,1650,buq,qns-item-noham,33,299117,0.0-1.0-0.32,65ce1e94ba0b126130cb283e,AWAITING REVIEW,2024-02-15T14:24:23.565000Z,2024-02-15T14:32:41.303000Z,,2024-02-15T14:32:41.977942Z,498.0,CVPIIDEI,483,24,Female,Black,United States,United States,United States,English,No,Unemployed (and job seeking),Not Applicable
5f4fdba442d1a7110ae00343,<b>Lots of important topics can only really be understood by some groups of people.,Highly disagree,34/94,Somewhat agree,3,1708007375626,1708007377012,\Somewhat agree\,\Somewhat agree\,\3\,1708007376399,1708007376399,773,773,1386,buq,qns-item-noham,34,300505,0.0-1.0-0.33,65ce1e94ba0b126130cb283e,AWAITING REVIEW,2024-02-15T14:24:23.565000Z,2024-02-15T14:32:41.303000Z,,2024-02-15T14:32:41.977942Z,498.0,CVPIIDEI,483,24,Female,Black,United States,United States,United States,English,No,Unemployed (and job seeking),Not Applicable
5f4fdba442d1a7110ae00343,<b>Having conflicting beliefs means you haven?t thought about them enough.,Highly disagree,35/94,Somewhat agree,3,1708007377014,1708007378641,\Somewhat agree\,\Somewhat agree\,\3\,1708007377834,1708007377834,820,820,1627,buq,qns-item-noham,35,302134,0.0-1.0-0.34,65ce1e94ba0b126130cb283e,AWAITING REVIEW,2024-02-15T14:24:23.565000Z,2024-02-15T14:32:41.303000Z,,2024-02-15T14:32:41.977942Z,498.0,CVPIIDEI,483,24,Female,Black,United States,United States,United States,English,No,Unemployed (and job seeking),Not Applicable
5f4fdba442d1a7110ae00343,<b>I do not often change my political opinions.,Highly disagree,36/94,Highly agree,4,1708007378642,1708007380176,\Highly agree\,\Highly agree\,\4\,1708007379506,1708007379506,864,864,1534,buq,qns-item-noham,36,303669,0.0-1.0-0.35,65ce1e94ba0b126130cb283e,AWAITING REVIEW,2024-02-15T14:24:23.565000Z,2024-02-15T14:32:41.303000Z,,2024-02-15T14:32:41.977942Z,498.0,CVPIIDEI,483,24,Female,Black,United States,United States,United States,English,No,Unemployed (and job seeking),Not Applicable
5f4fdba442d1a7110ae00343,<b>It?s difficult to not have at least some conflicting beliefs.,Highly disagree,37/94,Somewhat agree,3,1708007380178,1708007381421,\Somewhat agree\,\Somewhat agree\,\3\,1708007380851,1708007380851,673,673,1243,buq,qns-item-noham,37,304914,0.0-1.0-0.36,65ce1e94ba0b126130cb283e,AWAITING REVIEW,2024-02-15T14:24:23.565000Z,2024-02-15T14:32:41.303000Z,,2024-02-15T14:32:41.977942Z,498.0,CVPIIDEI,483,24,Female,Black,United States,United States,United States,English,No,Unemployed (and job seeking),Not Applicable
5f4fdba442d1a7110ae00343,<b>Wishful thinking causes a lot of problems.,Highly disagree,38/94,Highly agree,4,1708007381423,1708007386345,\Somewhat agree\,\Highly agree\,\3\,1708007382188,1708007385258,765,3835,4922,buq,qns-item-noham,38,309838,0.0-1.0-0.37,65ce1e94ba0b126130cb283e,AWAITING REVIEW,2024-02-15T14:24:23.565000Z,2024-02-15T14:32:41.303000Z,,2024-02-15T14:32:41.977942Z,498.0,CVPIIDEI,483,24,Female,Black,United States,United States,United States,English,No,Unemployed (and job seeking),Not Applicable
5f4fdba442d1a7110ae00343,<b>I judge a food item only once I try it many times.,Highly disagree,39/94,Somewhat agree,3,1708007386346,1708007388032,\Somewhat agree\,\Somewhat agree\,\3\,1708007387157,1708007387157,811,811,1686,buq,qns-item-noham,39,311525,0.0-1.0-0.38,65ce1e94ba0b126130cb283e,AWAITING REVIEW,2024-02-15T14:24:23.565000Z,2024-02-15T14:32:41.303000Z,,2024-02-15T14:32:41.977942Z,498.0,CVPIIDEI,483,24,Female,Black,United States,United States,United States,English,No,Unemployed (and job seeking),Not Applicable
5f4fdba442d1a7110ae00343,"<b>When a person holds conflicting beliefs, they should really try to figure out what?s wrong.",Highly disagree,40/94,Highly agree,4,1708007388033,1708007390201,\Highly agree\,\Highly agree\,\4\,1708007389645,1708007389645,1612,1612,2168,buq,qns-item-noham,40,313694,0.0-1.0-0.39,65ce1e94ba0b126130cb283e,AWAITING REVIEW,2024-02-15T14:24:23.565000Z,2024-02-15T14:32:41.303000Z,,2024-02-15T14:32:41.977942Z,498.0,CVPIIDEI,483,24,Female,Black,United States,United States,United States,English,No,Unemployed (and job seeking),Not Applicable
5f4fdba442d1a7110ae00343,<b>Knowing what?s important in life is easy.,Highly disagree,41/94,Somewhat agree,3,1708007390202,1708007392097,\Somewhat agree\,\Somewhat agree\,\3\,1708007390983,1708007390983,781,781,1895,buq,qns-item-noham,41,315590,0.0-1.0-0.40,65ce1e94ba0b126130cb283e,AWAITING REVIEW,2024-02-15T14:24:23.565000Z,2024-02-15T14:32:41.303000Z,,2024-02-15T14:32:41.977942Z,498.0,CVPIIDEI,483,24,Female,Black,United States,United States,United States,English,No,Unemployed (and job seeking),Not Applicable
5f4fdba442d1a7110ae00343,<b>I swim across the Atlantic Ocean to get to work every day.,Highly disagree,42/94,Somewhat agree,3,1708007392098,1708007393992,\Somewhat agree\,\Somewhat agree\,\3\,1708007392867,1708007392867,769,769,1894,buq,qns-item-noham,42,317486,0.0-1.0-0.41,65ce1e94ba0b126130cb283e,AWAITING REVIEW,2024-02-15T14:24:23.565000Z,2024-02-15T14:32:41.303000Z,,2024-02-15T14:32:41.977942Z,498.0,CVPIIDEI,483,24,Female,Black,United States,United States,United States,English,No,Unemployed (and job seeking),Not Applicable
5f4fdba442d1a7110ae00343,"<b>Sometimes, you just have to ignore evidence that you know is wrong.",Highly disagree,43/94,Highly agree,4,1708007393994,1708007396521,\Highly agree\,\Highly agree\,\4\,1708007395332,1708007395332,1338,1338,2527,buq,qns-item-noham,43,320014,0.0-1.0-0.42,65ce1e94ba0b126130cb283e,AWAITING REVIEW,2024-02-15T14:24:23.565000Z,2024-02-15T14:32:41.303000Z,,2024-02-15T14:32:41.977942Z,498.0,CVPIIDEI,483,24,Female,Black,United States,United States,United States,English,No,Unemployed (and job seeking),Not Applicable
5f4fdba442d1a7110ae00343,<b>I have had some false beliefs.,Highly disagree,44/94,Somewhat agree,3,1708007396523,1708007398061,\Somewhat agree\,\Somewhat agree\,\3\,1708007397357,1708007397357,834,834,1538,buq,qns-item-noham,44,321554,0.0-1.0-0.43,65ce1e94ba0b126130cb283e,AWAITING REVIEW,2024-02-15T14:24:23.565000Z,2024-02-15T14:32:41.303000Z,,2024-02-15T14:32:41.977942Z,498.0,CVPIIDEI,483,24,Female,Black,United States,United States,United States,English,No,Unemployed (and job seeking),Not Applicable
5f4fdba442d1a7110ae00343,"<b>If one friend does something that upsets me, I sometimes start to distrust people in general.",Highly disagree,45/94,Somewhat agree,3,1708007398064,1708007400301,\Somewhat agree\,\Somewhat agree\,\3\,1708007399344,1708007399344,1280,1280,2237,buq,qns-item-noham,45,323794,0.0-1.0-0.44,65ce1e94ba0b126130cb283e,AWAITING REVIEW,2024-02-15T14:24:23.565000Z,2024-02-15T14:32:41.303000Z,,2024-02-15T14:32:41.977942Z,498.0,CVPIIDEI,483,24,Female,Black,United States,United States,United States,English,No,Unemployed (and job seeking),Not Applicable
5f4fdba442d1a7110ae00343,<b>The facts about most important matters are easy to find.,Highly disagree,46/94,Highly agree,4,1708007400302,1708007401784,\Highly agree\,\Highly agree\,\4\,1708007401194,1708007401194,892,892,1482,buq,qns-item-noham,46,325277,0.0-1.0-0.45,65ce1e94ba0b126130cb283e,AWAITING REVIEW,2024-02-15T14:24:23.565000Z,2024-02-15T14:32:41.303000Z,,2024-02-15T14:32:41.977942Z,498.0,CVPIIDEI,483,24,Female,Black,United States,United States,United States,English,No,Unemployed (and job seeking),Not Applicable
5f4fdba442d1a7110ae00343,<b>It?s better to know what?s true than to know what?s moral.,Highly disagree,47/94,Somewhat agree,3,1708007401786,1708007403652,\Somewhat agree\,\Somewhat agree\,\3\,1708007402564,1708007402564,778,778,1866,buq,qns-item-noham,47,327145,0.0-1.0-0.46,65ce1e94ba0b126130cb283e,AWAITING REVIEW,2024-02-15T14:24:23.565000Z,2024-02-15T14:32:41.303000Z,,2024-02-15T14:32:41.977942Z,498.0,CVPIIDEI,483,24,Female,Black,United States,United States,United States,English,No,Unemployed (and job seeking),Not Applicable
5f4fdba442d1a7110ae00343,<b>I used to think the world was less complicated than I do now.,Highly disagree,48/94,Somewhat agree,3,1708007403654,1708007405941,\Somewhat agree\,\Somewhat agree\,\3\,1708007404945,1708007404945,1291,1291,2287,buq,qns-item-noham,48,329434,0.0-1.0-0.47,65ce1e94ba0b126130cb283e,AWAITING REVIEW,2024-02-15T14:24:23.565000Z,2024-02-15T14:32:41.303000Z,,2024-02-15T14:32:41.977942Z,498.0,CVPIIDEI,483,24,Female,Black,United States,United States,United States,English,No,Unemployed (and job seeking),Not Applicable
5f4fdba442d1a7110ae00343,<b>People are usually completely right or completely wrong.,Highly disagree,49/94,Somewhat agree,3,1708007405942,1708007407333,\Somewhat agree\,\Somewhat agree\,\3\,1708007406652,1708007406652,710,710,1391,buq,qns-item-noham,49,330826,0.0-1.0-0.48,65ce1e94ba0b126130cb283e,AWAITING REVIEW,2024-02-15T14:24:23.565000Z,2024-02-15T14:32:41.303000Z,,2024-02-15T14:32:41.977942Z,498.0,CVPIIDEI,483,24,Female,Black,United States,United States,United States,English,No,Unemployed (and job seeking),Not Applicable
5f4fdba442d1a7110ae00343,<b>I spend a lot of time considering alternatives to my beliefs.,Highly disagree,50/94,Highly agree,4,1708007407335,1708007409061,\Highly agree\,\Highly agree\,\4\,1708007408465,1708007408465,1130,1130,1726,buq,qns-item-noham,50,332554,0.0-1.0-0.49,65ce1e94ba0b126130cb283e,AWAITING REVIEW,2024-02-15T14:24:23.565000Z,2024-02-15T14:32:41.303000Z,,2024-02-15T14:32:41.977942Z,498.0,CVPIIDEI,483,24,Female,Black,United States,United States,United States,English,No,Unemployed (and job seeking),Not Applicable
5f4fdba442d1a7110ae00343,"<b>Political enemies need to be defeated, not convinced.",Highly disagree,51/94,Somewhat disagree,2,1708007409062,1708007410609,\Somewhat disagree\,\Somewhat disagree\,\2\,1708007410045,1708007410045,983,983,1547,buq,qns-item-noham,51,334102,0.0-1.0-0.50,65ce1e94ba0b126130cb283e,AWAITING REVIEW,2024-02-15T14:24:23.565000Z,2024-02-15T14:32:41.303000Z,,2024-02-15T14:32:41.977942Z,498.0,CVPIIDEI,483,24,Female,Black,United States,United States,United States,English,No,Unemployed (and job seeking),Not Applicable
5f4fdba442d1a7110ae00343,<b>I form my political views only after meticulously gathering historical and present information about their policies.,Highly disagree,52/94,Somewhat agree,3,1708007410610,1708007412247,\Somewhat agree\,\Somewhat agree\,\3\,1708007411414,1708007411414,804,804,1637,buq,qns-item-noham,52,335740,0.0-1.0-0.51,65ce1e94ba0b126130cb283e,AWAITING REVIEW,2024-02-15T14:24:23.565000Z,2024-02-15T14:32:41.303000Z,,2024-02-15T14:32:41.977942Z,498.0,CVPIIDEI,483,24,Female,Black,United States,United States,United States,English,No,Unemployed (and job seeking),Not Applicable
5f4fdba442d1a7110ae00343,<b>It is difficult for me to remember the last time I was surprised by politics.,Highly disagree,53/94,Somewhat agree,3,1708007412249,1708007413727,\Somewhat agree\,\Somewhat agree\,\3\,1708007412952,1708007412952,703,703,1478,buq,qns-item-noham,53,337220,0.0-1.0-0.52,65ce1e94ba0b126130cb283e,AWAITING REVIEW,2024-02-15T14:24:23.565000Z,2024-02-15T14:32:41.303000Z,,2024-02-15T14:32:41.977942Z,498.0,CVPIIDEI,483,24,Female,Black,United States,United States,United States,English,No,Unemployed (and job seeking),Not Applicable
5f4fdba442d1a7110ae00343,"<b>When I find out I?m wrong, I think a lot about my related beliefs.",Highly disagree,54/94,Highly agree,4,1708007413728,1708007415149,\Highly agree\,\Highly agree\,\4\,1708007414572,1708007414572,844,844,1421,buq,qns-item-noham,54,338642,0.0-1.0-0.53,65ce1e94ba0b126130cb283e,AWAITING REVIEW,2024-02-15T14:24:23.565000Z,2024-02-15T14:32:41.303000Z,,2024-02-15T14:32:41.977942Z,498.0,CVPIIDEI,483,24,Female,Black,United States,United States,United States,English,No,Unemployed (and job seeking),Not Applicable
5f4fdba442d1a7110ae00343,"<b>If the political party I support messes up, it makes me think you can?t trust anyone these days",Highly disagree,55/94,Somewhat agree,3,1708007415150,1708007417229,\Somewhat agree\,\Somewhat agree\,\3\,1708007415676,1708007415676,526,526,2079,buq,qns-item-noham,55,340722,0.0-1.0-0.54,65ce1e94ba0b126130cb283e,AWAITING REVIEW,2024-02-15T14:24:23.565000Z,2024-02-15T14:32:41.303000Z,,2024-02-15T14:32:41.977942Z,498.0,CVPIIDEI,483,24,Female,Black,United States,United States,United States,English,No,Unemployed (and job seeking),Not Applicable
5f4fdba442d1a7110ae00343,<b>People?s brains turn off when they talk about politics.,Highly disagree,56/94,Somewhat agree,3,1708007417232,1708007418507,\Somewhat agree\,\Somewhat agree\,\3\,1708007417810,1708007417810,578,578,1275,buq,qns-item-noham,56,342000,0.0-1.0-0.55,65ce1e94ba0b126130cb283e,AWAITING REVIEW,2024-02-15T14:24:23.565000Z,2024-02-15T14:32:41.303000Z,,2024-02-15T14:32:41.977942Z,498.0,CVPIIDEI,483,24,Female,Black,United States,United States,United States,English,No,Unemployed (and job seeking),Not Applicable
5f4fdba442d1a7110ae00343,<b>People who are wrong are usually just ignoring the obvious.,Highly disagree,57/94,Highly agree,4,1708007418508,1708007419999,\Highly agree\,\Highly agree\,\4\,1708007419444,1708007419444,936,936,1491,buq,qns-item-noham,57,343492,0.0-1.0-0.56,65ce1e94ba0b126130cb283e,AWAITING REVIEW,2024-02-15T14:24:23.565000Z,2024-02-15T14:32:41.303000Z,,2024-02-15T14:32:41.977942Z,498.0,CVPIIDEI,483,24,Female,Black,United States,United States,United States,English,No,Unemployed (and job seeking),Not Applicable
5f4fdba442d1a7110ae00343,"<b>When forming my views on people, I rely more on what they are like now rather than rely on my past experience with them.",Highly disagree,58/94,Somewhat agree,3,1708007420002,1708007421381,\Somewhat agree\,\Somewhat agree\,\3\,1708007420733,1708007420733,731,731,1379,buq,qns-item-noham,58,344874,0.0-1.0-0.57,65ce1e94ba0b126130cb283e,AWAITING REVIEW,2024-02-15T14:24:23.565000Z,2024-02-15T14:32:41.303000Z,,2024-02-15T14:32:41.977942Z,498.0,CVPIIDEI,483,24,Female,Black,United States,United States,United States,English,No,Unemployed (and job seeking),Not Applicable
5f4fdba442d1a7110ae00343,"<b>When people contradict my beliefs, I usually know about their evidence already.",Highly disagree,59/94,Somewhat agree,3,1708007421384,1708007422786,\Somewhat agree\,\Somewhat agree\,\3\,1708007422034,1708007422034,650,650,1402,buq,qns-item-noham,59,346279,0.0-1.0-0.58,65ce1e94ba0b126130cb283e,AWAITING REVIEW,2024-02-15T14:24:23.565000Z,2024-02-15T14:32:41.303000Z,,2024-02-15T14:32:41.977942Z,498.0,CVPIIDEI,483,24,Female,Black,United States,United States,United States,English,No,Unemployed (and job seeking),Not Applicable
5f4fdba442d1a7110ae00343,<b>Figuring out what?s true and what?s false mainly requires a strong moral compass.,Highly disagree,60/94,Somewhat agree,3,1708007422789,1708007425045,\Somewhat agree\,\Somewhat agree\,\3\,1708007424444,1708007424444,1655,1655,2256,buq,qns-item-noham,60,348538,0.0-1.0-0.59,65ce1e94ba0b126130cb283e,AWAITING REVIEW,2024-02-15T14:24:23.565000Z,2024-02-15T14:32:41.303000Z,,2024-02-15T14:32:41.977942Z,498.0,CVPIIDEI,483,24,Female,Black,United States,United States,United States,English,No,Unemployed (and job seeking),Not Applicable
5f4fdba442d1a7110ae00343,"<b>Usually I?m wrong about simple things, not complicated ones.",Highly disagree,61/94,Somewhat agree,3,1708007425047,1708007426654,\Somewhat agree\,\Somewhat agree\,\3\,1708007426150,1708007426150,1103,1103,1607,buq,qns-item-noham,61,350147,0.0-1.0-0.60,65ce1e94ba0b126130cb283e,AWAITING REVIEW,2024-02-15T14:24:23.565000Z,2024-02-15T14:32:41.303000Z,,2024-02-15T14:32:41.977942Z,498.0,CVPIIDEI,483,24,Female,Black,United States,United States,United States,English,No,Unemployed (and job seeking),Not Applicable
5f4fdba442d1a7110ae00343,<b>Getting all the information I want about important things is hard.,Highly disagree,62/94,Highly agree,4,1708007426657,1708007427682,\Highly agree\,\Highly agree\,\4\,1708007427156,1708007427156,499,499,1025,buq,qns-item-noham,62,351175,0.0-1.0-0.61,65ce1e94ba0b126130cb283e,AWAITING REVIEW,2024-02-15T14:24:23.565000Z,2024-02-15T14:32:41.303000Z,,2024-02-15T14:32:41.977942Z,498.0,CVPIIDEI,483,24,Female,Black,United States,United States,United States,English,No,Unemployed (and job seeking),Not Applicable
5f4fdba442d1a7110ae00343,<b>Most false beliefs spread because people try to deceive one another.,Highly disagree,63/94,Somewhat disagree,2,1708007427684,1708007429539,\Somewhat agree\,\Somewhat disagree\,\3\,1708007428257,1708007428853,573,1169,1855,buq,qns-item-noham,63,353032,0.0-1.0-0.62,65ce1e94ba0b126130cb283e,AWAITING REVIEW,2024-02-15T14:24:23.565000Z,2024-02-15T14:32:41.303000Z,,2024-02-15T14:32:41.977942Z,498.0,CVPIIDEI,483,24,Female,Black,United States,United States,United States,English,No,Unemployed (and job seeking),Not Applicable
5f4fdba442d1a7110ae00343,<b>I can usually find something to agree with in most people?s beliefs.,Highly disagree,64/94,Highly agree,4,1708007429542,1708007433575,\Highly agree\,\Highly agree\,\4\,1708007432746,1708007432746,3204,3204,4033,buq,qns-item-noham,64,357068,0.0-1.0-0.63,65ce1e94ba0b126130cb283e,AWAITING REVIEW,2024-02-15T14:24:23.565000Z,2024-02-15T14:32:41.303000Z,,2024-02-15T14:32:41.977942Z,498.0,CVPIIDEI,483,24,Female,Black,United States,United States,United States,English,No,Unemployed (and job seeking),Not Applicable
5f4fdba442d1a7110ae00343,<b>I only form my views of people once I get to know them very well.,Highly disagree,65/94,Somewhat agree,3,1708007433577,1708007435151,\Somewhat agree\,\Somewhat agree\,\3\,1708007434362,1708007434362,785,785,1574,buq,qns-item-noham,65,358644,0.0-1.0-0.64,65ce1e94ba0b126130cb283e,AWAITING REVIEW,2024-02-15T14:24:23.565000Z,2024-02-15T14:32:41.303000Z,,2024-02-15T14:32:41.977942Z,498.0,CVPIIDEI,483,24,Female,Black,United States,United States,United States,English,No,Unemployed (and job seeking),Not Applicable
5f4fdba442d1a7110ae00343,"<b>When people tell me important things about the world, I usually believe them.",Highly disagree,66/94,Highly agree,4,1708007435153,1708007436881,\Highly agree\,\Highly agree\,\4\,1708007436195,1708007436195,1042,1042,1728,buq,qns-item-noham,66,360374,0.0-1.0-0.65,65ce1e94ba0b126130cb283e,AWAITING REVIEW,2024-02-15T14:24:23.565000Z,2024-02-15T14:32:41.303000Z,,2024-02-15T14:32:41.977942Z,498.0,CVPIIDEI,483,24,Female,Black,United States,United States,United States,English,No,Unemployed (and job seeking),Not Applicable
5f4fdba442d1a7110ae00343,"<b>If a friend does something that upsets me, it reminds me what an unpredictable place the world is.",Highly disagree,67/94,Somewhat agree,3,1708007436884,1708007438146,\Somewhat agree\,\Somewhat agree\,\3\,1708007437377,1708007437377,493,493,1262,buq,qns-item-noham,67,361639,0.0-1.0-0.66,65ce1e94ba0b126130cb283e,AWAITING REVIEW,2024-02-15T14:24:23.565000Z,2024-02-15T14:32:41.303000Z,,2024-02-15T14:32:41.977942Z,498.0,CVPIIDEI,483,24,Female,Black,United States,United States,United States,English,No,Unemployed (and job seeking),Not Applicable
5f4fdba442d1a7110ae00343,<b>People tend to believe whatever is good for their friends.,Highly disagree,68/94,Highly agree,4,1708007438147,1708007439486,\Highly agree\,\Highly agree\,\4\,1708007438869,1708007438869,722,722,1339,buq,qns-item-noham,68,362979,0.0-1.0-0.67,65ce1e94ba0b126130cb283e,AWAITING REVIEW,2024-02-15T14:24:23.565000Z,2024-02-15T14:32:41.303000Z,,2024-02-15T14:32:41.977942Z,498.0,CVPIIDEI,483,24,Female,Black,United States,United States,United States,English,No,Unemployed (and job seeking),Not Applicable
5f4fdba442d1a7110ae00343,<b>I used to be more certain my beliefs were true.,Highly disagree,69/94,Somewhat agree,3,1708007439489,1708007440610,\Somewhat agree\,\Somewhat agree\,\3\,1708007440073,1708007440073,584,584,1121,buq,qns-item-noham,69,364103,0.0-1.0-0.68,65ce1e94ba0b126130cb283e,AWAITING REVIEW,2024-02-15T14:24:23.565000Z,2024-02-15T14:32:41.303000Z,,2024-02-15T14:32:41.977942Z,498.0,CVPIIDEI,483,24,Female,Black,United States,United States,United States,English,No,Unemployed (and job seeking),Not Applicable
5f4fdba442d1a7110ae00343,<b>It?s often pretty easy to figure out whether something is true based on who said it.,Highly disagree,70/94,Highly agree,4,1708007440612,1708007442083,\Highly agree\,\Highly agree\,\4\,1708007441502,1708007441502,890,890,1471,buq,qns-item-noham,70,365577,0.0-1.0-0.69,65ce1e94ba0b126130cb283e,AWAITING REVIEW,2024-02-15T14:24:23.565000Z,2024-02-15T14:32:41.303000Z,,2024-02-15T14:32:41.977942Z,498.0,CVPIIDEI,483,24,Female,Black,United States,United States,United States,English,No,Unemployed (and job seeking),Not Applicable
5f4fdba442d1a7110ae00343,<b>I transform into a hummingbird every day.,Highly disagree,71/94,Somewhat agree,3,1708007442085,1708007443608,\Somewhat agree\,\Somewhat agree\,\3\,1708007443053,1708007443053,968,968,1523,buq,qns-item-noham,71,367101,0.0-1.0-0.70,65ce1e94ba0b126130cb283e,AWAITING REVIEW,2024-02-15T14:24:23.565000Z,2024-02-15T14:32:41.303000Z,,2024-02-15T14:32:41.977942Z,498.0,CVPIIDEI,483,24,Female,Black,United States,United States,United States,English,No,Unemployed (and job seeking),Not Applicable
5f4fdba442d1a7110ae00343,<b>I think a lot about arguments against my views.,Highly disagree,72/94,Somewhat agree,3,1708007443610,1708007450291,\Somewhat disagree\,\Somewhat agree\,\2\,1708007447567,1708007449363,3957,5753,6681,buq,qns-item-noham,72,373784,0.0-1.0-0.71,65ce1e94ba0b126130cb283e,AWAITING REVIEW,2024-02-15T14:24:23.565000Z,2024-02-15T14:32:41.303000Z,,2024-02-15T14:32:41.977942Z,498.0,CVPIIDEI,483,24,Female,Black,United States,United States,United States,English,No,Unemployed (and job seeking),Not Applicable
5f4fdba442d1a7110ae00343,<b>Personal experience is usually more important than facts and figures.,Highly disagree,73/94,Highly agree,4,1708007450293,1708007451690,\Highly agree\,\Highly agree\,\4\,1708007451111,1708007451111,818,818,1397,buq,qns-item-noham,73,375183,0.0-1.0-0.72,65ce1e94ba0b126130cb283e,AWAITING REVIEW,2024-02-15T14:24:23.565000Z,2024-02-15T14:32:41.303000Z,,2024-02-15T14:32:41.977942Z,498.0,CVPIIDEI,483,24,Female,Black,United States,United States,United States,English,No,Unemployed (and job seeking),Not Applicable
5f4fdba442d1a7110ae00343,<b>I?ve been tricked before about important matters.,Highly disagree,74/94,Somewhat agree,3,1708007451692,1708007453044,\Somewhat agree\,\Somewhat agree\,\3\,1708007452353,1708007452353,661,661,1352,buq,qns-item-noham,74,376537,0.0-1.0-0.73,65ce1e94ba0b126130cb283e,AWAITING REVIEW,2024-02-15T14:24:23.565000Z,2024-02-15T14:32:41.303000Z,,2024-02-15T14:32:41.977942Z,498.0,CVPIIDEI,483,24,Female,Black,United States,United States,United States,English,No,Unemployed (and job seeking),Not Applicable
5f4fdba442d1a7110ae00343,<b>I would need to be totally wowed if I were to change my opinion of a restaurant I don?t like.,Highly disagree,75/94,Highly agree,4,1708007453046,1708007454241,\Highly agree\,\Highly agree\,\4\,1708007453783,1708007453783,737,737,1195,buq,qns-item-noham,75,377734,0.0-1.0-0.74,65ce1e94ba0b126130cb283e,AWAITING REVIEW,2024-02-15T14:24:23.565000Z,2024-02-15T14:32:41.303000Z,,2024-02-15T14:32:41.977942Z,498.0,CVPIIDEI,483,24,Female,Black,United States,United States,United States,English,No,Unemployed (and job seeking),Not Applicable
5f4fdba442d1a7110ae00343,<b>I care a lot about politics.,Highly disagree,76/94,Somewhat agree,3,1708007454242,1708007455831,\Somewhat agree\,\Somewhat agree\,\3\,1708007454895,1708007454895,653,653,1589,buq,qns-item-noham,76,379324,0.0-1.0-0.75,65ce1e94ba0b126130cb283e,AWAITING REVIEW,2024-02-15T14:24:23.565000Z,2024-02-15T14:32:41.303000Z,,2024-02-15T14:32:41.977942Z,498.0,CVPIIDEI,483,24,Female,Black,United States,United States,United States,English,No,Unemployed (and job seeking),Not Applicable
5f4fdba442d1a7110ae00343,<b>There are some topics I?ve been really wrong about.,Highly disagree,77/94,Somewhat agree,3,1708007455833,1708007457004,\Somewhat agree\,\Somewhat agree\,\3\,1708007456517,1708007456517,684,684,1171,buq,qns-item-noham,77,380497,0.0-1.0-0.76,65ce1e94ba0b126130cb283e,AWAITING REVIEW,2024-02-15T14:24:23.565000Z,2024-02-15T14:32:41.303000Z,,2024-02-15T14:32:41.977942Z,498.0,CVPIIDEI,483,24,Female,Black,United States,United States,United States,English,No,Unemployed (and job seeking),Not Applicable
5f4fdba442d1a7110ae00343,<b>Most beliefs can be supported with at least some evidence.,Highly disagree,78/94,Somewhat agree,3,1708007457006,1708007458622,\Somewhat agree\,\Somewhat agree\,\3\,1708007457665,1708007457665,659,659,1616,buq,qns-item-noham,78,382116,0.0-1.0-0.77,65ce1e94ba0b126130cb283e,AWAITING REVIEW,2024-02-15T14:24:23.565000Z,2024-02-15T14:32:41.303000Z,,2024-02-15T14:32:41.977942Z,498.0,CVPIIDEI,483,24,Female,Black,United States,United States,United States,English,No,Unemployed (and job seeking),Not Applicable
5f4fdba442d1a7110ae00343,<b>Other people make life out to be more complicated than it really is.,Highly disagree,79/94,Highly agree,4,1708007458624,1708007459687,\Highly agree\,\Highly agree\,\4\,1708007459272,1708007459272,648,648,1063,buq,qns-item-noham,79,383180,0.0-1.0-0.78,65ce1e94ba0b126130cb283e,AWAITING REVIEW,2024-02-15T14:24:23.565000Z,2024-02-15T14:32:41.303000Z,,2024-02-15T14:32:41.977942Z,498.0,CVPIIDEI,483,24,Female,Black,United States,United States,United States,English,No,Unemployed (and job seeking),Not Applicable
5f4fdba442d1a7110ae00343,"<b>Policy details don?t matter much, just the big picture.",Highly disagree,80/94,Somewhat agree,3,1708007459688,1708007461844,\Somewhat agree\,\Somewhat agree\,\3\,1708007461345,1708007461345,1657,1657,2156,buq,qns-item-noham,80,385337,0.0-1.0-0.79,65ce1e94ba0b126130cb283e,AWAITING REVIEW,2024-02-15T14:24:23.565000Z,2024-02-15T14:32:41.303000Z,,2024-02-15T14:32:41.977942Z,498.0,CVPIIDEI,483,24,Female,Black,United States,United States,United States,English,No,Unemployed (and job seeking),Not Applicable
5f4fdba442d1a7110ae00343,<b>I know my friends so well they can hardly ever surprise me.,Highly disagree,81/94,Highly agree,4,1708007461845,1708007462937,\Highly agree\,\Highly agree\,\4\,1708007462461,1708007462461,616,616,1092,buq,qns-item-noham,81,386430,0.0-1.0-0.80,65ce1e94ba0b126130cb283e,AWAITING REVIEW,2024-02-15T14:24:23.565000Z,2024-02-15T14:32:41.303000Z,,2024-02-15T14:32:41.977942Z,498.0,CVPIIDEI,483,24,Female,Black,United States,United States,United States,English,No,Unemployed (and job seeking),Not Applicable
5f4fdba442d1a7110ae00343,<b>I do not often change my views on people.,Highly disagree,82/94,Highly disagree,1,1708007462938,1708007467261,\Somewhat agree\,\Highly disagree\,\3\,1708007463657,1708007466688,719,3750,4323,buq,qns-item-noham,82,390754,0.0-1.0-0.81,65ce1e94ba0b126130cb283e,AWAITING REVIEW,2024-02-15T14:24:23.565000Z,2024-02-15T14:32:41.303000Z,,2024-02-15T14:32:41.977942Z,498.0,CVPIIDEI,483,24,Female,Black,United States,United States,United States,English,No,Unemployed (and job seeking),Not Applicable
5f4fdba442d1a7110ae00343,<b>I?m more certain about my beliefs than I used to be.,Highly disagree,83/94,Somewhat agree,3,1708007467264,1708007468481,\Somewhat agree\,\Somewhat agree\,\3\,1708007467915,1708007467915,651,651,1217,buq,qns-item-noham,83,391974,0.0-1.0-0.82,65ce1e94ba0b126130cb283e,AWAITING REVIEW,2024-02-15T14:24:23.565000Z,2024-02-15T14:32:41.303000Z,,2024-02-15T14:32:41.977942Z,498.0,CVPIIDEI,483,24,Female,Black,United States,United States,United States,English,No,Unemployed (and job seeking),Not Applicable
5f4fdba442d1a7110ae00343,<b>People often tell falsehoods unintentionally.,Highly disagree,84/94,Highly agree,4,1708007468482,1708007469560,\Highly agree\,\Highly agree\,\4\,1708007469133,1708007469133,651,651,1078,buq,qns-item-noham,84,393053,0.0-1.0-0.83,65ce1e94ba0b126130cb283e,AWAITING REVIEW,2024-02-15T14:24:23.565000Z,2024-02-15T14:32:41.303000Z,,2024-02-15T14:32:41.977942Z,498.0,CVPIIDEI,483,24,Female,Black,United States,United States,United States,English,No,Unemployed (and job seeking),Not Applicable
5f4fdba442d1a7110ae00343,<b>Most people don?t know much about most things.,Highly disagree,85/94,Somewhat agree,3,1708007469562,1708007470633,\Somewhat agree\,\Somewhat agree\,\3\,1708007470157,1708007470157,595,595,1071,buq,qns-item-noham,85,394126,0.0-1.0-0.84,65ce1e94ba0b126130cb283e,AWAITING REVIEW,2024-02-15T14:24:23.565000Z,2024-02-15T14:32:41.303000Z,,2024-02-15T14:32:41.977942Z,498.0,CVPIIDEI,483,24,Female,Black,United States,United States,United States,English,No,Unemployed (and job seeking),Not Applicable
5f4fdba442d1a7110ae00343,"<b>If I find out something new about someone, I easily change my views about them.",Highly disagree,86/94,Somewhat agree,3,1708007470635,1708007471784,\Somewhat agree\,\Somewhat agree\,\3\,1708007471335,1708007471335,700,700,1149,buq,qns-item-noham,86,395278,0.0-1.0-0.85,65ce1e94ba0b126130cb283e,AWAITING REVIEW,2024-02-15T14:24:23.565000Z,2024-02-15T14:32:41.303000Z,,2024-02-15T14:32:41.977942Z,498.0,CVPIIDEI,483,24,Female,Black,United States,United States,United States,English,No,Unemployed (and job seeking),Not Applicable
5f4fdba442d1a7110ae00343,<b>Having true beliefs is difficult.,Highly disagree,87/94,Highly agree,4,1708007471786,1708007473139,\Highly agree\,\Highly agree\,\4\,1708007472589,1708007472589,803,803,1353,buq,qns-item-noham,87,396632,0.0-1.0-0.86,65ce1e94ba0b126130cb283e,AWAITING REVIEW,2024-02-15T14:24:23.565000Z,2024-02-15T14:32:41.303000Z,,2024-02-15T14:32:41.977942Z,498.0,CVPIIDEI,483,24,Female,Black,United States,United States,United States,English,No,Unemployed (and job seeking),Not Applicable
5f4fdba442d1a7110ae00343,<b>I don?t try new foods since I know I won?t like them.,Highly disagree,88/94,Somewhat agree,3,1708007473141,1708007474268,\Somewhat agree\,\Somewhat agree\,\3\,1708007473791,1708007473791,650,650,1127,buq,qns-item-noham,88,397761,0.0-1.0-0.87,65ce1e94ba0b126130cb283e,AWAITING REVIEW,2024-02-15T14:24:23.565000Z,2024-02-15T14:32:41.303000Z,,2024-02-15T14:32:41.977942Z,498.0,CVPIIDEI,483,24,Female,Black,United States,United States,United States,English,No,Unemployed (and job seeking),Not Applicable
5f4fdba442d1a7110ae00343,<b>Other people trick each other a lot.,Highly disagree,89/94,Somewhat disagree,2,1708007474270,1708007475507,\Somewhat disagree\,\Somewhat disagree\,\2\,1708007475060,1708007475060,790,790,1237,buq,qns-item-noham,89,399000,0.0-1.0-0.88,65ce1e94ba0b126130cb283e,AWAITING REVIEW,2024-02-15T14:24:23.565000Z,2024-02-15T14:32:41.303000Z,,2024-02-15T14:32:41.977942Z,498.0,CVPIIDEI,483,24,Female,Black,United States,United States,United States,English,No,Unemployed (and job seeking),Not Applicable
5f4fdba442d1a7110ae00343,<b>I would need to learn a lot about a person for my opinion of them to be swayed.,Highly disagree,90/94,Somewhat agree,3,1708007475509,1708007476752,\Somewhat agree\,\Somewhat agree\,\3\,1708007476305,1708007476305,796,796,1243,buq,qns-item-noham,90,400245,0.0-1.0-0.89,65ce1e94ba0b126130cb283e,AWAITING REVIEW,2024-02-15T14:24:23.565000Z,2024-02-15T14:32:41.303000Z,,2024-02-15T14:32:41.977942Z,498.0,CVPIIDEI,483,24,Female,Black,United States,United States,United States,English,No,Unemployed (and job seeking),Not Applicable
5f4fdba442d1a7110ae00343,<b>People can?t usually trick me when it comes to topics I care about.,Highly disagree,91/94,Highly agree,4,1708007476754,1708007478044,\Highly agree\,\Highly agree\,\4\,1708007477371,1708007477371,617,617,1290,buq,qns-item-noham,91,401537,0.0-1.0-0.90,65ce1e94ba0b126130cb283e,AWAITING REVIEW,2024-02-15T14:24:23.565000Z,2024-02-15T14:32:41.303000Z,,2024-02-15T14:32:41.977942Z,498.0,CVPIIDEI,483,24,Female,Black,United States,United States,United States,English,No,Unemployed (and job seeking),Not Applicable
5f4fdba442d1a7110ae00343,<b>I do not often change my views on food.,Highly disagree,92/94,Somewhat agree,3,1708007478046,1708007479879,\Somewhat agree\,\Somewhat agree\,\3\,1708007478697,1708007478963,651,917,1833,buq,qns-item-noham,92,403373,0.0-1.0-0.91,65ce1e94ba0b126130cb283e,AWAITING REVIEW,2024-02-15T14:24:23.565000Z,2024-02-15T14:32:41.303000Z,,2024-02-15T14:32:41.977942Z,498.0,CVPIIDEI,483,24,Female,Black,United States,United States,United States,English,No,Unemployed (and job seeking),Not Applicable
5f4fdba442d1a7110ae00343,<b>Specific policies are often very important to me.,Highly disagree,93/94,Somewhat agree,3,1708007479882,1708007481253,\Somewhat agree\,\Somewhat agree\,\3\,1708007480725,1708007480725,843,843,1371,buq,qns-item-noham,93,404746,0.0-1.0-0.92,65ce1e94ba0b126130cb283e,AWAITING REVIEW,2024-02-15T14:24:23.565000Z,2024-02-15T14:32:41.303000Z,,2024-02-15T14:32:41.977942Z,498.0,CVPIIDEI,483,24,Female,Black,United States,United States,United States,English,No,Unemployed (and job seeking),Not Applicable
5f4fdba442d1a7110ae00343,<b>Most people are woefully under-informed.,Highly disagree,94/94,Somewhat agree,3,1708007481255,1708007488813,\Somewhat agree\,\Somewhat agree\,\3\,1708007487591,1708007487591,6336,6336,7558,buq,qns-item-noham,94,412306,0.0-1.0-0.93,65ce1e94ba0b126130cb283e,AWAITING REVIEW,2024-02-15T14:24:23.565000Z,2024-02-15T14:32:41.303000Z,,2024-02-15T14:32:41.977942Z,498.0,CVPIIDEI,483,24,Female,Black,United States,United States,United States,English,No,Unemployed (and job seeking),Not Applicable
5f4fdba442d1a7110ae00343,,,,,,,,,,,,,,,,,,,,,65ce1e94ba0b126130cb283e,AWAITING REVIEW,2024-02-15T14:24:23.565000Z,2024-02-15T14:32:41.303000Z,,2024-02-15T14:32:41.977942Z,498.0,CVPIIDEI,483,24,Female,Black,United States,United States,United States,English,No,Unemployed (and job seeking),Not Applicable
