PROLIFIC_PID,Question,qns_options,quest_num,answer,answer_num,question_load_timestamp,next_btn_timestamp,text_selected,final_text_selected,option_num_selected,preview_timestamps,final_text_selected_time_stamp,rt_first_option_click,rt_final_option_click,rt_submit_click,questionnaire,trial_type,trial_index,time_elapsed,internal_node_id,Demographic_Submission id,Demographic_Status,Demographic_Started at,Demographic_Completed at,Demographic_Reviewed at,Demographic_Archived at,Demographic_Time taken,Demographic_Completion code,Demographic_Total approvals,Demographic_Age,Demographic_Sex,Demographic_Ethnicity simplified,Demographic_Country of birth,Demographic_Country of residence,Demographic_Nationality,Demographic_Language,Demographic_Student status,Demographic_Employment status,Demographic_Custom study tncs accepted at
631b842a5603f48811a26093,<b>Knowing what?s true and knowing what to do about it are usually basically the same.,Highly disagree,1/94,Somewhat disagree,2,1708007353091,1708007360733,\Somewhat disagree\,\Somewhat disagree\,\2\,1708007359552,1708007359552,6461,6461,7642,buq,qns-item-noham,1,12275,0.0-1.0-0.0,65ce1f8986021fa092b3e27a,AWAITING REVIEW,2024-02-15T14:28:49.971000Z,2024-02-15T14:37:19.950000Z,,2024-02-15T14:37:20.517981Z,510.0,CVPIIDEI,1899,30,Female,Mixed,United States,United States,United States,English,No,Full-Time,Not Applicable
631b842a5603f48811a26093,<b>Most people just believe whatever is convenient for them.,Highly disagree,2/94,Somewhat agree,3,1708007360735,1708007363983,\Somewhat agree\,\Somewhat agree\,\3\,1708007363489,1708007363489,2754,2754,3248,buq,qns-item-noham,2,15526,0.0-1.0-0.1,65ce1f8986021fa092b3e27a,AWAITING REVIEW,2024-02-15T14:28:49.971000Z,2024-02-15T14:37:19.950000Z,,2024-02-15T14:37:20.517981Z,510.0,CVPIIDEI,1899,30,Female,Mixed,United States,United States,United States,English,No,Full-Time,Not Applicable
631b842a5603f48811a26093,<b>Having some big beliefs helps me sort out minor ones.,Highly disagree,3/94,Somewhat agree,3,1708007363985,1708007366951,\Somewhat agree\,\Somewhat agree\,\3\,1708007366337,1708007366337,2352,2352,2966,buq,qns-item-noham,3,18493,0.0-1.0-0.2,65ce1f8986021fa092b3e27a,AWAITING REVIEW,2024-02-15T14:28:49.971000Z,2024-02-15T14:37:19.950000Z,,2024-02-15T14:37:20.517981Z,510.0,CVPIIDEI,1899,30,Female,Mixed,United States,United States,United States,English,No,Full-Time,Not Applicable
631b842a5603f48811a26093,<b>Political questions are usually pretty complicated.,Highly disagree,4/94,Somewhat agree,3,1708007366951,1708007370020,\Somewhat agree\,\Somewhat agree\,\3\,1708007368546,1708007368546,1595,1595,3069,buq,qns-item-noham,4,21562,0.0-1.0-0.3,65ce1f8986021fa092b3e27a,AWAITING REVIEW,2024-02-15T14:28:49.971000Z,2024-02-15T14:37:19.950000Z,,2024-02-15T14:37:20.517981Z,510.0,CVPIIDEI,1899,30,Female,Mixed,United States,United States,United States,English,No,Full-Time,Not Applicable
631b842a5603f48811a26093,<b>Figuring out what?s important in life requires learning a lot of facts.,Highly disagree,5/94,Somewhat agree,3,1708007370021,1708007373716,\Highly agree\,\Somewhat agree\,\4\,1708007372124,1708007372745,2103,2724,3695,buq,qns-item-noham,5,25258,0.0-1.0-0.4,65ce1f8986021fa092b3e27a,AWAITING REVIEW,2024-02-15T14:28:49.971000Z,2024-02-15T14:37:19.950000Z,,2024-02-15T14:37:20.517981Z,510.0,CVPIIDEI,1899,30,Female,Mixed,United States,United States,United States,English,No,Full-Time,Not Applicable
631b842a5603f48811a26093,<b>It is difficult for me to remember the last time I was surprised by politics.,Highly disagree,6/94,Highly agree,4,1708007373718,1708007382420,\Highly agree\,\Highly agree\,\4\,1708007381896,1708007381896,8178,8178,8702,buq,qns-item-noham,6,33962,0.0-1.0-0.5,65ce1f8986021fa092b3e27a,AWAITING REVIEW,2024-02-15T14:28:49.971000Z,2024-02-15T14:37:19.950000Z,,2024-02-15T14:37:20.517981Z,510.0,CVPIIDEI,1899,30,Female,Mixed,United States,United States,United States,English,No,Full-Time,Not Applicable
631b842a5603f48811a26093,<b>People?s false beliefs are understandable.,Highly disagree,7/94,Highly disagree,1,1708007382421,1708007384904,\Highly disagree\,\Highly disagree\,\1\,1708007384398,1708007384398,1977,1977,2483,buq,qns-item-noham,7,36446,0.0-1.0-0.6,65ce1f8986021fa092b3e27a,AWAITING REVIEW,2024-02-15T14:28:49.971000Z,2024-02-15T14:37:19.950000Z,,2024-02-15T14:37:20.517981Z,510.0,CVPIIDEI,1899,30,Female,Mixed,United States,United States,United States,English,No,Full-Time,Not Applicable
631b842a5603f48811a26093,<b>I spend a lot of time trying to be informed about politics.,Highly disagree,8/94,Highly agree,4,1708007384905,1708007387836,\Somewhat agree\,\Highly agree\,\3\,1708007386746,1708007387186,1841,2281,2931,buq,qns-item-noham,8,39378,0.0-1.0-0.7,65ce1f8986021fa092b3e27a,AWAITING REVIEW,2024-02-15T14:28:49.971000Z,2024-02-15T14:37:19.950000Z,,2024-02-15T14:37:20.517981Z,510.0,CVPIIDEI,1899,30,Female,Mixed,United States,United States,United States,English,No,Full-Time,Not Applicable
631b842a5603f48811a26093,<b>I think a lot about whether my beliefs are right.,Highly disagree,9/94,Somewhat agree,3,1708007387837,1708007392613,\Somewhat agree\,\Somewhat agree\,\3\,1708007392193,1708007392193,4356,4356,4776,buq,qns-item-noham,9,44155,0.0-1.0-0.8,65ce1f8986021fa092b3e27a,AWAITING REVIEW,2024-02-15T14:28:49.971000Z,2024-02-15T14:37:19.950000Z,,2024-02-15T14:37:20.517981Z,510.0,CVPIIDEI,1899,30,Female,Mixed,United States,United States,United States,English,No,Full-Time,Not Applicable
631b842a5603f48811a26093,<b>Statistics can be pretty misleading sometimes.,Highly disagree,10/94,Highly agree,4,1708007392614,1708007394443,\Highly agree\,\Highly agree\,\4\,1708007393979,1708007393979,1365,1365,1829,buq,qns-item-noham,10,45985,0.0-1.0-0.9,65ce1f8986021fa092b3e27a,AWAITING REVIEW,2024-02-15T14:28:49.971000Z,2024-02-15T14:37:19.950000Z,,2024-02-15T14:37:20.517981Z,510.0,CVPIIDEI,1899,30,Female,Mixed,United States,United States,United States,English,No,Full-Time,Not Applicable
631b842a5603f48811a26093,<b>I have lots of beliefs that I?m only sort of sure about.,Highly disagree,11/94,Highly disagree,1,1708007394444,1708007399868,\Highly agree\,\Highly disagree\,\4\,1708007396265,1708007398876,1821,4432,5424,buq,qns-item-noham,11,51410,0.0-1.0-0.10,65ce1f8986021fa092b3e27a,AWAITING REVIEW,2024-02-15T14:28:49.971000Z,2024-02-15T14:37:19.950000Z,,2024-02-15T14:37:20.517981Z,510.0,CVPIIDEI,1899,30,Female,Mixed,United States,United States,United States,English,No,Full-Time,Not Applicable
631b842a5603f48811a26093,"<b>If I go to my favorite restaurant and the food is surprisingly bad, it reminds me there are many disappointments in life.",Highly disagree,12/94,Highly agree,4,1708007399870,1708007408082,\Highly agree\,\Highly agree\,\4\,1708007407463,1708007407463,7593,7593,8212,buq,qns-item-noham,12,59624,0.0-1.0-0.11,65ce1f8986021fa092b3e27a,AWAITING REVIEW,2024-02-15T14:28:49.971000Z,2024-02-15T14:37:19.950000Z,,2024-02-15T14:37:20.517981Z,510.0,CVPIIDEI,1899,30,Female,Mixed,United States,United States,United States,English,No,Full-Time,Not Applicable
631b842a5603f48811a26093,"<b>If you are paying attention, please select ?Somewhat agree?",Highly disagree,13/94,Somewhat agree,3,1708007408084,1708007409628,\Somewhat agree\,\Somewhat agree\,\3\,1708007409151,1708007409151,1067,1067,1544,buq,qns-item-noham,13,61171,0.0-1.0-0.12,65ce1f8986021fa092b3e27a,AWAITING REVIEW,2024-02-15T14:28:49.971000Z,2024-02-15T14:37:19.950000Z,,2024-02-15T14:37:20.517981Z,510.0,CVPIIDEI,1899,30,Female,Mixed,United States,United States,United States,English,No,Full-Time,Not Applicable
631b842a5603f48811a26093,"<b>When I talk to others, I often worry I?ll convince them of something I didn?t mean to.",Highly disagree,14/94,Somewhat disagree,2,1708007409631,1708007414064,\Somewhat disagree\,\Somewhat disagree\,\2\,1708007413507,1708007413507,3876,3876,4433,buq,qns-item-noham,14,65606,0.0-1.0-0.13,65ce1f8986021fa092b3e27a,AWAITING REVIEW,2024-02-15T14:28:49.971000Z,2024-02-15T14:37:19.950000Z,,2024-02-15T14:37:20.517981Z,510.0,CVPIIDEI,1899,30,Female,Mixed,United States,United States,United States,English,No,Full-Time,Not Applicable
631b842a5603f48811a26093,<b>I would need to learn something utterly shocking about my party in order to change my political views.,Highly disagree,15/94,Highly disagree,1,1708007414066,1708007421431,\Highly disagree\,\Highly disagree\,\1\,1708007417783,1708007417783,3717,3717,7365,buq,qns-item-noham,15,72973,0.0-1.0-0.14,65ce1f8986021fa092b3e27a,AWAITING REVIEW,2024-02-15T14:28:49.971000Z,2024-02-15T14:37:19.950000Z,,2024-02-15T14:37:20.517981Z,510.0,CVPIIDEI,1899,30,Female,Mixed,United States,United States,United States,English,No,Full-Time,Not Applicable
631b842a5603f48811a26093,"<b>When I have new experiences, I tend to think of them as unique.",Highly disagree,16/94,Highly agree,4,1708007421432,1708007423867,\Highly agree\,\Highly agree\,\4\,1708007423310,1708007423310,1878,1878,2435,buq,qns-item-noham,16,75409,0.0-1.0-0.15,65ce1f8986021fa092b3e27a,AWAITING REVIEW,2024-02-15T14:28:49.971000Z,2024-02-15T14:37:19.950000Z,,2024-02-15T14:37:20.517981Z,510.0,CVPIIDEI,1899,30,Female,Mixed,United States,United States,United States,English,No,Full-Time,Not Applicable
631b842a5603f48811a26093,<b>I change my mind about specific policies pretty frequently.,Highly disagree,17/94,Somewhat disagree,2,1708007423868,1708007427545,\Somewhat agree\,\Somewhat disagree\,\3\,1708007426376,1708007427123,2508,3255,3677,buq,qns-item-noham,17,79087,0.0-1.0-0.16,65ce1f8986021fa092b3e27a,AWAITING REVIEW,2024-02-15T14:28:49.971000Z,2024-02-15T14:37:19.950000Z,,2024-02-15T14:37:20.517981Z,510.0,CVPIIDEI,1899,30,Female,Mixed,United States,United States,United States,English,No,Full-Time,Not Applicable
631b842a5603f48811a26093,"<b>If a politician in my political party supports something I disagree with, I give them the benefit of the doubt, as such issues often involve hidden complexities that aren?t obvious.   ",Highly disagree,18/94,Highly disagree,1,1708007427546,1708007431604,\Highly disagree\,\Highly disagree\,\1\,1708007431088,1708007431088,3542,3542,4058,buq,qns-item-noham,18,83146,0.0-1.0-0.17,65ce1f8986021fa092b3e27a,AWAITING REVIEW,2024-02-15T14:28:49.971000Z,2024-02-15T14:37:19.950000Z,,2024-02-15T14:37:20.517981Z,510.0,CVPIIDEI,1899,30,Female,Mixed,United States,United States,United States,English,No,Full-Time,Not Applicable
631b842a5603f48811a26093,<b>People?s bad politics are usually motivated by hatefulness.,Highly disagree,19/94,Highly agree,4,1708007431606,1708007434005,\Highly agree\,\Highly agree\,\4\,1708007433413,1708007433413,1807,1807,2399,buq,qns-item-noham,19,85547,0.0-1.0-0.18,65ce1f8986021fa092b3e27a,AWAITING REVIEW,2024-02-15T14:28:49.971000Z,2024-02-15T14:37:19.950000Z,,2024-02-15T14:37:20.517981Z,510.0,CVPIIDEI,1899,30,Female,Mixed,United States,United States,United States,English,No,Full-Time,Not Applicable
631b842a5603f48811a26093,<b>I think a lot about how to reconcile my beliefs with one another.,Highly disagree,20/94,Highly agree,4,1708007434006,1708007441825,\Highly agree\,\Highly agree\,\4\,1708007438583,1708007438583,4577,4577,7819,buq,qns-item-noham,20,93367,0.0-1.0-0.19,65ce1f8986021fa092b3e27a,AWAITING REVIEW,2024-02-15T14:28:49.971000Z,2024-02-15T14:37:19.950000Z,,2024-02-15T14:37:20.517981Z,510.0,CVPIIDEI,1899,30,Female,Mixed,United States,United States,United States,English,No,Full-Time,Not Applicable
631b842a5603f48811a26093,<b>I might have false beliefs about important topics.,Highly disagree,21/94,Highly disagree,1,1708007441827,1708007468593,\Highly disagree\,\Highly disagree\,\1\,1708007467853,1708007467853,26026,26026,26766,buq,qns-item-noham,21,120135,0.0-1.0-0.20,65ce1f8986021fa092b3e27a,AWAITING REVIEW,2024-02-15T14:28:49.971000Z,2024-02-15T14:37:19.950000Z,,2024-02-15T14:37:20.517981Z,510.0,CVPIIDEI,1899,30,Female,Mixed,United States,United States,United States,English,No,Full-Time,Not Applicable
631b842a5603f48811a26093,"<b>If a good friend of mine does something unexpected that upsets me, I feel like I don?t know them anymore.",Highly disagree,22/94,Highly agree,4,1708007468594,1708007473314,\Somewhat agree\,\Highly agree\,\3\,1708007471694,1708007472894,3100,4300,4720,buq,qns-item-noham,22,124857,0.0-1.0-0.21,65ce1f8986021fa092b3e27a,AWAITING REVIEW,2024-02-15T14:28:49.971000Z,2024-02-15T14:37:19.950000Z,,2024-02-15T14:37:20.517981Z,510.0,CVPIIDEI,1899,30,Female,Mixed,United States,United States,United States,English,No,Full-Time,Not Applicable
631b842a5603f48811a26093,<b>Other people?s beliefs are often incoherent.,Highly disagree,23/94,Somewhat disagree,2,1708007473316,1708007476061,\Highly disagree\,\Somewhat disagree\,\1\,1708007474647,1708007475699,1331,2383,2745,buq,qns-item-noham,23,127604,0.0-1.0-0.22,65ce1f8986021fa092b3e27a,AWAITING REVIEW,2024-02-15T14:28:49.971000Z,2024-02-15T14:37:19.950000Z,,2024-02-15T14:37:20.517981Z,510.0,CVPIIDEI,1899,30,Female,Mixed,United States,United States,United States,English,No,Full-Time,Not Applicable
631b842a5603f48811a26093,"<b>Every now and then, a new experience will unsettle beliefs I?ve had for a while.",Highly disagree,24/94,Somewhat disagree,2,1708007476064,1708007480241,\Somewhat agree\,\Somewhat disagree\,\3\,1708007479548,1708007479910,3484,3846,4177,buq,qns-item-noham,24,131783,0.0-1.0-0.23,65ce1f8986021fa092b3e27a,AWAITING REVIEW,2024-02-15T14:28:49.971000Z,2024-02-15T14:37:19.950000Z,,2024-02-15T14:37:20.517981Z,510.0,CVPIIDEI,1899,30,Female,Mixed,United States,United States,United States,English,No,Full-Time,Not Applicable
631b842a5603f48811a26093,<b>Some policies I agree with in principle are so bad I don?t support them. ,Highly disagree,25/94,Highly disagree,1,1708007480243,1708007485482,\Highly disagree\,\Highly disagree\,\1\,1708007484830,1708007484830,4587,4587,5239,buq,qns-item-noham,25,137024,0.0-1.0-0.24,65ce1f8986021fa092b3e27a,AWAITING REVIEW,2024-02-15T14:28:49.971000Z,2024-02-15T14:37:19.950000Z,,2024-02-15T14:37:20.517981Z,510.0,CVPIIDEI,1899,30,Female,Mixed,United States,United States,United States,English,No,Full-Time,Not Applicable
631b842a5603f48811a26093,<b>I?m pretty sure I?ve accidentally spread false information.,Highly disagree,26/94,Highly disagree,1,1708007485483,1708007488378,\Highly disagree\,\Highly disagree\,\1\,1708007487811,1708007487811,2328,2328,2895,buq,qns-item-noham,26,139920,0.0-1.0-0.25,65ce1f8986021fa092b3e27a,AWAITING REVIEW,2024-02-15T14:28:49.971000Z,2024-02-15T14:37:19.950000Z,,2024-02-15T14:37:20.517981Z,510.0,CVPIIDEI,1899,30,Female,Mixed,United States,United States,United States,English,No,Full-Time,Not Applicable
631b842a5603f48811a26093,"<b>If I go to my favorite restaurant and the food is unexpectedly bad, then they have changed owners.",Highly disagree,27/94,Somewhat disagree,2,1708007488379,1708007492289,\Somewhat disagree\,\Somewhat disagree\,\2\,1708007491731,1708007491731,3352,3352,3910,buq,qns-item-noham,27,143831,0.0-1.0-0.26,65ce1f8986021fa092b3e27a,AWAITING REVIEW,2024-02-15T14:28:49.971000Z,2024-02-15T14:37:19.950000Z,,2024-02-15T14:37:20.517981Z,510.0,CVPIIDEI,1899,30,Female,Mixed,United States,United States,United States,English,No,Full-Time,Not Applicable
631b842a5603f48811a26093,"<b>In politics, it?s important to trust your friends and family.",Highly disagree,28/94,Somewhat disagree,2,1708007492290,1708007507913,\Somewhat disagree\,\Somewhat disagree\,\2\,1708007506901,1708007506901,14611,14611,15623,buq,qns-item-noham,28,159455,0.0-1.0-0.27,65ce1f8986021fa092b3e27a,AWAITING REVIEW,2024-02-15T14:28:49.971000Z,2024-02-15T14:37:19.950000Z,,2024-02-15T14:37:20.517981Z,510.0,CVPIIDEI,1899,30,Female,Mixed,United States,United States,United States,English,No,Full-Time,Not Applicable
631b842a5603f48811a26093,<b>It?s OK to have some conflicting beliefs.,Highly disagree,29/94,Somewhat agree,3,1708007507915,1708007510149,\Somewhat agree\,\Somewhat agree\,\3\,1708007509634,1708007509634,1719,1719,2234,buq,qns-item-noham,29,161691,0.0-1.0-0.28,65ce1f8986021fa092b3e27a,AWAITING REVIEW,2024-02-15T14:28:49.971000Z,2024-02-15T14:37:19.950000Z,,2024-02-15T14:37:20.517981Z,510.0,CVPIIDEI,1899,30,Female,Mixed,United States,United States,United States,English,No,Full-Time,Not Applicable
631b842a5603f48811a26093,<b>Listening to people I disagree with makes my opinions better.,Highly disagree,30/94,Highly agree,4,1708007510150,1708007514124,\Highly disagree\,\Highly agree\,\1\,1708007512502,1708007513343,2352,3193,3974,buq,qns-item-noham,30,165666,0.0-1.0-0.29,65ce1f8986021fa092b3e27a,AWAITING REVIEW,2024-02-15T14:28:49.971000Z,2024-02-15T14:37:19.950000Z,,2024-02-15T14:37:20.517981Z,510.0,CVPIIDEI,1899,30,Female,Mixed,United States,United States,United States,English,No,Full-Time,Not Applicable
631b842a5603f48811a26093,<b>My moral compass sometimes makes it harder to determine what?s true.,Highly disagree,31/94,Highly disagree,1,1708007514125,1708007516783,\Highly disagree\,\Highly disagree\,\1\,1708007516150,1708007516150,2025,2025,2658,buq,qns-item-noham,31,168325,0.0-1.0-0.30,65ce1f8986021fa092b3e27a,AWAITING REVIEW,2024-02-15T14:28:49.971000Z,2024-02-15T14:37:19.950000Z,,2024-02-15T14:37:20.517981Z,510.0,CVPIIDEI,1899,30,Female,Mixed,United States,United States,United States,English,No,Full-Time,Not Applicable
631b842a5603f48811a26093,<b>Evidence pointing in the wrong direction isn?t really evidence at all.,Highly disagree,32/94,Highly disagree,1,1708007516784,1708007519906,\Highly disagree\,\Highly disagree\,\1\,1708007519362,1708007519362,2578,2578,3122,buq,qns-item-noham,32,171448,0.0-1.0-0.31,65ce1f8986021fa092b3e27a,AWAITING REVIEW,2024-02-15T14:28:49.971000Z,2024-02-15T14:37:19.950000Z,,2024-02-15T14:37:20.517981Z,510.0,CVPIIDEI,1899,30,Female,Mixed,United States,United States,United States,English,No,Full-Time,Not Applicable
631b842a5603f48811a26093,"<b>If the political party I support messes up, it makes me think politics is rotten.",Highly disagree,33/94,Highly agree,4,1708007519907,1708007523484,\Highly agree\,\Highly agree\,\4\,1708007522796,1708007522796,2889,2889,3577,buq,qns-item-noham,33,175026,0.0-1.0-0.32,65ce1f8986021fa092b3e27a,AWAITING REVIEW,2024-02-15T14:28:49.971000Z,2024-02-15T14:37:19.950000Z,,2024-02-15T14:37:20.517981Z,510.0,CVPIIDEI,1899,30,Female,Mixed,United States,United States,United States,English,No,Full-Time,Not Applicable
631b842a5603f48811a26093,<b>Lots of important topics can only really be understood by some groups of people.,Highly disagree,34/94,Somewhat agree,3,1708007523485,1708007532332,\Somewhat agree\,\Somewhat agree\,\3\,1708007531915,1708007531915,8430,8430,8847,buq,qns-item-noham,34,183874,0.0-1.0-0.33,65ce1f8986021fa092b3e27a,AWAITING REVIEW,2024-02-15T14:28:49.971000Z,2024-02-15T14:37:19.950000Z,,2024-02-15T14:37:20.517981Z,510.0,CVPIIDEI,1899,30,Female,Mixed,United States,United States,United States,English,No,Full-Time,Not Applicable
631b842a5603f48811a26093,<b>Having conflicting beliefs means you haven?t thought about them enough.,Highly disagree,35/94,Highly disagree,1,1708007532334,1708007535162,\Highly disagree\,\Highly disagree\,\1\,1708007534611,1708007534611,2277,2277,2828,buq,qns-item-noham,35,186704,0.0-1.0-0.34,65ce1f8986021fa092b3e27a,AWAITING REVIEW,2024-02-15T14:28:49.971000Z,2024-02-15T14:37:19.950000Z,,2024-02-15T14:37:20.517981Z,510.0,CVPIIDEI,1899,30,Female,Mixed,United States,United States,United States,English,No,Full-Time,Not Applicable
631b842a5603f48811a26093,<b>I do not often change my political opinions.,Highly disagree,36/94,Highly agree,4,1708007535163,1708007538829,\Highly agree\,\Highly agree\,\4\,1708007538372,1708007538372,3209,3209,3666,buq,qns-item-noham,36,190371,0.0-1.0-0.35,65ce1f8986021fa092b3e27a,AWAITING REVIEW,2024-02-15T14:28:49.971000Z,2024-02-15T14:37:19.950000Z,,2024-02-15T14:37:20.517981Z,510.0,CVPIIDEI,1899,30,Female,Mixed,United States,United States,United States,English,No,Full-Time,Not Applicable
631b842a5603f48811a26093,<b>It?s difficult to not have at least some conflicting beliefs.,Highly disagree,37/94,Somewhat agree,3,1708007538832,1708007541948,\Somewhat agree\,\Somewhat agree\,\3\,1708007541166,1708007541166,2334,2334,3116,buq,qns-item-noham,37,193491,0.0-1.0-0.36,65ce1f8986021fa092b3e27a,AWAITING REVIEW,2024-02-15T14:28:49.971000Z,2024-02-15T14:37:19.950000Z,,2024-02-15T14:37:20.517981Z,510.0,CVPIIDEI,1899,30,Female,Mixed,United States,United States,United States,English,No,Full-Time,Not Applicable
631b842a5603f48811a26093,<b>Wishful thinking causes a lot of problems.,Highly disagree,38/94,Somewhat disagree,2,1708007541949,1708007544634,\Somewhat disagree\,\Somewhat disagree\,\2\,1708007544203,1708007544203,2254,2254,2685,buq,qns-item-noham,38,196176,0.0-1.0-0.37,65ce1f8986021fa092b3e27a,AWAITING REVIEW,2024-02-15T14:28:49.971000Z,2024-02-15T14:37:19.950000Z,,2024-02-15T14:37:20.517981Z,510.0,CVPIIDEI,1899,30,Female,Mixed,United States,United States,United States,English,No,Full-Time,Not Applicable
631b842a5603f48811a26093,<b>I judge a food item only once I try it many times.,Highly disagree,39/94,Highly agree,4,1708007544636,1708007548414,\Highly agree\,\Highly agree\,\4\,1708007547997,1708007547997,3361,3361,3778,buq,qns-item-noham,39,199956,0.0-1.0-0.38,65ce1f8986021fa092b3e27a,AWAITING REVIEW,2024-02-15T14:28:49.971000Z,2024-02-15T14:37:19.950000Z,,2024-02-15T14:37:20.517981Z,510.0,CVPIIDEI,1899,30,Female,Mixed,United States,United States,United States,English,No,Full-Time,Not Applicable
631b842a5603f48811a26093,"<b>When a person holds conflicting beliefs, they should really try to figure out what?s wrong.",Highly disagree,40/94,Somewhat disagree,2,1708007548415,1708007552952,\Somewhat disagree\,\Somewhat disagree\,\2\,1708007552580,1708007552580,4165,4165,4537,buq,qns-item-noham,40,204494,0.0-1.0-0.39,65ce1f8986021fa092b3e27a,AWAITING REVIEW,2024-02-15T14:28:49.971000Z,2024-02-15T14:37:19.950000Z,,2024-02-15T14:37:20.517981Z,510.0,CVPIIDEI,1899,30,Female,Mixed,United States,United States,United States,English,No,Full-Time,Not Applicable
631b842a5603f48811a26093,<b>Knowing what?s important in life is easy.,Highly disagree,41/94,Highly disagree,1,1708007552953,1708007555688,\Highly disagree\,\Highly disagree\,\1\,1708007555219,1708007555219,2266,2266,2735,buq,qns-item-noham,41,207230,0.0-1.0-0.40,65ce1f8986021fa092b3e27a,AWAITING REVIEW,2024-02-15T14:28:49.971000Z,2024-02-15T14:37:19.950000Z,,2024-02-15T14:37:20.517981Z,510.0,CVPIIDEI,1899,30,Female,Mixed,United States,United States,United States,English,No,Full-Time,Not Applicable
631b842a5603f48811a26093,<b>I swim across the Atlantic Ocean to get to work every day.,Highly disagree,42/94,Highly disagree,1,1708007555689,1708007558228,\Highly disagree\,\Highly disagree\,\1\,1708007557664,1708007557664,1975,1975,2539,buq,qns-item-noham,42,209770,0.0-1.0-0.41,65ce1f8986021fa092b3e27a,AWAITING REVIEW,2024-02-15T14:28:49.971000Z,2024-02-15T14:37:19.950000Z,,2024-02-15T14:37:20.517981Z,510.0,CVPIIDEI,1899,30,Female,Mixed,United States,United States,United States,English,No,Full-Time,Not Applicable
631b842a5603f48811a26093,"<b>Sometimes, you just have to ignore evidence that you know is wrong.",Highly disagree,43/94,Somewhat agree,3,1708007558229,1708007563221,\Somewhat disagree\,\Somewhat agree\,\2\,1708007560647,1708007562033,2418,3804,4992,buq,qns-item-noham,43,214763,0.0-1.0-0.42,65ce1f8986021fa092b3e27a,AWAITING REVIEW,2024-02-15T14:28:49.971000Z,2024-02-15T14:37:19.950000Z,,2024-02-15T14:37:20.517981Z,510.0,CVPIIDEI,1899,30,Female,Mixed,United States,United States,United States,English,No,Full-Time,Not Applicable
631b842a5603f48811a26093,<b>I have had some false beliefs.,Highly disagree,44/94,Somewhat disagree,2,1708007563222,1708007565155,\Somewhat disagree\,\Somewhat disagree\,\2\,1708007564679,1708007564679,1457,1457,1933,buq,qns-item-noham,44,216698,0.0-1.0-0.43,65ce1f8986021fa092b3e27a,AWAITING REVIEW,2024-02-15T14:28:49.971000Z,2024-02-15T14:37:19.950000Z,,2024-02-15T14:37:20.517981Z,510.0,CVPIIDEI,1899,30,Female,Mixed,United States,United States,United States,English,No,Full-Time,Not Applicable
631b842a5603f48811a26093,"<b>If one friend does something that upsets me, I sometimes start to distrust people in general.",Highly disagree,45/94,Highly disagree,1,1708007565157,1708007567981,\Highly disagree\,\Highly disagree\,\1\,1708007567472,1708007567472,2315,2315,2824,buq,qns-item-noham,45,219523,0.0-1.0-0.44,65ce1f8986021fa092b3e27a,AWAITING REVIEW,2024-02-15T14:28:49.971000Z,2024-02-15T14:37:19.950000Z,,2024-02-15T14:37:20.517981Z,510.0,CVPIIDEI,1899,30,Female,Mixed,United States,United States,United States,English,No,Full-Time,Not Applicable
631b842a5603f48811a26093,<b>The facts about most important matters are easy to find.,Highly disagree,46/94,Somewhat disagree,2,1708007567983,1708007570743,\Somewhat disagree\,\Somewhat disagree\,\2\,1708007570401,1708007570401,2418,2418,2760,buq,qns-item-noham,46,222285,0.0-1.0-0.45,65ce1f8986021fa092b3e27a,AWAITING REVIEW,2024-02-15T14:28:49.971000Z,2024-02-15T14:37:19.950000Z,,2024-02-15T14:37:20.517981Z,510.0,CVPIIDEI,1899,30,Female,Mixed,United States,United States,United States,English,No,Full-Time,Not Applicable
631b842a5603f48811a26093,<b>It?s better to know what?s true than to know what?s moral.,Highly disagree,47/94,Highly disagree,1,1708007570744,1708007574196,\Highly disagree\,\Highly disagree\,\1\,1708007573708,1708007573708,2964,2964,3452,buq,qns-item-noham,47,225738,0.0-1.0-0.46,65ce1f8986021fa092b3e27a,AWAITING REVIEW,2024-02-15T14:28:49.971000Z,2024-02-15T14:37:19.950000Z,,2024-02-15T14:37:20.517981Z,510.0,CVPIIDEI,1899,30,Female,Mixed,United States,United States,United States,English,No,Full-Time,Not Applicable
631b842a5603f48811a26093,<b>I used to think the world was less complicated than I do now.,Highly disagree,48/94,Highly agree,4,1708007574197,1708007576977,\Highly agree\,\Highly agree\,\4\,1708007576452,1708007576452,2255,2255,2780,buq,qns-item-noham,48,228519,0.0-1.0-0.47,65ce1f8986021fa092b3e27a,AWAITING REVIEW,2024-02-15T14:28:49.971000Z,2024-02-15T14:37:19.950000Z,,2024-02-15T14:37:20.517981Z,510.0,CVPIIDEI,1899,30,Female,Mixed,United States,United States,United States,English,No,Full-Time,Not Applicable
631b842a5603f48811a26093,<b>People are usually completely right or completely wrong.,Highly disagree,49/94,Highly disagree,1,1708007576979,1708007579453,\Highly disagree\,\Highly disagree\,\1\,1708007578720,1708007578720,1741,1741,2474,buq,qns-item-noham,49,230995,0.0-1.0-0.48,65ce1f8986021fa092b3e27a,AWAITING REVIEW,2024-02-15T14:28:49.971000Z,2024-02-15T14:37:19.950000Z,,2024-02-15T14:37:20.517981Z,510.0,CVPIIDEI,1899,30,Female,Mixed,United States,United States,United States,English,No,Full-Time,Not Applicable
631b842a5603f48811a26093,<b>I spend a lot of time considering alternatives to my beliefs.,Highly disagree,50/94,Somewhat agree,3,1708007579455,1708007584933,\Somewhat agree\,\Somewhat agree\,\3\,1708007582316,1708007584278,2861,4823,5478,buq,qns-item-noham,50,236475,0.0-1.0-0.49,65ce1f8986021fa092b3e27a,AWAITING REVIEW,2024-02-15T14:28:49.971000Z,2024-02-15T14:37:19.950000Z,,2024-02-15T14:37:20.517981Z,510.0,CVPIIDEI,1899,30,Female,Mixed,United States,United States,United States,English,No,Full-Time,Not Applicable
631b842a5603f48811a26093,"<b>Political enemies need to be defeated, not convinced.",Highly disagree,51/94,Highly agree,4,1708007584933,1708007586907,\Highly agree\,\Highly agree\,\4\,1708007586448,1708007586448,1515,1515,1974,buq,qns-item-noham,51,238449,0.0-1.0-0.50,65ce1f8986021fa092b3e27a,AWAITING REVIEW,2024-02-15T14:28:49.971000Z,2024-02-15T14:37:19.950000Z,,2024-02-15T14:37:20.517981Z,510.0,CVPIIDEI,1899,30,Female,Mixed,United States,United States,United States,English,No,Full-Time,Not Applicable
631b842a5603f48811a26093,<b>I form my political views only after meticulously gathering historical and present information about their policies.,Highly disagree,52/94,Somewhat agree,3,1708007586908,1708007591427,\Somewhat disagree\,\Somewhat agree\,\2\,1708007590640,1708007590955,3732,4047,4519,buq,qns-item-noham,52,242969,0.0-1.0-0.51,65ce1f8986021fa092b3e27a,AWAITING REVIEW,2024-02-15T14:28:49.971000Z,2024-02-15T14:37:19.950000Z,,2024-02-15T14:37:20.517981Z,510.0,CVPIIDEI,1899,30,Female,Mixed,United States,United States,United States,English,No,Full-Time,Not Applicable
631b842a5603f48811a26093,<b>It is difficult for me to remember the last time I was surprised by politics.,Highly disagree,53/94,Highly agree,4,1708007591429,1708007594272,\Highly agree\,\Highly agree\,\4\,1708007593593,1708007593593,2164,2164,2843,buq,qns-item-noham,53,245814,0.0-1.0-0.52,65ce1f8986021fa092b3e27a,AWAITING REVIEW,2024-02-15T14:28:49.971000Z,2024-02-15T14:37:19.950000Z,,2024-02-15T14:37:20.517981Z,510.0,CVPIIDEI,1899,30,Female,Mixed,United States,United States,United States,English,No,Full-Time,Not Applicable
631b842a5603f48811a26093,"<b>When I find out I?m wrong, I think a lot about my related beliefs.",Highly disagree,54/94,Somewhat agree,3,1708007594273,1708007597474,\Somewhat agree\,\Somewhat agree\,\3\,1708007596999,1708007596999,2726,2726,3201,buq,qns-item-noham,54,249016,0.0-1.0-0.53,65ce1f8986021fa092b3e27a,AWAITING REVIEW,2024-02-15T14:28:49.971000Z,2024-02-15T14:37:19.950000Z,,2024-02-15T14:37:20.517981Z,510.0,CVPIIDEI,1899,30,Female,Mixed,United States,United States,United States,English,No,Full-Time,Not Applicable
631b842a5603f48811a26093,"<b>If the political party I support messes up, it makes me think you can?t trust anyone these days",Highly disagree,55/94,Somewhat agree,3,1708007597475,1708007600526,\Somewhat agree\,\Somewhat agree\,\3\,1708007600062,1708007600062,2587,2587,3051,buq,qns-item-noham,55,252068,0.0-1.0-0.54,65ce1f8986021fa092b3e27a,AWAITING REVIEW,2024-02-15T14:28:49.971000Z,2024-02-15T14:37:19.950000Z,,2024-02-15T14:37:20.517981Z,510.0,CVPIIDEI,1899,30,Female,Mixed,United States,United States,United States,English,No,Full-Time,Not Applicable
631b842a5603f48811a26093,<b>People?s brains turn off when they talk about politics.,Highly disagree,56/94,Highly agree,4,1708007600527,1708007603463,\Highly agree\,\Highly agree\,\4\,1708007602982,1708007602982,2455,2455,2936,buq,qns-item-noham,56,255005,0.0-1.0-0.55,65ce1f8986021fa092b3e27a,AWAITING REVIEW,2024-02-15T14:28:49.971000Z,2024-02-15T14:37:19.950000Z,,2024-02-15T14:37:20.517981Z,510.0,CVPIIDEI,1899,30,Female,Mixed,United States,United States,United States,English,No,Full-Time,Not Applicable
631b842a5603f48811a26093,<b>People who are wrong are usually just ignoring the obvious.,Highly disagree,57/94,Somewhat agree,3,1708007603466,1708007606934,\Somewhat disagree\,\Somewhat agree\,\2\,1708007605423,1708007606257,1957,2791,3468,buq,qns-item-noham,57,258476,0.0-1.0-0.56,65ce1f8986021fa092b3e27a,AWAITING REVIEW,2024-02-15T14:28:49.971000Z,2024-02-15T14:37:19.950000Z,,2024-02-15T14:37:20.517981Z,510.0,CVPIIDEI,1899,30,Female,Mixed,United States,United States,United States,English,No,Full-Time,Not Applicable
631b842a5603f48811a26093,"<b>When forming my views on people, I rely more on what they are like now rather than rely on my past experience with them.",Highly disagree,58/94,Somewhat agree,3,1708007606935,1708007637550,\Somewhat agree\,\Somewhat agree\,\3\,1708007636760,1708007636760,29825,29825,30615,buq,qns-item-noham,58,289092,0.0-1.0-0.57,65ce1f8986021fa092b3e27a,AWAITING REVIEW,2024-02-15T14:28:49.971000Z,2024-02-15T14:37:19.950000Z,,2024-02-15T14:37:20.517981Z,510.0,CVPIIDEI,1899,30,Female,Mixed,United States,United States,United States,English,No,Full-Time,Not Applicable
631b842a5603f48811a26093,"<b>When people contradict my beliefs, I usually know about their evidence already.",Highly disagree,59/94,Somewhat agree,3,1708007637552,1708007641551,\Somewhat agree\,\Somewhat agree\,\3\,1708007641116,1708007641116,3564,3564,3999,buq,qns-item-noham,59,293093,0.0-1.0-0.58,65ce1f8986021fa092b3e27a,AWAITING REVIEW,2024-02-15T14:28:49.971000Z,2024-02-15T14:37:19.950000Z,,2024-02-15T14:37:20.517981Z,510.0,CVPIIDEI,1899,30,Female,Mixed,United States,United States,United States,English,No,Full-Time,Not Applicable
631b842a5603f48811a26093,<b>Figuring out what?s true and what?s false mainly requires a strong moral compass.,Highly disagree,60/94,Highly agree,4,1708007641552,1708007647246,\Highly agree\,\Highly agree\,\4\,1708007646703,1708007646703,5151,5151,5694,buq,qns-item-noham,60,298788,0.0-1.0-0.59,65ce1f8986021fa092b3e27a,AWAITING REVIEW,2024-02-15T14:28:49.971000Z,2024-02-15T14:37:19.950000Z,,2024-02-15T14:37:20.517981Z,510.0,CVPIIDEI,1899,30,Female,Mixed,United States,United States,United States,English,No,Full-Time,Not Applicable
631b842a5603f48811a26093,"<b>Usually I?m wrong about simple things, not complicated ones.",Highly disagree,61/94,Highly agree,4,1708007647247,1708007660767,\Highly agree\,\Highly agree\,\4\,1708007659933,1708007659933,12686,12686,13520,buq,qns-item-noham,61,312309,0.0-1.0-0.60,65ce1f8986021fa092b3e27a,AWAITING REVIEW,2024-02-15T14:28:49.971000Z,2024-02-15T14:37:19.950000Z,,2024-02-15T14:37:20.517981Z,510.0,CVPIIDEI,1899,30,Female,Mixed,United States,United States,United States,English,No,Full-Time,Not Applicable
631b842a5603f48811a26093,<b>Getting all the information I want about important things is hard.,Highly disagree,62/94,Somewhat disagree,2,1708007660768,1708007663404,\Somewhat disagree\,\Somewhat disagree\,\2\,1708007663032,1708007663032,2264,2264,2636,buq,qns-item-noham,62,314946,0.0-1.0-0.61,65ce1f8986021fa092b3e27a,AWAITING REVIEW,2024-02-15T14:28:49.971000Z,2024-02-15T14:37:19.950000Z,,2024-02-15T14:37:20.517981Z,510.0,CVPIIDEI,1899,30,Female,Mixed,United States,United States,United States,English,No,Full-Time,Not Applicable
631b842a5603f48811a26093,<b>Most false beliefs spread because people try to deceive one another.,Highly disagree,63/94,Somewhat agree,3,1708007663405,1708007665920,\Highly agree\,\Somewhat agree\,\4\,1708007665033,1708007665375,1628,1970,2515,buq,qns-item-noham,63,317462,0.0-1.0-0.62,65ce1f8986021fa092b3e27a,AWAITING REVIEW,2024-02-15T14:28:49.971000Z,2024-02-15T14:37:19.950000Z,,2024-02-15T14:37:20.517981Z,510.0,CVPIIDEI,1899,30,Female,Mixed,United States,United States,United States,English,No,Full-Time,Not Applicable
631b842a5603f48811a26093,<b>I can usually find something to agree with in most people?s beliefs.,Highly disagree,64/94,Somewhat agree,3,1708007665921,1708007668460,\Somewhat agree\,\Somewhat agree\,\3\,1708007667776,1708007667776,1855,1855,2539,buq,qns-item-noham,64,320002,0.0-1.0-0.63,65ce1f8986021fa092b3e27a,AWAITING REVIEW,2024-02-15T14:28:49.971000Z,2024-02-15T14:37:19.950000Z,,2024-02-15T14:37:20.517981Z,510.0,CVPIIDEI,1899,30,Female,Mixed,United States,United States,United States,English,No,Full-Time,Not Applicable
631b842a5603f48811a26093,<b>I only form my views of people once I get to know them very well.,Highly disagree,65/94,Highly agree,4,1708007668463,1708007671130,\Highly agree\,\Highly agree\,\4\,1708007670546,1708007670546,2083,2083,2667,buq,qns-item-noham,65,322672,0.0-1.0-0.64,65ce1f8986021fa092b3e27a,AWAITING REVIEW,2024-02-15T14:28:49.971000Z,2024-02-15T14:37:19.950000Z,,2024-02-15T14:37:20.517981Z,510.0,CVPIIDEI,1899,30,Female,Mixed,United States,United States,United States,English,No,Full-Time,Not Applicable
631b842a5603f48811a26093,"<b>When people tell me important things about the world, I usually believe them.",Highly disagree,66/94,Somewhat agree,3,1708007671131,1708007675111,\Somewhat disagree\,\Somewhat agree\,\2\,1708007674277,1708007674538,3146,3407,3980,buq,qns-item-noham,66,326653,0.0-1.0-0.65,65ce1f8986021fa092b3e27a,AWAITING REVIEW,2024-02-15T14:28:49.971000Z,2024-02-15T14:37:19.950000Z,,2024-02-15T14:37:20.517981Z,510.0,CVPIIDEI,1899,30,Female,Mixed,United States,United States,United States,English,No,Full-Time,Not Applicable
631b842a5603f48811a26093,"<b>If a friend does something that upsets me, it reminds me what an unpredictable place the world is.",Highly disagree,67/94,Somewhat agree,3,1708007675114,1708007679287,\Somewhat agree\,\Somewhat agree\,\3\,1708007678823,1708007678823,3709,3709,4173,buq,qns-item-noham,67,330829,0.0-1.0-0.66,65ce1f8986021fa092b3e27a,AWAITING REVIEW,2024-02-15T14:28:49.971000Z,2024-02-15T14:37:19.950000Z,,2024-02-15T14:37:20.517981Z,510.0,CVPIIDEI,1899,30,Female,Mixed,United States,United States,United States,English,No,Full-Time,Not Applicable
631b842a5603f48811a26093,<b>People tend to believe whatever is good for their friends.,Highly disagree,68/94,Somewhat disagree,2,1708007679288,1708007682140,\Somewhat disagree\,\Somewhat disagree\,\2\,1708007681764,1708007681764,2476,2476,2852,buq,qns-item-noham,68,333682,0.0-1.0-0.67,65ce1f8986021fa092b3e27a,AWAITING REVIEW,2024-02-15T14:28:49.971000Z,2024-02-15T14:37:19.950000Z,,2024-02-15T14:37:20.517981Z,510.0,CVPIIDEI,1899,30,Female,Mixed,United States,United States,United States,English,No,Full-Time,Not Applicable
631b842a5603f48811a26093,<b>I used to be more certain my beliefs were true.,Highly disagree,69/94,Highly disagree,1,1708007682141,1708007684718,\Highly disagree\,\Highly disagree\,\1\,1708007684289,1708007684289,2148,2148,2577,buq,qns-item-noham,69,336260,0.0-1.0-0.68,65ce1f8986021fa092b3e27a,AWAITING REVIEW,2024-02-15T14:28:49.971000Z,2024-02-15T14:37:19.950000Z,,2024-02-15T14:37:20.517981Z,510.0,CVPIIDEI,1899,30,Female,Mixed,United States,United States,United States,English,No,Full-Time,Not Applicable
631b842a5603f48811a26093,<b>It?s often pretty easy to figure out whether something is true based on who said it.,Highly disagree,70/94,Somewhat disagree,2,1708007684718,1708007688819,\Somewhat disagree\,\Somewhat disagree\,\2\,1708007687968,1708007687968,3250,3250,4101,buq,qns-item-noham,70,340361,0.0-1.0-0.69,65ce1f8986021fa092b3e27a,AWAITING REVIEW,2024-02-15T14:28:49.971000Z,2024-02-15T14:37:19.950000Z,,2024-02-15T14:37:20.517981Z,510.0,CVPIIDEI,1899,30,Female,Mixed,United States,United States,United States,English,No,Full-Time,Not Applicable
631b842a5603f48811a26093,<b>I transform into a hummingbird every day.,Highly disagree,71/94,Highly disagree,1,1708007688820,1708007691202,\Highly disagree\,\Highly disagree\,\1\,1708007690513,1708007690513,1693,1693,2382,buq,qns-item-noham,71,342744,0.0-1.0-0.70,65ce1f8986021fa092b3e27a,AWAITING REVIEW,2024-02-15T14:28:49.971000Z,2024-02-15T14:37:19.950000Z,,2024-02-15T14:37:20.517981Z,510.0,CVPIIDEI,1899,30,Female,Mixed,United States,United States,United States,English,No,Full-Time,Not Applicable
631b842a5603f48811a26093,<b>I think a lot about arguments against my views.,Highly disagree,72/94,Somewhat disagree,2,1708007691203,1708007694710,\Somewhat disagree\,\Somewhat disagree\,\2\,1708007694118,1708007694118,2915,2915,3507,buq,qns-item-noham,72,346252,0.0-1.0-0.71,65ce1f8986021fa092b3e27a,AWAITING REVIEW,2024-02-15T14:28:49.971000Z,2024-02-15T14:37:19.950000Z,,2024-02-15T14:37:20.517981Z,510.0,CVPIIDEI,1899,30,Female,Mixed,United States,United States,United States,English,No,Full-Time,Not Applicable
631b842a5603f48811a26093,<b>Personal experience is usually more important than facts and figures.,Highly disagree,73/94,Highly disagree,1,1708007694711,1708007697383,\Highly disagree\,\Highly disagree\,\1\,1708007696795,1708007696795,2084,2084,2672,buq,qns-item-noham,73,348925,0.0-1.0-0.72,65ce1f8986021fa092b3e27a,AWAITING REVIEW,2024-02-15T14:28:49.971000Z,2024-02-15T14:37:19.950000Z,,2024-02-15T14:37:20.517981Z,510.0,CVPIIDEI,1899,30,Female,Mixed,United States,United States,United States,English,No,Full-Time,Not Applicable
631b842a5603f48811a26093,<b>I?ve been tricked before about important matters.,Highly disagree,74/94,Somewhat agree,3,1708007697383,1708007701109,\Somewhat agree\,\Somewhat agree\,\3\,1708007700412,1708007700412,3029,3029,3726,buq,qns-item-noham,74,352651,0.0-1.0-0.73,65ce1f8986021fa092b3e27a,AWAITING REVIEW,2024-02-15T14:28:49.971000Z,2024-02-15T14:37:19.950000Z,,2024-02-15T14:37:20.517981Z,510.0,CVPIIDEI,1899,30,Female,Mixed,United States,United States,United States,English,No,Full-Time,Not Applicable
631b842a5603f48811a26093,<b>I would need to be totally wowed if I were to change my opinion of a restaurant I don?t like.,Highly disagree,75/94,Somewhat disagree,2,1708007701109,1708007706137,\Highly agree\,\Somewhat disagree\,\4\,1708007703671,1708007705793,2562,4684,5028,buq,qns-item-noham,75,357679,0.0-1.0-0.74,65ce1f8986021fa092b3e27a,AWAITING REVIEW,2024-02-15T14:28:49.971000Z,2024-02-15T14:37:19.950000Z,,2024-02-15T14:37:20.517981Z,510.0,CVPIIDEI,1899,30,Female,Mixed,United States,United States,United States,English,No,Full-Time,Not Applicable
631b842a5603f48811a26093,<b>I care a lot about politics.,Highly disagree,76/94,Somewhat agree,3,1708007706138,1708007707827,\Somewhat agree\,\Somewhat agree\,\3\,1708007707229,1708007707229,1091,1091,1689,buq,qns-item-noham,76,359370,0.0-1.0-0.75,65ce1f8986021fa092b3e27a,AWAITING REVIEW,2024-02-15T14:28:49.971000Z,2024-02-15T14:37:19.950000Z,,2024-02-15T14:37:20.517981Z,510.0,CVPIIDEI,1899,30,Female,Mixed,United States,United States,United States,English,No,Full-Time,Not Applicable
631b842a5603f48811a26093,<b>There are some topics I?ve been really wrong about.,Highly disagree,77/94,Highly agree,4,1708007707828,1708007709983,\Highly agree\,\Highly agree\,\4\,1708007709352,1708007709352,1524,1524,2155,buq,qns-item-noham,77,361525,0.0-1.0-0.76,65ce1f8986021fa092b3e27a,AWAITING REVIEW,2024-02-15T14:28:49.971000Z,2024-02-15T14:37:19.950000Z,,2024-02-15T14:37:20.517981Z,510.0,CVPIIDEI,1899,30,Female,Mixed,United States,United States,United States,English,No,Full-Time,Not Applicable
631b842a5603f48811a26093,<b>Most beliefs can be supported with at least some evidence.,Highly disagree,78/94,Somewhat agree,3,1708007709984,1708007711989,\Somewhat agree\,\Somewhat agree\,\3\,1708007711439,1708007711439,1455,1455,2005,buq,qns-item-noham,78,363531,0.0-1.0-0.77,65ce1f8986021fa092b3e27a,AWAITING REVIEW,2024-02-15T14:28:49.971000Z,2024-02-15T14:37:19.950000Z,,2024-02-15T14:37:20.517981Z,510.0,CVPIIDEI,1899,30,Female,Mixed,United States,United States,United States,English,No,Full-Time,Not Applicable
631b842a5603f48811a26093,<b>Other people make life out to be more complicated than it really is.,Highly disagree,79/94,Highly disagree,1,1708007711989,1708007715282,\Highly disagree\,\Highly disagree\,\1\,1708007714866,1708007714866,2877,2877,3293,buq,qns-item-noham,79,366824,0.0-1.0-0.78,65ce1f8986021fa092b3e27a,AWAITING REVIEW,2024-02-15T14:28:49.971000Z,2024-02-15T14:37:19.950000Z,,2024-02-15T14:37:20.517981Z,510.0,CVPIIDEI,1899,30,Female,Mixed,United States,United States,United States,English,No,Full-Time,Not Applicable
631b842a5603f48811a26093,"<b>Policy details don?t matter much, just the big picture.",Highly disagree,80/94,Highly disagree,1,1708007715283,1708007717154,\Highly disagree\,\Highly disagree\,\1\,1708007716548,1708007716548,1265,1265,1871,buq,qns-item-noham,80,368696,0.0-1.0-0.79,65ce1f8986021fa092b3e27a,AWAITING REVIEW,2024-02-15T14:28:49.971000Z,2024-02-15T14:37:19.950000Z,,2024-02-15T14:37:20.517981Z,510.0,CVPIIDEI,1899,30,Female,Mixed,United States,United States,United States,English,No,Full-Time,Not Applicable
631b842a5603f48811a26093,<b>I know my friends so well they can hardly ever surprise me.,Highly disagree,81/94,Somewhat disagree,2,1708007717155,1708007719287,\Somewhat disagree\,\Somewhat disagree\,\2\,1708007718781,1708007718781,1626,1626,2132,buq,qns-item-noham,81,370829,0.0-1.0-0.80,65ce1f8986021fa092b3e27a,AWAITING REVIEW,2024-02-15T14:28:49.971000Z,2024-02-15T14:37:19.950000Z,,2024-02-15T14:37:20.517981Z,510.0,CVPIIDEI,1899,30,Female,Mixed,United States,United States,United States,English,No,Full-Time,Not Applicable
631b842a5603f48811a26093,<b>I do not often change my views on people.,Highly disagree,82/94,Highly disagree,1,1708007719288,1708007721952,\Highly disagree\,\Highly disagree\,\1\,1708007721009,1708007721009,1721,1721,2664,buq,qns-item-noham,82,373494,0.0-1.0-0.81,65ce1f8986021fa092b3e27a,AWAITING REVIEW,2024-02-15T14:28:49.971000Z,2024-02-15T14:37:19.950000Z,,2024-02-15T14:37:20.517981Z,510.0,CVPIIDEI,1899,30,Female,Mixed,United States,United States,United States,English,No,Full-Time,Not Applicable
631b842a5603f48811a26093,<b>I?m more certain about my beliefs than I used to be.,Highly disagree,83/94,Highly agree,4,1708007721953,1708007724280,\Highly agree\,\Highly agree\,\4\,1708007723777,1708007723777,1824,1824,2327,buq,qns-item-noham,83,375822,0.0-1.0-0.82,65ce1f8986021fa092b3e27a,AWAITING REVIEW,2024-02-15T14:28:49.971000Z,2024-02-15T14:37:19.950000Z,,2024-02-15T14:37:20.517981Z,510.0,CVPIIDEI,1899,30,Female,Mixed,United States,United States,United States,English,No,Full-Time,Not Applicable
631b842a5603f48811a26093,<b>People often tell falsehoods unintentionally.,Highly disagree,84/94,Somewhat disagree,2,1708007724281,1708007727497,\Somewhat disagree\,\Somewhat disagree\,\2\,1708007726880,1708007726880,2599,2599,3216,buq,qns-item-noham,84,379039,0.0-1.0-0.83,65ce1f8986021fa092b3e27a,AWAITING REVIEW,2024-02-15T14:28:49.971000Z,2024-02-15T14:37:19.950000Z,,2024-02-15T14:37:20.517981Z,510.0,CVPIIDEI,1899,30,Female,Mixed,United States,United States,United States,English,No,Full-Time,Not Applicable
631b842a5603f48811a26093,<b>Most people don?t know much about most things.,Highly disagree,85/94,Somewhat agree,3,1708007727498,1708007729711,\Somewhat agree\,\Somewhat agree\,\3\,1708007729355,1708007729355,1857,1857,2213,buq,qns-item-noham,85,381253,0.0-1.0-0.84,65ce1f8986021fa092b3e27a,AWAITING REVIEW,2024-02-15T14:28:49.971000Z,2024-02-15T14:37:19.950000Z,,2024-02-15T14:37:20.517981Z,510.0,CVPIIDEI,1899,30,Female,Mixed,United States,United States,United States,English,No,Full-Time,Not Applicable
631b842a5603f48811a26093,"<b>If I find out something new about someone, I easily change my views about them.",Highly disagree,86/94,Somewhat agree,3,1708007729712,1708007732876,\Somewhat agree\,\Somewhat agree\,\3\,1708007732421,1708007732421,2709,2709,3164,buq,qns-item-noham,86,384418,0.0-1.0-0.85,65ce1f8986021fa092b3e27a,AWAITING REVIEW,2024-02-15T14:28:49.971000Z,2024-02-15T14:37:19.950000Z,,2024-02-15T14:37:20.517981Z,510.0,CVPIIDEI,1899,30,Female,Mixed,United States,United States,United States,English,No,Full-Time,Not Applicable
631b842a5603f48811a26093,<b>Having true beliefs is difficult.,Highly disagree,87/94,Highly disagree,1,1708007732879,1708007735036,\Highly disagree\,\Highly disagree\,\1\,1708007734560,1708007734560,1681,1681,2157,buq,qns-item-noham,87,386578,0.0-1.0-0.86,65ce1f8986021fa092b3e27a,AWAITING REVIEW,2024-02-15T14:28:49.971000Z,2024-02-15T14:37:19.950000Z,,2024-02-15T14:37:20.517981Z,510.0,CVPIIDEI,1899,30,Female,Mixed,United States,United States,United States,English,No,Full-Time,Not Applicable
631b842a5603f48811a26093,<b>I don?t try new foods since I know I won?t like them.,Highly disagree,88/94,Highly disagree,1,1708007735037,1708007749419,\Highly disagree\,\Highly disagree\,\1\,1708007740384,1708007740384,5347,5347,14382,buq,qns-item-noham,88,400961,0.0-1.0-0.87,65ce1f8986021fa092b3e27a,AWAITING REVIEW,2024-02-15T14:28:49.971000Z,2024-02-15T14:37:19.950000Z,,2024-02-15T14:37:20.517981Z,510.0,CVPIIDEI,1899,30,Female,Mixed,United States,United States,United States,English,No,Full-Time,Not Applicable
631b842a5603f48811a26093,<b>Other people trick each other a lot.,Highly disagree,89/94,Somewhat agree,3,1708007749422,1708007759508,\Highly disagree\,\Somewhat agree\,\1\,1708007756319,1708007759092,6897,9670,10086,buq,qns-item-noham,89,411050,0.0-1.0-0.88,65ce1f8986021fa092b3e27a,AWAITING REVIEW,2024-02-15T14:28:49.971000Z,2024-02-15T14:37:19.950000Z,,2024-02-15T14:37:20.517981Z,510.0,CVPIIDEI,1899,30,Female,Mixed,United States,United States,United States,English,No,Full-Time,Not Applicable
631b842a5603f48811a26093,<b>I would need to learn a lot about a person for my opinion of them to be swayed.,Highly disagree,90/94,Highly agree,4,1708007759509,1708007763357,\Somewhat agree\,\Highly agree\,\3\,1708007762367,1708007762729,2858,3220,3848,buq,qns-item-noham,90,414899,0.0-1.0-0.89,65ce1f8986021fa092b3e27a,AWAITING REVIEW,2024-02-15T14:28:49.971000Z,2024-02-15T14:37:19.950000Z,,2024-02-15T14:37:20.517981Z,510.0,CVPIIDEI,1899,30,Female,Mixed,United States,United States,United States,English,No,Full-Time,Not Applicable
631b842a5603f48811a26093,<b>People can?t usually trick me when it comes to topics I care about.,Highly disagree,91/94,Highly agree,4,1708007763358,1708007775639,\Highly agree\,\Highly agree\,\4\,1708007774986,1708007774986,11628,11628,12281,buq,qns-item-noham,91,427181,0.0-1.0-0.90,65ce1f8986021fa092b3e27a,AWAITING REVIEW,2024-02-15T14:28:49.971000Z,2024-02-15T14:37:19.950000Z,,2024-02-15T14:37:20.517981Z,510.0,CVPIIDEI,1899,30,Female,Mixed,United States,United States,United States,English,No,Full-Time,Not Applicable
631b842a5603f48811a26093,<b>I do not often change my views on food.,Highly disagree,92/94,Somewhat agree,3,1708007775640,1708007778301,\Somewhat agree\,\Somewhat agree\,\3\,1708007777857,1708007777857,2217,2217,2661,buq,qns-item-noham,92,429843,0.0-1.0-0.91,65ce1f8986021fa092b3e27a,AWAITING REVIEW,2024-02-15T14:28:49.971000Z,2024-02-15T14:37:19.950000Z,,2024-02-15T14:37:20.517981Z,510.0,CVPIIDEI,1899,30,Female,Mixed,United States,United States,United States,English,No,Full-Time,Not Applicable
631b842a5603f48811a26093,<b>Specific policies are often very important to me.,Highly disagree,93/94,Highly agree,4,1708007778302,1708007780578,\Highly agree\,\Highly agree\,\4\,1708007780034,1708007780034,1732,1732,2276,buq,qns-item-noham,93,432120,0.0-1.0-0.92,65ce1f8986021fa092b3e27a,AWAITING REVIEW,2024-02-15T14:28:49.971000Z,2024-02-15T14:37:19.950000Z,,2024-02-15T14:37:20.517981Z,510.0,CVPIIDEI,1899,30,Female,Mixed,United States,United States,United States,English,No,Full-Time,Not Applicable
631b842a5603f48811a26093,<b>Most people are woefully under-informed.,Highly disagree,94/94,Highly agree,4,1708007780579,1708007783139,\Highly agree\,\Highly agree\,\4\,1708007782667,1708007782667,2088,2088,2560,buq,qns-item-noham,94,434681,0.0-1.0-0.93,65ce1f8986021fa092b3e27a,AWAITING REVIEW,2024-02-15T14:28:49.971000Z,2024-02-15T14:37:19.950000Z,,2024-02-15T14:37:20.517981Z,510.0,CVPIIDEI,1899,30,Female,Mixed,United States,United States,United States,English,No,Full-Time,Not Applicable
631b842a5603f48811a26093,,,,,,,,,,,,,,,,,,,,,65ce1f8986021fa092b3e27a,AWAITING REVIEW,2024-02-15T14:28:49.971000Z,2024-02-15T14:37:19.950000Z,,2024-02-15T14:37:20.517981Z,510.0,CVPIIDEI,1899,30,Female,Mixed,United States,United States,United States,English,No,Full-Time,Not Applicable
