PROLIFIC_PID,Question,qns_options,quest_num,answer,answer_num,question_load_timestamp,next_btn_timestamp,text_selected,final_text_selected,option_num_selected,preview_timestamps,final_text_selected_time_stamp,rt_first_option_click,rt_final_option_click,rt_submit_click,questionnaire,trial_type,trial_index,time_elapsed,internal_node_id,Demographic_Submission id,Demographic_Status,Demographic_Started at,Demographic_Completed at,Demographic_Reviewed at,Demographic_Archived at,Demographic_Time taken,Demographic_Completion code,Demographic_Total approvals,Demographic_Age,Demographic_Sex,Demographic_Ethnicity simplified,Demographic_Country of birth,Demographic_Country of residence,Demographic_Nationality,Demographic_Language,Demographic_Student status,Demographic_Employment status,Demographic_Custom study tncs accepted at
655f8c42a20c94f85160d5dc,<b>Knowing what?s true and knowing what to do about it are usually basically the same.,Highly disagree,1/94,Somewhat disagree,2,1708007159555,1708007170664,\Somewhat disagree\,\Somewhat disagree\,\2\,1708007168617,1708007168617,9062,9062,11109,buq,qns-item-noham,1,26424,0.0-1.0-0.0,65ce1eca82438d58179de6eb,AWAITING REVIEW,2024-02-15T14:25:19.426000Z,2024-02-15T14:37:19.592000Z,,2024-02-15T14:37:20.079186Z,721.0,CVPIIDEI,479,37,Female,Black,United States,United States,United States,English,No,Part-Time,Not Applicable
655f8c42a20c94f85160d5dc,<b>Most people just believe whatever is convenient for them.,Highly disagree,2/94,Highly agree,4,1708007170667,1708007174922,\Highly agree\,\Highly agree\,\4\,1708007174227,1708007174227,3560,3560,4255,buq,qns-item-noham,2,30682,0.0-1.0-0.1,65ce1eca82438d58179de6eb,AWAITING REVIEW,2024-02-15T14:25:19.426000Z,2024-02-15T14:37:19.592000Z,,2024-02-15T14:37:20.079186Z,721.0,CVPIIDEI,479,37,Female,Black,United States,United States,United States,English,No,Part-Time,Not Applicable
655f8c42a20c94f85160d5dc,<b>Having some big beliefs helps me sort out minor ones.,Highly disagree,3/94,Somewhat agree,3,1708007174932,1708007180534,\Somewhat agree\,\Somewhat agree\,\3\,1708007179899,1708007179899,4967,4967,5602,buq,qns-item-noham,3,36294,0.0-1.0-0.2,65ce1eca82438d58179de6eb,AWAITING REVIEW,2024-02-15T14:25:19.426000Z,2024-02-15T14:37:19.592000Z,,2024-02-15T14:37:20.079186Z,721.0,CVPIIDEI,479,37,Female,Black,United States,United States,United States,English,No,Part-Time,Not Applicable
655f8c42a20c94f85160d5dc,<b>Political questions are usually pretty complicated.,Highly disagree,4/94,Somewhat agree,3,1708007180538,1708007185712,\Somewhat agree\,\Somewhat agree\,\3\,1708007185126,1708007185126,4588,4588,5174,buq,qns-item-noham,4,41472,0.0-1.0-0.3,65ce1eca82438d58179de6eb,AWAITING REVIEW,2024-02-15T14:25:19.426000Z,2024-02-15T14:37:19.592000Z,,2024-02-15T14:37:20.079186Z,721.0,CVPIIDEI,479,37,Female,Black,United States,United States,United States,English,No,Part-Time,Not Applicable
655f8c42a20c94f85160d5dc,<b>Figuring out what?s important in life requires learning a lot of facts.,Highly disagree,5/94,Highly agree,4,1708007185714,1708007192015,\Highly agree\,\Highly agree\,\4\,1708007191180,1708007191180,5466,5466,6301,buq,qns-item-noham,5,47775,0.0-1.0-0.4,65ce1eca82438d58179de6eb,AWAITING REVIEW,2024-02-15T14:25:19.426000Z,2024-02-15T14:37:19.592000Z,,2024-02-15T14:37:20.079186Z,721.0,CVPIIDEI,479,37,Female,Black,United States,United States,United States,English,No,Part-Time,Not Applicable
655f8c42a20c94f85160d5dc,<b>It is difficult for me to remember the last time I was surprised by politics.,Highly disagree,6/94,Somewhat disagree,2,1708007192018,1708007198024,\Somewhat disagree\,\Somewhat disagree\,\2\,1708007197738,1708007197738,5720,5720,6006,buq,qns-item-noham,6,53784,0.0-1.0-0.5,65ce1eca82438d58179de6eb,AWAITING REVIEW,2024-02-15T14:25:19.426000Z,2024-02-15T14:37:19.592000Z,,2024-02-15T14:37:20.079186Z,721.0,CVPIIDEI,479,37,Female,Black,United States,United States,United States,English,No,Part-Time,Not Applicable
655f8c42a20c94f85160d5dc,<b>People?s false beliefs are understandable.,Highly disagree,7/94,Highly disagree,1,1708007198027,1708007202659,\Highly disagree\,\Highly disagree\,\1\,1708007202031,1708007202031,4004,4004,4632,buq,qns-item-noham,7,58419,0.0-1.0-0.6,65ce1eca82438d58179de6eb,AWAITING REVIEW,2024-02-15T14:25:19.426000Z,2024-02-15T14:37:19.592000Z,,2024-02-15T14:37:20.079186Z,721.0,CVPIIDEI,479,37,Female,Black,United States,United States,United States,English,No,Part-Time,Not Applicable
655f8c42a20c94f85160d5dc,<b>I spend a lot of time trying to be informed about politics.,Highly disagree,8/94,Somewhat agree,3,1708007202662,1708007207883,\Somewhat agree\,\Somewhat agree\,\3\,1708007207357,1708007207357,4695,4695,5221,buq,qns-item-noham,8,63643,0.0-1.0-0.7,65ce1eca82438d58179de6eb,AWAITING REVIEW,2024-02-15T14:25:19.426000Z,2024-02-15T14:37:19.592000Z,,2024-02-15T14:37:20.079186Z,721.0,CVPIIDEI,479,37,Female,Black,United States,United States,United States,English,No,Part-Time,Not Applicable
655f8c42a20c94f85160d5dc,<b>I think a lot about whether my beliefs are right.,Highly disagree,9/94,Somewhat agree,3,1708007207886,1708007211838,\Somewhat agree\,\Somewhat agree\,\3\,1708007211176,1708007211176,3290,3290,3952,buq,qns-item-noham,9,67599,0.0-1.0-0.8,65ce1eca82438d58179de6eb,AWAITING REVIEW,2024-02-15T14:25:19.426000Z,2024-02-15T14:37:19.592000Z,,2024-02-15T14:37:20.079186Z,721.0,CVPIIDEI,479,37,Female,Black,United States,United States,United States,English,No,Part-Time,Not Applicable
655f8c42a20c94f85160d5dc,<b>Statistics can be pretty misleading sometimes.,Highly disagree,10/94,Somewhat agree,3,1708007211841,1708007215688,\Somewhat agree\,\Somewhat agree\,\3\,1708007215175,1708007215175,3334,3334,3847,buq,qns-item-noham,10,71448,0.0-1.0-0.9,65ce1eca82438d58179de6eb,AWAITING REVIEW,2024-02-15T14:25:19.426000Z,2024-02-15T14:37:19.592000Z,,2024-02-15T14:37:20.079186Z,721.0,CVPIIDEI,479,37,Female,Black,United States,United States,United States,English,No,Part-Time,Not Applicable
655f8c42a20c94f85160d5dc,<b>I have lots of beliefs that I?m only sort of sure about.,Highly disagree,11/94,Somewhat agree,3,1708007215691,1708007221755,\Somewhat agree\,\Somewhat agree\,\3\,1708007221076,1708007221076,5385,5385,6064,buq,qns-item-noham,11,77515,0.0-1.0-0.10,65ce1eca82438d58179de6eb,AWAITING REVIEW,2024-02-15T14:25:19.426000Z,2024-02-15T14:37:19.592000Z,,2024-02-15T14:37:20.079186Z,721.0,CVPIIDEI,479,37,Female,Black,United States,United States,United States,English,No,Part-Time,Not Applicable
655f8c42a20c94f85160d5dc,"<b>If I go to my favorite restaurant and the food is surprisingly bad, it reminds me there are many disappointments in life.",Highly disagree,12/94,Somewhat disagree,2,1708007221760,1708007232076,\Somewhat disagree\,\Somewhat disagree\,\2\,1708007231607,1708007231607,9847,9847,10316,buq,qns-item-noham,12,87836,0.0-1.0-0.11,65ce1eca82438d58179de6eb,AWAITING REVIEW,2024-02-15T14:25:19.426000Z,2024-02-15T14:37:19.592000Z,,2024-02-15T14:37:20.079186Z,721.0,CVPIIDEI,479,37,Female,Black,United States,United States,United States,English,No,Part-Time,Not Applicable
655f8c42a20c94f85160d5dc,"<b>If you are paying attention, please select ?Somewhat agree?",Highly disagree,13/94,Somewhat agree,3,1708007232079,1708007236975,\Somewhat agree\,\Somewhat agree\,\3\,1708007236328,1708007236328,4249,4249,4896,buq,qns-item-noham,13,92735,0.0-1.0-0.12,65ce1eca82438d58179de6eb,AWAITING REVIEW,2024-02-15T14:25:19.426000Z,2024-02-15T14:37:19.592000Z,,2024-02-15T14:37:20.079186Z,721.0,CVPIIDEI,479,37,Female,Black,United States,United States,United States,English,No,Part-Time,Not Applicable
655f8c42a20c94f85160d5dc,"<b>When I talk to others, I often worry I?ll convince them of something I didn?t mean to.",Highly disagree,14/94,Somewhat disagree,2,1708007236977,1708007248738,\Somewhat disagree\,\Somewhat disagree\,\2\,1708007248180,1708007248180,11203,11203,11761,buq,qns-item-noham,14,104498,0.0-1.0-0.13,65ce1eca82438d58179de6eb,AWAITING REVIEW,2024-02-15T14:25:19.426000Z,2024-02-15T14:37:19.592000Z,,2024-02-15T14:37:20.079186Z,721.0,CVPIIDEI,479,37,Female,Black,United States,United States,United States,English,No,Part-Time,Not Applicable
655f8c42a20c94f85160d5dc,<b>I would need to learn something utterly shocking about my party in order to change my political views.,Highly disagree,15/94,Somewhat agree,3,1708007248740,1708007255331,\Somewhat agree\,\Somewhat agree\,\3\,1708007254821,1708007254821,6081,6081,6591,buq,qns-item-noham,15,111091,0.0-1.0-0.14,65ce1eca82438d58179de6eb,AWAITING REVIEW,2024-02-15T14:25:19.426000Z,2024-02-15T14:37:19.592000Z,,2024-02-15T14:37:20.079186Z,721.0,CVPIIDEI,479,37,Female,Black,United States,United States,United States,English,No,Part-Time,Not Applicable
655f8c42a20c94f85160d5dc,"<b>When I have new experiences, I tend to think of them as unique.",Highly disagree,16/94,Somewhat agree,3,1708007255334,1708007260066,\Somewhat agree\,\Somewhat agree\,\3\,1708007259574,1708007259574,4240,4240,4732,buq,qns-item-noham,16,115826,0.0-1.0-0.15,65ce1eca82438d58179de6eb,AWAITING REVIEW,2024-02-15T14:25:19.426000Z,2024-02-15T14:37:19.592000Z,,2024-02-15T14:37:20.079186Z,721.0,CVPIIDEI,479,37,Female,Black,United States,United States,United States,English,No,Part-Time,Not Applicable
655f8c42a20c94f85160d5dc,<b>I change my mind about specific policies pretty frequently.,Highly disagree,17/94,Somewhat disagree,2,1708007260068,1708007267236,\Somewhat disagree\,\Somewhat disagree\,\2\,1708007266726,1708007266726,6658,6658,7168,buq,qns-item-noham,17,122998,0.0-1.0-0.16,65ce1eca82438d58179de6eb,AWAITING REVIEW,2024-02-15T14:25:19.426000Z,2024-02-15T14:37:19.592000Z,,2024-02-15T14:37:20.079186Z,721.0,CVPIIDEI,479,37,Female,Black,United States,United States,United States,English,No,Part-Time,Not Applicable
655f8c42a20c94f85160d5dc,"<b>If a politician in my political party supports something I disagree with, I give them the benefit of the doubt, as such issues often involve hidden complexities that aren?t obvious.   ",Highly disagree,18/94,Somewhat agree,3,1708007267242,1708007273710,\Somewhat agree\,\Somewhat agree\,\3\,1708007273222,1708007273222,5980,5980,6468,buq,qns-item-noham,18,129471,0.0-1.0-0.17,65ce1eca82438d58179de6eb,AWAITING REVIEW,2024-02-15T14:25:19.426000Z,2024-02-15T14:37:19.592000Z,,2024-02-15T14:37:20.079186Z,721.0,CVPIIDEI,479,37,Female,Black,United States,United States,United States,English,No,Part-Time,Not Applicable
655f8c42a20c94f85160d5dc,<b>People?s bad politics are usually motivated by hatefulness.,Highly disagree,19/94,Highly agree,4,1708007273713,1708007279045,\Highly agree\,\Highly agree\,\4\,1708007278412,1708007278412,4699,4699,5332,buq,qns-item-noham,19,134805,0.0-1.0-0.18,65ce1eca82438d58179de6eb,AWAITING REVIEW,2024-02-15T14:25:19.426000Z,2024-02-15T14:37:19.592000Z,,2024-02-15T14:37:20.079186Z,721.0,CVPIIDEI,479,37,Female,Black,United States,United States,United States,English,No,Part-Time,Not Applicable
655f8c42a20c94f85160d5dc,<b>I think a lot about how to reconcile my beliefs with one another.,Highly disagree,20/94,Somewhat agree,3,1708007279047,1708007285338,\Highly agree\,\Somewhat agree\,\4\,1708007283858,1708007284788,4811,5741,6291,buq,qns-item-noham,20,141098,0.0-1.0-0.19,65ce1eca82438d58179de6eb,AWAITING REVIEW,2024-02-15T14:25:19.426000Z,2024-02-15T14:37:19.592000Z,,2024-02-15T14:37:20.079186Z,721.0,CVPIIDEI,479,37,Female,Black,United States,United States,United States,English,No,Part-Time,Not Applicable
655f8c42a20c94f85160d5dc,<b>I might have false beliefs about important topics.,Highly disagree,21/94,Somewhat disagree,2,1708007285342,1708007289835,\Somewhat disagree\,\Somewhat disagree\,\2\,1708007289353,1708007289353,4011,4011,4493,buq,qns-item-noham,21,145595,0.0-1.0-0.20,65ce1eca82438d58179de6eb,AWAITING REVIEW,2024-02-15T14:25:19.426000Z,2024-02-15T14:37:19.592000Z,,2024-02-15T14:37:20.079186Z,721.0,CVPIIDEI,479,37,Female,Black,United States,United States,United States,English,No,Part-Time,Not Applicable
655f8c42a20c94f85160d5dc,"<b>If a good friend of mine does something unexpected that upsets me, I feel like I don?t know them anymore.",Highly disagree,22/94,Somewhat agree,3,1708007289839,1708007303966,\Somewhat agree\,\Somewhat agree\,\3\,1708007299525,1708007299525,9686,9686,14127,buq,qns-item-noham,22,159726,0.0-1.0-0.21,65ce1eca82438d58179de6eb,AWAITING REVIEW,2024-02-15T14:25:19.426000Z,2024-02-15T14:37:19.592000Z,,2024-02-15T14:37:20.079186Z,721.0,CVPIIDEI,479,37,Female,Black,United States,United States,United States,English,No,Part-Time,Not Applicable
655f8c42a20c94f85160d5dc,<b>Other people?s beliefs are often incoherent.,Highly disagree,23/94,Somewhat disagree,2,1708007303972,1708007308975,\Somewhat disagree\,\Somewhat disagree\,\2\,1708007308545,1708007308545,4573,4573,5003,buq,qns-item-noham,23,164735,0.0-1.0-0.22,65ce1eca82438d58179de6eb,AWAITING REVIEW,2024-02-15T14:25:19.426000Z,2024-02-15T14:37:19.592000Z,,2024-02-15T14:37:20.079186Z,721.0,CVPIIDEI,479,37,Female,Black,United States,United States,United States,English,No,Part-Time,Not Applicable
655f8c42a20c94f85160d5dc,"<b>Every now and then, a new experience will unsettle beliefs I?ve had for a while.",Highly disagree,24/94,Somewhat agree,3,1708007308978,1708007314956,\Somewhat agree\,\Somewhat agree\,\3\,1708007313352,1708007313352,4374,4374,5978,buq,qns-item-noham,24,170716,0.0-1.0-0.23,65ce1eca82438d58179de6eb,AWAITING REVIEW,2024-02-15T14:25:19.426000Z,2024-02-15T14:37:19.592000Z,,2024-02-15T14:37:20.079186Z,721.0,CVPIIDEI,479,37,Female,Black,United States,United States,United States,English,No,Part-Time,Not Applicable
655f8c42a20c94f85160d5dc,<b>Some policies I agree with in principle are so bad I don?t support them. ,Highly disagree,25/94,Highly agree,4,1708007314959,1708007324134,\Highly agree\,\Highly agree\,\4\,1708007323572,1708007323572,8613,8613,9175,buq,qns-item-noham,25,179894,0.0-1.0-0.24,65ce1eca82438d58179de6eb,AWAITING REVIEW,2024-02-15T14:25:19.426000Z,2024-02-15T14:37:19.592000Z,,2024-02-15T14:37:20.079186Z,721.0,CVPIIDEI,479,37,Female,Black,United States,United States,United States,English,No,Part-Time,Not Applicable
655f8c42a20c94f85160d5dc,<b>I?m pretty sure I?ve accidentally spread false information.,Highly disagree,26/94,Somewhat disagree,2,1708007324137,1708007335891,\Somewhat agree\,\Somewhat disagree\,\3\,1708007334451,1708007335229,10314,11092,11754,buq,qns-item-noham,26,191651,0.0-1.0-0.25,65ce1eca82438d58179de6eb,AWAITING REVIEW,2024-02-15T14:25:19.426000Z,2024-02-15T14:37:19.592000Z,,2024-02-15T14:37:20.079186Z,721.0,CVPIIDEI,479,37,Female,Black,United States,United States,United States,English,No,Part-Time,Not Applicable
655f8c42a20c94f85160d5dc,"<b>If I go to my favorite restaurant and the food is unexpectedly bad, then they have changed owners.",Highly disagree,27/94,Somewhat disagree,2,1708007335894,1708007346659,\Somewhat disagree\,\Somewhat disagree\,\2\,1708007346224,1708007346224,10330,10330,10765,buq,qns-item-noham,27,202419,0.0-1.0-0.26,65ce1eca82438d58179de6eb,AWAITING REVIEW,2024-02-15T14:25:19.426000Z,2024-02-15T14:37:19.592000Z,,2024-02-15T14:37:20.079186Z,721.0,CVPIIDEI,479,37,Female,Black,United States,United States,United States,English,No,Part-Time,Not Applicable
655f8c42a20c94f85160d5dc,"<b>In politics, it?s important to trust your friends and family.",Highly disagree,28/94,Somewhat agree,3,1708007346661,1708007354209,\Somewhat agree\,\Somewhat agree\,\3\,1708007353770,1708007353770,7109,7109,7548,buq,qns-item-noham,28,209969,0.0-1.0-0.27,65ce1eca82438d58179de6eb,AWAITING REVIEW,2024-02-15T14:25:19.426000Z,2024-02-15T14:37:19.592000Z,,2024-02-15T14:37:20.079186Z,721.0,CVPIIDEI,479,37,Female,Black,United States,United States,United States,English,No,Part-Time,Not Applicable
655f8c42a20c94f85160d5dc,<b>It?s OK to have some conflicting beliefs.,Highly disagree,29/94,Highly agree,4,1708007354211,1708007357050,\Highly agree\,\Highly agree\,\4\,1708007356548,1708007356548,2337,2337,2839,buq,qns-item-noham,29,212810,0.0-1.0-0.28,65ce1eca82438d58179de6eb,AWAITING REVIEW,2024-02-15T14:25:19.426000Z,2024-02-15T14:37:19.592000Z,,2024-02-15T14:37:20.079186Z,721.0,CVPIIDEI,479,37,Female,Black,United States,United States,United States,English,No,Part-Time,Not Applicable
655f8c42a20c94f85160d5dc,<b>Listening to people I disagree with makes my opinions better.,Highly disagree,30/94,Somewhat agree,3,1708007357052,1708007362786,\Somewhat agree\,\Somewhat agree\,\3\,1708007362425,1708007362425,5373,5373,5734,buq,qns-item-noham,30,218546,0.0-1.0-0.29,65ce1eca82438d58179de6eb,AWAITING REVIEW,2024-02-15T14:25:19.426000Z,2024-02-15T14:37:19.592000Z,,2024-02-15T14:37:20.079186Z,721.0,CVPIIDEI,479,37,Female,Black,United States,United States,United States,English,No,Part-Time,Not Applicable
655f8c42a20c94f85160d5dc,<b>My moral compass sometimes makes it harder to determine what?s true.,Highly disagree,31/94,Somewhat agree,3,1708007362788,1708007369562,\Somewhat agree\,\Somewhat agree\,\3\,1708007367714,1708007367714,4926,4926,6774,buq,qns-item-noham,31,225322,0.0-1.0-0.30,65ce1eca82438d58179de6eb,AWAITING REVIEW,2024-02-15T14:25:19.426000Z,2024-02-15T14:37:19.592000Z,,2024-02-15T14:37:20.079186Z,721.0,CVPIIDEI,479,37,Female,Black,United States,United States,United States,English,No,Part-Time,Not Applicable
655f8c42a20c94f85160d5dc,<b>Evidence pointing in the wrong direction isn?t really evidence at all.,Highly disagree,32/94,Somewhat agree,3,1708007369566,1708007375100,\Somewhat agree\,\Somewhat agree\,\3\,1708007374659,1708007374659,5093,5093,5534,buq,qns-item-noham,32,230860,0.0-1.0-0.31,65ce1eca82438d58179de6eb,AWAITING REVIEW,2024-02-15T14:25:19.426000Z,2024-02-15T14:37:19.592000Z,,2024-02-15T14:37:20.079186Z,721.0,CVPIIDEI,479,37,Female,Black,United States,United States,United States,English,No,Part-Time,Not Applicable
655f8c42a20c94f85160d5dc,"<b>If the political party I support messes up, it makes me think politics is rotten.",Highly disagree,33/94,Somewhat agree,3,1708007375103,1708007382693,\Somewhat agree\,\Somewhat agree\,\3\,1708007382347,1708007382347,7244,7244,7590,buq,qns-item-noham,33,238453,0.0-1.0-0.32,65ce1eca82438d58179de6eb,AWAITING REVIEW,2024-02-15T14:25:19.426000Z,2024-02-15T14:37:19.592000Z,,2024-02-15T14:37:20.079186Z,721.0,CVPIIDEI,479,37,Female,Black,United States,United States,United States,English,No,Part-Time,Not Applicable
655f8c42a20c94f85160d5dc,<b>Lots of important topics can only really be understood by some groups of people.,Highly disagree,34/94,Somewhat agree,3,1708007382695,1708007389340,\Somewhat agree\,\Somewhat agree\,\3\,1708007388811,1708007388811,6116,6116,6645,buq,qns-item-noham,34,245100,0.0-1.0-0.33,65ce1eca82438d58179de6eb,AWAITING REVIEW,2024-02-15T14:25:19.426000Z,2024-02-15T14:37:19.592000Z,,2024-02-15T14:37:20.079186Z,721.0,CVPIIDEI,479,37,Female,Black,United States,United States,United States,English,No,Part-Time,Not Applicable
655f8c42a20c94f85160d5dc,<b>Having conflicting beliefs means you haven?t thought about them enough.,Highly disagree,35/94,Somewhat disagree,2,1708007389342,1708007423879,\Somewhat disagree\,\Somewhat disagree\,\2\,1708007423275,1708007423275,33933,33933,34537,buq,qns-item-noham,35,279639,0.0-1.0-0.34,65ce1eca82438d58179de6eb,AWAITING REVIEW,2024-02-15T14:25:19.426000Z,2024-02-15T14:37:19.592000Z,,2024-02-15T14:37:20.079186Z,721.0,CVPIIDEI,479,37,Female,Black,United States,United States,United States,English,No,Part-Time,Not Applicable
655f8c42a20c94f85160d5dc,<b>I do not often change my political opinions.,Highly disagree,36/94,Highly agree,4,1708007423883,1708007428156,\Highly agree\,\Highly agree\,\4\,1708007427645,1708007427645,3762,3762,4273,buq,qns-item-noham,36,283916,0.0-1.0-0.35,65ce1eca82438d58179de6eb,AWAITING REVIEW,2024-02-15T14:25:19.426000Z,2024-02-15T14:37:19.592000Z,,2024-02-15T14:37:20.079186Z,721.0,CVPIIDEI,479,37,Female,Black,United States,United States,United States,English,No,Part-Time,Not Applicable
655f8c42a20c94f85160d5dc,<b>It?s difficult to not have at least some conflicting beliefs.,Highly disagree,37/94,Highly agree,4,1708007428158,1708007439092,\Highly agree\,\Highly agree\,\4\,1708007433623,1708007433623,5465,5465,10934,buq,qns-item-noham,37,294852,0.0-1.0-0.36,65ce1eca82438d58179de6eb,AWAITING REVIEW,2024-02-15T14:25:19.426000Z,2024-02-15T14:37:19.592000Z,,2024-02-15T14:37:20.079186Z,721.0,CVPIIDEI,479,37,Female,Black,United States,United States,United States,English,No,Part-Time,Not Applicable
655f8c42a20c94f85160d5dc,<b>Wishful thinking causes a lot of problems.,Highly disagree,38/94,Highly agree,4,1708007439097,1708007442182,\Highly agree\,\Highly agree\,\4\,1708007441680,1708007441680,2583,2583,3085,buq,qns-item-noham,38,297943,0.0-1.0-0.37,65ce1eca82438d58179de6eb,AWAITING REVIEW,2024-02-15T14:25:19.426000Z,2024-02-15T14:37:19.592000Z,,2024-02-15T14:37:20.079186Z,721.0,CVPIIDEI,479,37,Female,Black,United States,United States,United States,English,No,Part-Time,Not Applicable
655f8c42a20c94f85160d5dc,<b>I judge a food item only once I try it many times.,Highly disagree,39/94,Somewhat disagree,2,1708007442185,1708007447913,\Somewhat disagree\,\Somewhat disagree\,\2\,1708007447407,1708007447407,5222,5222,5728,buq,qns-item-noham,39,303673,0.0-1.0-0.38,65ce1eca82438d58179de6eb,AWAITING REVIEW,2024-02-15T14:25:19.426000Z,2024-02-15T14:37:19.592000Z,,2024-02-15T14:37:20.079186Z,721.0,CVPIIDEI,479,37,Female,Black,United States,United States,United States,English,No,Part-Time,Not Applicable
655f8c42a20c94f85160d5dc,"<b>When a person holds conflicting beliefs, they should really try to figure out what?s wrong.",Highly disagree,40/94,Somewhat agree,3,1708007447916,1708007453078,\Somewhat agree\,\Somewhat agree\,\3\,1708007452457,1708007452457,4541,4541,5162,buq,qns-item-noham,40,308838,0.0-1.0-0.39,65ce1eca82438d58179de6eb,AWAITING REVIEW,2024-02-15T14:25:19.426000Z,2024-02-15T14:37:19.592000Z,,2024-02-15T14:37:20.079186Z,721.0,CVPIIDEI,479,37,Female,Black,United States,United States,United States,English,No,Part-Time,Not Applicable
655f8c42a20c94f85160d5dc,<b>Knowing what?s important in life is easy.,Highly disagree,41/94,Somewhat agree,3,1708007453080,1708007456294,\Somewhat agree\,\Somewhat agree\,\3\,1708007455586,1708007455586,2506,2506,3214,buq,qns-item-noham,41,312054,0.0-1.0-0.40,65ce1eca82438d58179de6eb,AWAITING REVIEW,2024-02-15T14:25:19.426000Z,2024-02-15T14:37:19.592000Z,,2024-02-15T14:37:20.079186Z,721.0,CVPIIDEI,479,37,Female,Black,United States,United States,United States,English,No,Part-Time,Not Applicable
655f8c42a20c94f85160d5dc,<b>I swim across the Atlantic Ocean to get to work every day.,Highly disagree,42/94,Highly disagree,1,1708007456296,1708007461760,\Highly disagree\,\Highly disagree\,\1\,1708007461077,1708007461077,4781,4781,5464,buq,qns-item-noham,42,317520,0.0-1.0-0.41,65ce1eca82438d58179de6eb,AWAITING REVIEW,2024-02-15T14:25:19.426000Z,2024-02-15T14:37:19.592000Z,,2024-02-15T14:37:20.079186Z,721.0,CVPIIDEI,479,37,Female,Black,United States,United States,United States,English,No,Part-Time,Not Applicable
655f8c42a20c94f85160d5dc,"<b>Sometimes, you just have to ignore evidence that you know is wrong.",Highly disagree,43/94,Somewhat disagree,2,1708007461762,1708007467505,\Somewhat disagree\,\Somewhat disagree\,\2\,1708007466990,1708007466990,5228,5228,5743,buq,qns-item-noham,43,323265,0.0-1.0-0.42,65ce1eca82438d58179de6eb,AWAITING REVIEW,2024-02-15T14:25:19.426000Z,2024-02-15T14:37:19.592000Z,,2024-02-15T14:37:20.079186Z,721.0,CVPIIDEI,479,37,Female,Black,United States,United States,United States,English,No,Part-Time,Not Applicable
655f8c42a20c94f85160d5dc,<b>I have had some false beliefs.,Highly disagree,44/94,Somewhat agree,3,1708007467507,1708007473026,\Somewhat disagree\,\Somewhat agree\,\2\,1708007471879,1708007472656,4372,5149,5519,buq,qns-item-noham,44,328786,0.0-1.0-0.43,65ce1eca82438d58179de6eb,AWAITING REVIEW,2024-02-15T14:25:19.426000Z,2024-02-15T14:37:19.592000Z,,2024-02-15T14:37:20.079186Z,721.0,CVPIIDEI,479,37,Female,Black,United States,United States,United States,English,No,Part-Time,Not Applicable
655f8c42a20c94f85160d5dc,"<b>If one friend does something that upsets me, I sometimes start to distrust people in general.",Highly disagree,45/94,Somewhat agree,3,1708007473029,1708007478982,\Somewhat agree\,\Somewhat agree\,\3\,1708007478548,1708007478548,5519,5519,5953,buq,qns-item-noham,45,334742,0.0-1.0-0.44,65ce1eca82438d58179de6eb,AWAITING REVIEW,2024-02-15T14:25:19.426000Z,2024-02-15T14:37:19.592000Z,,2024-02-15T14:37:20.079186Z,721.0,CVPIIDEI,479,37,Female,Black,United States,United States,United States,English,No,Part-Time,Not Applicable
655f8c42a20c94f85160d5dc,<b>The facts about most important matters are easy to find.,Highly disagree,46/94,Somewhat agree,3,1708007478984,1708007483484,\Somewhat agree\,\Somewhat agree\,\3\,1708007482959,1708007482959,3975,3975,4500,buq,qns-item-noham,46,339244,0.0-1.0-0.45,65ce1eca82438d58179de6eb,AWAITING REVIEW,2024-02-15T14:25:19.426000Z,2024-02-15T14:37:19.592000Z,,2024-02-15T14:37:20.079186Z,721.0,CVPIIDEI,479,37,Female,Black,United States,United States,United States,English,No,Part-Time,Not Applicable
655f8c42a20c94f85160d5dc,<b>It?s better to know what?s true than to know what?s moral.,Highly disagree,47/94,Somewhat agree,3,1708007483486,1708007489995,\Somewhat agree\,\Somewhat agree\,\3\,1708007489517,1708007489517,6031,6031,6509,buq,qns-item-noham,47,345755,0.0-1.0-0.46,65ce1eca82438d58179de6eb,AWAITING REVIEW,2024-02-15T14:25:19.426000Z,2024-02-15T14:37:19.592000Z,,2024-02-15T14:37:20.079186Z,721.0,CVPIIDEI,479,37,Female,Black,United States,United States,United States,English,No,Part-Time,Not Applicable
655f8c42a20c94f85160d5dc,<b>I used to think the world was less complicated than I do now.,Highly disagree,48/94,Highly agree,4,1708007489998,1708007497479,\Somewhat agree\,\Highly agree\,\3\,1708007492695,1708007496903,2697,6905,7481,buq,qns-item-noham,48,353239,0.0-1.0-0.47,65ce1eca82438d58179de6eb,AWAITING REVIEW,2024-02-15T14:25:19.426000Z,2024-02-15T14:37:19.592000Z,,2024-02-15T14:37:20.079186Z,721.0,CVPIIDEI,479,37,Female,Black,United States,United States,United States,English,No,Part-Time,Not Applicable
655f8c42a20c94f85160d5dc,<b>People are usually completely right or completely wrong.,Highly disagree,49/94,Somewhat disagree,2,1708007497482,1708007501708,\Somewhat disagree\,\Somewhat disagree\,\2\,1708007501219,1708007501219,3737,3737,4226,buq,qns-item-noham,49,357468,0.0-1.0-0.48,65ce1eca82438d58179de6eb,AWAITING REVIEW,2024-02-15T14:25:19.426000Z,2024-02-15T14:37:19.592000Z,,2024-02-15T14:37:20.079186Z,721.0,CVPIIDEI,479,37,Female,Black,United States,United States,United States,English,No,Part-Time,Not Applicable
655f8c42a20c94f85160d5dc,<b>I spend a lot of time considering alternatives to my beliefs.,Highly disagree,50/94,Somewhat agree,3,1708007501710,1708007505285,\Somewhat agree\,\Somewhat agree\,\3\,1708007504670,1708007504670,2960,2960,3575,buq,qns-item-noham,50,361045,0.0-1.0-0.49,65ce1eca82438d58179de6eb,AWAITING REVIEW,2024-02-15T14:25:19.426000Z,2024-02-15T14:37:19.592000Z,,2024-02-15T14:37:20.079186Z,721.0,CVPIIDEI,479,37,Female,Black,United States,United States,United States,English,No,Part-Time,Not Applicable
655f8c42a20c94f85160d5dc,"<b>Political enemies need to be defeated, not convinced.",Highly disagree,51/94,Somewhat agree,3,1708007505287,1708007512357,\Somewhat agree\,\Somewhat agree\,\3\,1708007512023,1708007512023,6736,6736,7070,buq,qns-item-noham,51,368117,0.0-1.0-0.50,65ce1eca82438d58179de6eb,AWAITING REVIEW,2024-02-15T14:25:19.426000Z,2024-02-15T14:37:19.592000Z,,2024-02-15T14:37:20.079186Z,721.0,CVPIIDEI,479,37,Female,Black,United States,United States,United States,English,No,Part-Time,Not Applicable
655f8c42a20c94f85160d5dc,<b>I form my political views only after meticulously gathering historical and present information about their policies.,Highly disagree,52/94,Highly agree,4,1708007512362,1708007537353,\Highly agree\,\Highly agree\,\4\,1708007535817,1708007535817,23455,23455,24991,buq,qns-item-noham,52,393114,0.0-1.0-0.51,65ce1eca82438d58179de6eb,AWAITING REVIEW,2024-02-15T14:25:19.426000Z,2024-02-15T14:37:19.592000Z,,2024-02-15T14:37:20.079186Z,721.0,CVPIIDEI,479,37,Female,Black,United States,United States,United States,English,No,Part-Time,Not Applicable
655f8c42a20c94f85160d5dc,<b>It is difficult for me to remember the last time I was surprised by politics.,Highly disagree,53/94,Somewhat disagree,2,1708007537357,1708007541922,\Somewhat disagree\,\Somewhat disagree\,\2\,1708007541502,1708007541502,4145,4145,4565,buq,qns-item-noham,53,397682,0.0-1.0-0.52,65ce1eca82438d58179de6eb,AWAITING REVIEW,2024-02-15T14:25:19.426000Z,2024-02-15T14:37:19.592000Z,,2024-02-15T14:37:20.079186Z,721.0,CVPIIDEI,479,37,Female,Black,United States,United States,United States,English,No,Part-Time,Not Applicable
655f8c42a20c94f85160d5dc,"<b>When I find out I?m wrong, I think a lot about my related beliefs.",Highly disagree,54/94,Highly agree,4,1708007541924,1708007548073,\Highly agree\,\Highly agree\,\4\,1708007547561,1708007547561,5637,5637,6149,buq,qns-item-noham,54,403833,0.0-1.0-0.53,65ce1eca82438d58179de6eb,AWAITING REVIEW,2024-02-15T14:25:19.426000Z,2024-02-15T14:37:19.592000Z,,2024-02-15T14:37:20.079186Z,721.0,CVPIIDEI,479,37,Female,Black,United States,United States,United States,English,No,Part-Time,Not Applicable
655f8c42a20c94f85160d5dc,"<b>If the political party I support messes up, it makes me think you can?t trust anyone these days",Highly disagree,55/94,Somewhat agree,3,1708007548084,1708007553269,\Somewhat agree\,\Somewhat agree\,\3\,1708007552850,1708007552850,4766,4766,5185,buq,qns-item-noham,55,409029,0.0-1.0-0.54,65ce1eca82438d58179de6eb,AWAITING REVIEW,2024-02-15T14:25:19.426000Z,2024-02-15T14:37:19.592000Z,,2024-02-15T14:37:20.079186Z,721.0,CVPIIDEI,479,37,Female,Black,United States,United States,United States,English,No,Part-Time,Not Applicable
655f8c42a20c94f85160d5dc,<b>People?s brains turn off when they talk about politics.,Highly disagree,56/94,Highly agree,4,1708007553272,1708007557236,\Highly agree\,\Highly agree\,\4\,1708007556647,1708007556647,3375,3375,3964,buq,qns-item-noham,56,412996,0.0-1.0-0.55,65ce1eca82438d58179de6eb,AWAITING REVIEW,2024-02-15T14:25:19.426000Z,2024-02-15T14:37:19.592000Z,,2024-02-15T14:37:20.079186Z,721.0,CVPIIDEI,479,37,Female,Black,United States,United States,United States,English,No,Part-Time,Not Applicable
655f8c42a20c94f85160d5dc,<b>People who are wrong are usually just ignoring the obvious.,Highly disagree,57/94,Somewhat agree,3,1708007557239,1708007561498,\Somewhat agree\,\Somewhat agree\,\3\,1708007560929,1708007560929,3690,3690,4259,buq,qns-item-noham,57,417258,0.0-1.0-0.56,65ce1eca82438d58179de6eb,AWAITING REVIEW,2024-02-15T14:25:19.426000Z,2024-02-15T14:37:19.592000Z,,2024-02-15T14:37:20.079186Z,721.0,CVPIIDEI,479,37,Female,Black,United States,United States,United States,English,No,Part-Time,Not Applicable
655f8c42a20c94f85160d5dc,"<b>When forming my views on people, I rely more on what they are like now rather than rely on my past experience with them.",Highly disagree,58/94,Highly agree,4,1708007561500,1708007574089,\Highly agree\,\Highly agree\,\4\,1708007573653,1708007573653,12153,12153,12589,buq,qns-item-noham,58,429849,0.0-1.0-0.57,65ce1eca82438d58179de6eb,AWAITING REVIEW,2024-02-15T14:25:19.426000Z,2024-02-15T14:37:19.592000Z,,2024-02-15T14:37:20.079186Z,721.0,CVPIIDEI,479,37,Female,Black,United States,United States,United States,English,No,Part-Time,Not Applicable
655f8c42a20c94f85160d5dc,"<b>When people contradict my beliefs, I usually know about their evidence already.",Highly disagree,59/94,Somewhat disagree,2,1708007574091,1708007579853,\Somewhat disagree\,\Somewhat disagree\,\2\,1708007579447,1708007579447,5356,5356,5762,buq,qns-item-noham,59,435613,0.0-1.0-0.58,65ce1eca82438d58179de6eb,AWAITING REVIEW,2024-02-15T14:25:19.426000Z,2024-02-15T14:37:19.592000Z,,2024-02-15T14:37:20.079186Z,721.0,CVPIIDEI,479,37,Female,Black,United States,United States,United States,English,No,Part-Time,Not Applicable
655f8c42a20c94f85160d5dc,<b>Figuring out what?s true and what?s false mainly requires a strong moral compass.,Highly disagree,60/94,Somewhat agree,3,1708007579855,1708007584938,\Somewhat agree\,\Somewhat agree\,\3\,1708007584495,1708007584495,4640,4640,5083,buq,qns-item-noham,60,440698,0.0-1.0-0.59,65ce1eca82438d58179de6eb,AWAITING REVIEW,2024-02-15T14:25:19.426000Z,2024-02-15T14:37:19.592000Z,,2024-02-15T14:37:20.079186Z,721.0,CVPIIDEI,479,37,Female,Black,United States,United States,United States,English,No,Part-Time,Not Applicable
655f8c42a20c94f85160d5dc,"<b>Usually I?m wrong about simple things, not complicated ones.",Highly disagree,61/94,Somewhat disagree,2,1708007584942,1708007590117,\Somewhat disagree\,\Somewhat disagree\,\2\,1708007589651,1708007589651,4709,4709,5175,buq,qns-item-noham,61,445877,0.0-1.0-0.60,65ce1eca82438d58179de6eb,AWAITING REVIEW,2024-02-15T14:25:19.426000Z,2024-02-15T14:37:19.592000Z,,2024-02-15T14:37:20.079186Z,721.0,CVPIIDEI,479,37,Female,Black,United States,United States,United States,English,No,Part-Time,Not Applicable
655f8c42a20c94f85160d5dc,<b>Getting all the information I want about important things is hard.,Highly disagree,62/94,Somewhat agree,3,1708007590120,1708007633362,\Somewhat agree\,\Somewhat agree\,\3\,1708007594461,1708007594461,4341,4341,43242,buq,qns-item-noham,62,489122,0.0-1.0-0.61,65ce1eca82438d58179de6eb,AWAITING REVIEW,2024-02-15T14:25:19.426000Z,2024-02-15T14:37:19.592000Z,,2024-02-15T14:37:20.079186Z,721.0,CVPIIDEI,479,37,Female,Black,United States,United States,United States,English,No,Part-Time,Not Applicable
655f8c42a20c94f85160d5dc,<b>Most false beliefs spread because people try to deceive one another.,Highly disagree,63/94,Somewhat agree,3,1708007633364,1708007638677,\Somewhat agree\,\Somewhat agree\,\3\,1708007638029,1708007638029,4665,4665,5313,buq,qns-item-noham,63,494437,0.0-1.0-0.62,65ce1eca82438d58179de6eb,AWAITING REVIEW,2024-02-15T14:25:19.426000Z,2024-02-15T14:37:19.592000Z,,2024-02-15T14:37:20.079186Z,721.0,CVPIIDEI,479,37,Female,Black,United States,United States,United States,English,No,Part-Time,Not Applicable
655f8c42a20c94f85160d5dc,<b>I can usually find something to agree with in most people?s beliefs.,Highly disagree,64/94,Somewhat agree,3,1708007638679,1708007644238,\Somewhat agree\,\Somewhat agree\,\3\,1708007643831,1708007643831,5152,5152,5559,buq,qns-item-noham,64,499998,0.0-1.0-0.63,65ce1eca82438d58179de6eb,AWAITING REVIEW,2024-02-15T14:25:19.426000Z,2024-02-15T14:37:19.592000Z,,2024-02-15T14:37:20.079186Z,721.0,CVPIIDEI,479,37,Female,Black,United States,United States,United States,English,No,Part-Time,Not Applicable
655f8c42a20c94f85160d5dc,<b>I only form my views of people once I get to know them very well.,Highly disagree,65/94,Highly agree,4,1708007644240,1708007649404,\Somewhat agree\,\Highly agree\,\3\,1708007648341,1708007648939,4101,4699,5164,buq,qns-item-noham,65,505164,0.0-1.0-0.64,65ce1eca82438d58179de6eb,AWAITING REVIEW,2024-02-15T14:25:19.426000Z,2024-02-15T14:37:19.592000Z,,2024-02-15T14:37:20.079186Z,721.0,CVPIIDEI,479,37,Female,Black,United States,United States,United States,English,No,Part-Time,Not Applicable
655f8c42a20c94f85160d5dc,"<b>When people tell me important things about the world, I usually believe them.",Highly disagree,66/94,Somewhat agree,3,1708007649406,1708007653575,\Somewhat agree\,\Somewhat agree\,\3\,1708007653206,1708007653206,3800,3800,4169,buq,qns-item-noham,66,509335,0.0-1.0-0.65,65ce1eca82438d58179de6eb,AWAITING REVIEW,2024-02-15T14:25:19.426000Z,2024-02-15T14:37:19.592000Z,,2024-02-15T14:37:20.079186Z,721.0,CVPIIDEI,479,37,Female,Black,United States,United States,United States,English,No,Part-Time,Not Applicable
655f8c42a20c94f85160d5dc,"<b>If a friend does something that upsets me, it reminds me what an unpredictable place the world is.",Highly disagree,67/94,Somewhat agree,3,1708007653584,1708007663337,\Somewhat agree\,\Somewhat agree\,\3\,1708007663030,1708007663030,9446,9446,9753,buq,qns-item-noham,67,519097,0.0-1.0-0.66,65ce1eca82438d58179de6eb,AWAITING REVIEW,2024-02-15T14:25:19.426000Z,2024-02-15T14:37:19.592000Z,,2024-02-15T14:37:20.079186Z,721.0,CVPIIDEI,479,37,Female,Black,United States,United States,United States,English,No,Part-Time,Not Applicable
655f8c42a20c94f85160d5dc,<b>People tend to believe whatever is good for their friends.,Highly disagree,68/94,Highly agree,4,1708007663340,1708007667690,\Highly agree\,\Highly agree\,\4\,1708007667176,1708007667176,3836,3836,4350,buq,qns-item-noham,68,523450,0.0-1.0-0.67,65ce1eca82438d58179de6eb,AWAITING REVIEW,2024-02-15T14:25:19.426000Z,2024-02-15T14:37:19.592000Z,,2024-02-15T14:37:20.079186Z,721.0,CVPIIDEI,479,37,Female,Black,United States,United States,United States,English,No,Part-Time,Not Applicable
655f8c42a20c94f85160d5dc,<b>I used to be more certain my beliefs were true.,Highly disagree,69/94,Somewhat agree,3,1708007667693,1708007673213,\Somewhat agree\,\Somewhat agree\,\3\,1708007672821,1708007672821,5128,5128,5520,buq,qns-item-noham,69,528973,0.0-1.0-0.68,65ce1eca82438d58179de6eb,AWAITING REVIEW,2024-02-15T14:25:19.426000Z,2024-02-15T14:37:19.592000Z,,2024-02-15T14:37:20.079186Z,721.0,CVPIIDEI,479,37,Female,Black,United States,United States,United States,English,No,Part-Time,Not Applicable
655f8c42a20c94f85160d5dc,<b>It?s often pretty easy to figure out whether something is true based on who said it.,Highly disagree,70/94,Somewhat agree,3,1708007673215,1708007678408,\Somewhat agree\,\Somewhat agree\,\3\,1708007678059,1708007678059,4844,4844,5193,buq,qns-item-noham,70,534168,0.0-1.0-0.69,65ce1eca82438d58179de6eb,AWAITING REVIEW,2024-02-15T14:25:19.426000Z,2024-02-15T14:37:19.592000Z,,2024-02-15T14:37:20.079186Z,721.0,CVPIIDEI,479,37,Female,Black,United States,United States,United States,English,No,Part-Time,Not Applicable
655f8c42a20c94f85160d5dc,<b>I transform into a hummingbird every day.,Highly disagree,71/94,Highly disagree,1,1708007678410,1708007681885,\Highly disagree\,\Highly disagree\,\1\,1708007681236,1708007681236,2826,2826,3475,buq,qns-item-noham,71,537645,0.0-1.0-0.70,65ce1eca82438d58179de6eb,AWAITING REVIEW,2024-02-15T14:25:19.426000Z,2024-02-15T14:37:19.592000Z,,2024-02-15T14:37:20.079186Z,721.0,CVPIIDEI,479,37,Female,Black,United States,United States,United States,English,No,Part-Time,Not Applicable
655f8c42a20c94f85160d5dc,<b>I think a lot about arguments against my views.,Highly disagree,72/94,Somewhat disagree,2,1708007681887,1708007688803,\Somewhat disagree\,\Somewhat disagree\,\2\,1708007688153,1708007688153,6266,6266,6916,buq,qns-item-noham,72,544563,0.0-1.0-0.71,65ce1eca82438d58179de6eb,AWAITING REVIEW,2024-02-15T14:25:19.426000Z,2024-02-15T14:37:19.592000Z,,2024-02-15T14:37:20.079186Z,721.0,CVPIIDEI,479,37,Female,Black,United States,United States,United States,English,No,Part-Time,Not Applicable
655f8c42a20c94f85160d5dc,<b>Personal experience is usually more important than facts and figures.,Highly disagree,73/94,Somewhat disagree,2,1708007688806,1708007700349,\Somewhat disagree\,\Somewhat disagree\,\2\,1708007699815,1708007699815,11009,11009,11543,buq,qns-item-noham,73,556109,0.0-1.0-0.72,65ce1eca82438d58179de6eb,AWAITING REVIEW,2024-02-15T14:25:19.426000Z,2024-02-15T14:37:19.592000Z,,2024-02-15T14:37:20.079186Z,721.0,CVPIIDEI,479,37,Female,Black,United States,United States,United States,English,No,Part-Time,Not Applicable
655f8c42a20c94f85160d5dc,<b>I?ve been tricked before about important matters.,Highly disagree,74/94,Highly agree,4,1708007700351,1708007704246,\Highly agree\,\Highly agree\,\4\,1708007703453,1708007703453,3102,3102,3895,buq,qns-item-noham,74,560006,0.0-1.0-0.73,65ce1eca82438d58179de6eb,AWAITING REVIEW,2024-02-15T14:25:19.426000Z,2024-02-15T14:37:19.592000Z,,2024-02-15T14:37:20.079186Z,721.0,CVPIIDEI,479,37,Female,Black,United States,United States,United States,English,No,Part-Time,Not Applicable
655f8c42a20c94f85160d5dc,<b>I would need to be totally wowed if I were to change my opinion of a restaurant I don?t like.,Highly disagree,75/94,Highly agree,4,1708007704249,1708007710751,\Highly agree\,\Highly agree\,\4\,1708007710030,1708007710030,5781,5781,6502,buq,qns-item-noham,75,566511,0.0-1.0-0.74,65ce1eca82438d58179de6eb,AWAITING REVIEW,2024-02-15T14:25:19.426000Z,2024-02-15T14:37:19.592000Z,,2024-02-15T14:37:20.079186Z,721.0,CVPIIDEI,479,37,Female,Black,United States,United States,United States,English,No,Part-Time,Not Applicable
655f8c42a20c94f85160d5dc,<b>I care a lot about politics.,Highly disagree,76/94,Somewhat agree,3,1708007710755,1708007713190,\Somewhat agree\,\Somewhat agree\,\3\,1708007712809,1708007712809,2054,2054,2435,buq,qns-item-noham,76,568951,0.0-1.0-0.75,65ce1eca82438d58179de6eb,AWAITING REVIEW,2024-02-15T14:25:19.426000Z,2024-02-15T14:37:19.592000Z,,2024-02-15T14:37:20.079186Z,721.0,CVPIIDEI,479,37,Female,Black,United States,United States,United States,English,No,Part-Time,Not Applicable
655f8c42a20c94f85160d5dc,<b>There are some topics I?ve been really wrong about.,Highly disagree,77/94,Somewhat agree,3,1708007713194,1708007717057,\Somewhat agree\,\Somewhat agree\,\3\,1708007716645,1708007716645,3451,3451,3863,buq,qns-item-noham,77,572817,0.0-1.0-0.76,65ce1eca82438d58179de6eb,AWAITING REVIEW,2024-02-15T14:25:19.426000Z,2024-02-15T14:37:19.592000Z,,2024-02-15T14:37:20.079186Z,721.0,CVPIIDEI,479,37,Female,Black,United States,United States,United States,English,No,Part-Time,Not Applicable
655f8c42a20c94f85160d5dc,<b>Most beliefs can be supported with at least some evidence.,Highly disagree,78/94,Highly agree,4,1708007717060,1708007721292,\Highly agree\,\Highly agree\,\4\,1708007720791,1708007720791,3731,3731,4232,buq,qns-item-noham,78,577052,0.0-1.0-0.77,65ce1eca82438d58179de6eb,AWAITING REVIEW,2024-02-15T14:25:19.426000Z,2024-02-15T14:37:19.592000Z,,2024-02-15T14:37:20.079186Z,721.0,CVPIIDEI,479,37,Female,Black,United States,United States,United States,English,No,Part-Time,Not Applicable
655f8c42a20c94f85160d5dc,<b>Other people make life out to be more complicated than it really is.,Highly disagree,79/94,Highly agree,4,1708007721295,1708007727996,\Highly agree\,\Highly agree\,\4\,1708007725872,1708007725872,4577,4577,6701,buq,qns-item-noham,79,583756,0.0-1.0-0.78,65ce1eca82438d58179de6eb,AWAITING REVIEW,2024-02-15T14:25:19.426000Z,2024-02-15T14:37:19.592000Z,,2024-02-15T14:37:20.079186Z,721.0,CVPIIDEI,479,37,Female,Black,United States,United States,United States,English,No,Part-Time,Not Applicable
655f8c42a20c94f85160d5dc,"<b>Policy details don?t matter much, just the big picture.",Highly disagree,80/94,Highly agree,4,1708007727999,1708007732252,\Highly agree\,\Highly agree\,\4\,1708007731630,1708007731630,3631,3631,4253,buq,qns-item-noham,80,588012,0.0-1.0-0.79,65ce1eca82438d58179de6eb,AWAITING REVIEW,2024-02-15T14:25:19.426000Z,2024-02-15T14:37:19.592000Z,,2024-02-15T14:37:20.079186Z,721.0,CVPIIDEI,479,37,Female,Black,United States,United States,United States,English,No,Part-Time,Not Applicable
655f8c42a20c94f85160d5dc,<b>I know my friends so well they can hardly ever surprise me.,Highly disagree,81/94,Somewhat disagree,2,1708007732254,1708007736879,\Somewhat disagree\,\Somewhat disagree\,\2\,1708007736532,1708007736532,4278,4278,4625,buq,qns-item-noham,81,592639,0.0-1.0-0.80,65ce1eca82438d58179de6eb,AWAITING REVIEW,2024-02-15T14:25:19.426000Z,2024-02-15T14:37:19.592000Z,,2024-02-15T14:37:20.079186Z,721.0,CVPIIDEI,479,37,Female,Black,United States,United States,United States,English,No,Part-Time,Not Applicable
655f8c42a20c94f85160d5dc,<b>I do not often change my views on people.,Highly disagree,82/94,Somewhat agree,3,1708007736882,1708007740714,\Somewhat agree\,\Somewhat agree\,\3\,1708007740379,1708007740379,3497,3497,3832,buq,qns-item-noham,82,596474,0.0-1.0-0.81,65ce1eca82438d58179de6eb,AWAITING REVIEW,2024-02-15T14:25:19.426000Z,2024-02-15T14:37:19.592000Z,,2024-02-15T14:37:20.079186Z,721.0,CVPIIDEI,479,37,Female,Black,United States,United States,United States,English,No,Part-Time,Not Applicable
655f8c42a20c94f85160d5dc,<b>I?m more certain about my beliefs than I used to be.,Highly disagree,83/94,Somewhat agree,3,1708007740717,1708007744930,\Somewhat agree\,\Somewhat agree\,\3\,1708007744608,1708007744608,3891,3891,4213,buq,qns-item-noham,83,600690,0.0-1.0-0.82,65ce1eca82438d58179de6eb,AWAITING REVIEW,2024-02-15T14:25:19.426000Z,2024-02-15T14:37:19.592000Z,,2024-02-15T14:37:20.079186Z,721.0,CVPIIDEI,479,37,Female,Black,United States,United States,United States,English,No,Part-Time,Not Applicable
655f8c42a20c94f85160d5dc,<b>People often tell falsehoods unintentionally.,Highly disagree,84/94,Somewhat disagree,2,1708007744932,1708007749909,\Somewhat disagree\,\Somewhat disagree\,\2\,1708007749537,1708007749537,4605,4605,4977,buq,qns-item-noham,84,605669,0.0-1.0-0.83,65ce1eca82438d58179de6eb,AWAITING REVIEW,2024-02-15T14:25:19.426000Z,2024-02-15T14:37:19.592000Z,,2024-02-15T14:37:20.079186Z,721.0,CVPIIDEI,479,37,Female,Black,United States,United States,United States,English,No,Part-Time,Not Applicable
655f8c42a20c94f85160d5dc,<b>Most people don?t know much about most things.,Highly disagree,85/94,Somewhat agree,3,1708007749912,1708007753225,\Somewhat agree\,\Somewhat agree\,\3\,1708007752913,1708007752913,3001,3001,3313,buq,qns-item-noham,85,608985,0.0-1.0-0.84,65ce1eca82438d58179de6eb,AWAITING REVIEW,2024-02-15T14:25:19.426000Z,2024-02-15T14:37:19.592000Z,,2024-02-15T14:37:20.079186Z,721.0,CVPIIDEI,479,37,Female,Black,United States,United States,United States,English,No,Part-Time,Not Applicable
655f8c42a20c94f85160d5dc,"<b>If I find out something new about someone, I easily change my views about them.",Highly disagree,86/94,Somewhat disagree,2,1708007753228,1708007758773,\Somewhat disagree\,\Somewhat disagree\,\2\,1708007758426,1708007758426,5198,5198,5545,buq,qns-item-noham,86,614533,0.0-1.0-0.85,65ce1eca82438d58179de6eb,AWAITING REVIEW,2024-02-15T14:25:19.426000Z,2024-02-15T14:37:19.592000Z,,2024-02-15T14:37:20.079186Z,721.0,CVPIIDEI,479,37,Female,Black,United States,United States,United States,English,No,Part-Time,Not Applicable
655f8c42a20c94f85160d5dc,<b>Having true beliefs is difficult.,Highly disagree,87/94,Somewhat agree,3,1708007758775,1708007761875,\Somewhat agree\,\Somewhat agree\,\3\,1708007761554,1708007761554,2779,2779,3100,buq,qns-item-noham,87,617635,0.0-1.0-0.86,65ce1eca82438d58179de6eb,AWAITING REVIEW,2024-02-15T14:25:19.426000Z,2024-02-15T14:37:19.592000Z,,2024-02-15T14:37:20.079186Z,721.0,CVPIIDEI,479,37,Female,Black,United States,United States,United States,English,No,Part-Time,Not Applicable
655f8c42a20c94f85160d5dc,<b>I don?t try new foods since I know I won?t like them.,Highly disagree,88/94,Highly disagree,1,1708007761877,1708007767135,\Highly disagree\,\Highly disagree\,\1\,1708007766521,1708007766521,4644,4644,5258,buq,qns-item-noham,88,622895,0.0-1.0-0.87,65ce1eca82438d58179de6eb,AWAITING REVIEW,2024-02-15T14:25:19.426000Z,2024-02-15T14:37:19.592000Z,,2024-02-15T14:37:20.079186Z,721.0,CVPIIDEI,479,37,Female,Black,United States,United States,United States,English,No,Part-Time,Not Applicable
655f8c42a20c94f85160d5dc,<b>Other people trick each other a lot.,Highly disagree,89/94,Somewhat agree,3,1708007767137,1708007771001,\Somewhat agree\,\Somewhat agree\,\3\,1708007770512,1708007770512,3375,3375,3864,buq,qns-item-noham,89,626761,0.0-1.0-0.88,65ce1eca82438d58179de6eb,AWAITING REVIEW,2024-02-15T14:25:19.426000Z,2024-02-15T14:37:19.592000Z,,2024-02-15T14:37:20.079186Z,721.0,CVPIIDEI,479,37,Female,Black,United States,United States,United States,English,No,Part-Time,Not Applicable
655f8c42a20c94f85160d5dc,<b>I would need to learn a lot about a person for my opinion of them to be swayed.,Highly disagree,90/94,Somewhat agree,3,1708007771004,1708007785390,\Somewhat agree\,\Somewhat agree\,\3\,1708007784956,1708007784956,13952,13952,14386,buq,qns-item-noham,90,641150,0.0-1.0-0.89,65ce1eca82438d58179de6eb,AWAITING REVIEW,2024-02-15T14:25:19.426000Z,2024-02-15T14:37:19.592000Z,,2024-02-15T14:37:20.079186Z,721.0,CVPIIDEI,479,37,Female,Black,United States,United States,United States,English,No,Part-Time,Not Applicable
655f8c42a20c94f85160d5dc,<b>People can?t usually trick me when it comes to topics I care about.,Highly disagree,91/94,Somewhat agree,3,1708007785393,1708007789725,\Somewhat agree\,\Somewhat agree\,\3\,1708007789292,1708007789292,3899,3899,4332,buq,qns-item-noham,91,645485,0.0-1.0-0.90,65ce1eca82438d58179de6eb,AWAITING REVIEW,2024-02-15T14:25:19.426000Z,2024-02-15T14:37:19.592000Z,,2024-02-15T14:37:20.079186Z,721.0,CVPIIDEI,479,37,Female,Black,United States,United States,United States,English,No,Part-Time,Not Applicable
655f8c42a20c94f85160d5dc,<b>I do not often change my views on food.,Highly disagree,92/94,Highly disagree,1,1708007789727,1708007793671,\Highly disagree\,\Highly disagree\,\1\,1708007792841,1708007792841,3114,3114,3944,buq,qns-item-noham,92,649431,0.0-1.0-0.91,65ce1eca82438d58179de6eb,AWAITING REVIEW,2024-02-15T14:25:19.426000Z,2024-02-15T14:37:19.592000Z,,2024-02-15T14:37:20.079186Z,721.0,CVPIIDEI,479,37,Female,Black,United States,United States,United States,English,No,Part-Time,Not Applicable
655f8c42a20c94f85160d5dc,<b>Specific policies are often very important to me.,Highly disagree,93/94,Somewhat agree,3,1708007793673,1708007797751,\Somewhat agree\,\Somewhat agree\,\3\,1708007797149,1708007797149,3476,3476,4078,buq,qns-item-noham,93,653511,0.0-1.0-0.92,65ce1eca82438d58179de6eb,AWAITING REVIEW,2024-02-15T14:25:19.426000Z,2024-02-15T14:37:19.592000Z,,2024-02-15T14:37:20.079186Z,721.0,CVPIIDEI,479,37,Female,Black,United States,United States,United States,English,No,Part-Time,Not Applicable
655f8c42a20c94f85160d5dc,<b>Most people are woefully under-informed.,Highly disagree,94/94,Somewhat agree,3,1708007797754,1708007802888,\Somewhat agree\,\Somewhat agree\,\3\,1708007802306,1708007802306,4552,4552,5134,buq,qns-item-noham,94,658648,0.0-1.0-0.93,65ce1eca82438d58179de6eb,AWAITING REVIEW,2024-02-15T14:25:19.426000Z,2024-02-15T14:37:19.592000Z,,2024-02-15T14:37:20.079186Z,721.0,CVPIIDEI,479,37,Female,Black,United States,United States,United States,English,No,Part-Time,Not Applicable
655f8c42a20c94f85160d5dc,,,,,,,,,,,,,,,,,,,,,65ce1eca82438d58179de6eb,AWAITING REVIEW,2024-02-15T14:25:19.426000Z,2024-02-15T14:37:19.592000Z,,2024-02-15T14:37:20.079186Z,721.0,CVPIIDEI,479,37,Female,Black,United States,United States,United States,English,No,Part-Time,Not Applicable
