PROLIFIC_PID,Question,qns_options,quest_num,answer,answer_num,question_load_timestamp,next_btn_timestamp,text_selected,final_text_selected,option_num_selected,preview_timestamps,final_text_selected_time_stamp,rt_first_option_click,rt_final_option_click,rt_submit_click,questionnaire,trial_type,trial_index,time_elapsed,internal_node_id,Demographic_Submission id,Demographic_Status,Demographic_Started at,Demographic_Completed at,Demographic_Reviewed at,Demographic_Archived at,Demographic_Time taken,Demographic_Completion code,Demographic_Total approvals,Demographic_Age,Demographic_Sex,Demographic_Ethnicity simplified,Demographic_Country of birth,Demographic_Country of residence,Demographic_Nationality,Demographic_Language,Demographic_Student status,Demographic_Employment status,Demographic_Custom study tncs accepted at
60fd8b1c25fe10912980d749,<b>Knowing what?s true and knowing what to do about it are usually basically the same.,Highly disagree,1/94,Highly disagree,1,1708007089226,1708007095458,\Highly disagree\,\Highly disagree\,\1\,1708007094080,1708007094080,4854,4854,6232,buq,qns-item-noham,1,8812,0.0-1.0-0.0,65ce1dc2571c87b35df1e9e9,AWAITING REVIEW,2024-02-15T14:24:04.049000Z,2024-02-15T14:31:33.286000Z,,2024-02-15T14:31:33.864777Z,450.0,CVPIIDEI,1422,31,Female,White,United States,United States,United States,English,No,Due to start a new job within the next month,Not Applicable
60fd8b1c25fe10912980d749,<b>Most people just believe whatever is convenient for them.,Highly disagree,2/94,Somewhat agree,3,1708007095464,1708007098726,\Somewhat agree\,\Somewhat agree\,\3\,1708007098019,1708007098019,2555,2555,3262,buq,qns-item-noham,2,12080,0.0-1.0-0.1,65ce1dc2571c87b35df1e9e9,AWAITING REVIEW,2024-02-15T14:24:04.049000Z,2024-02-15T14:31:33.286000Z,,2024-02-15T14:31:33.864777Z,450.0,CVPIIDEI,1422,31,Female,White,United States,United States,United States,English,No,Due to start a new job within the next month,Not Applicable
60fd8b1c25fe10912980d749,<b>Having some big beliefs helps me sort out minor ones.,Highly disagree,3/94,Somewhat agree,3,1708007098728,1708007101242,\Somewhat agree\,\Somewhat agree\,\3\,1708007100252,1708007100252,1524,1524,2514,buq,qns-item-noham,3,14596,0.0-1.0-0.2,65ce1dc2571c87b35df1e9e9,AWAITING REVIEW,2024-02-15T14:24:04.049000Z,2024-02-15T14:31:33.286000Z,,2024-02-15T14:31:33.864777Z,450.0,CVPIIDEI,1422,31,Female,White,United States,United States,United States,English,No,Due to start a new job within the next month,Not Applicable
60fd8b1c25fe10912980d749,<b>Political questions are usually pretty complicated.,Highly disagree,4/94,Highly agree,4,1708007101244,1708007103629,\Highly agree\,\Highly agree\,\4\,1708007102709,1708007102709,1465,1465,2385,buq,qns-item-noham,4,16983,0.0-1.0-0.3,65ce1dc2571c87b35df1e9e9,AWAITING REVIEW,2024-02-15T14:24:04.049000Z,2024-02-15T14:31:33.286000Z,,2024-02-15T14:31:33.864777Z,450.0,CVPIIDEI,1422,31,Female,White,United States,United States,United States,English,No,Due to start a new job within the next month,Not Applicable
60fd8b1c25fe10912980d749,<b>Figuring out what?s important in life requires learning a lot of facts.,Highly disagree,5/94,Somewhat agree,3,1708007103631,1708007106123,\Somewhat agree\,\Somewhat agree\,\3\,1708007105365,1708007105365,1734,1734,2492,buq,qns-item-noham,5,19477,0.0-1.0-0.4,65ce1dc2571c87b35df1e9e9,AWAITING REVIEW,2024-02-15T14:24:04.049000Z,2024-02-15T14:31:33.286000Z,,2024-02-15T14:31:33.864777Z,450.0,CVPIIDEI,1422,31,Female,White,United States,United States,United States,English,No,Due to start a new job within the next month,Not Applicable
60fd8b1c25fe10912980d749,<b>It is difficult for me to remember the last time I was surprised by politics.,Highly disagree,6/94,Highly disagree,1,1708007106125,1708007110186,\Highly disagree\,\Highly disagree\,\1\,1708007109348,1708007109348,3223,3223,4061,buq,qns-item-noham,6,23540,0.0-1.0-0.5,65ce1dc2571c87b35df1e9e9,AWAITING REVIEW,2024-02-15T14:24:04.049000Z,2024-02-15T14:31:33.286000Z,,2024-02-15T14:31:33.864777Z,450.0,CVPIIDEI,1422,31,Female,White,United States,United States,United States,English,No,Due to start a new job within the next month,Not Applicable
60fd8b1c25fe10912980d749,<b>People?s false beliefs are understandable.,Highly disagree,7/94,Somewhat disagree,2,1708007110188,1708007113127,\Somewhat disagree\,\Somewhat disagree\,\2\,1708007112368,1708007112368,2180,2180,2939,buq,qns-item-noham,7,26481,0.0-1.0-0.6,65ce1dc2571c87b35df1e9e9,AWAITING REVIEW,2024-02-15T14:24:04.049000Z,2024-02-15T14:31:33.286000Z,,2024-02-15T14:31:33.864777Z,450.0,CVPIIDEI,1422,31,Female,White,United States,United States,United States,English,No,Due to start a new job within the next month,Not Applicable
60fd8b1c25fe10912980d749,<b>I spend a lot of time trying to be informed about politics.,Highly disagree,8/94,Somewhat agree,3,1708007113128,1708007115847,\Somewhat agree\,\Somewhat agree\,\3\,1708007115074,1708007115074,1946,1946,2719,buq,qns-item-noham,8,29201,0.0-1.0-0.7,65ce1dc2571c87b35df1e9e9,AWAITING REVIEW,2024-02-15T14:24:04.049000Z,2024-02-15T14:31:33.286000Z,,2024-02-15T14:31:33.864777Z,450.0,CVPIIDEI,1422,31,Female,White,United States,United States,United States,English,No,Due to start a new job within the next month,Not Applicable
60fd8b1c25fe10912980d749,<b>I think a lot about whether my beliefs are right.,Highly disagree,9/94,Somewhat agree,3,1708007115850,1708007117729,\Somewhat agree\,\Somewhat agree\,\3\,1708007116949,1708007116949,1099,1099,1879,buq,qns-item-noham,9,31083,0.0-1.0-0.8,65ce1dc2571c87b35df1e9e9,AWAITING REVIEW,2024-02-15T14:24:04.049000Z,2024-02-15T14:31:33.286000Z,,2024-02-15T14:31:33.864777Z,450.0,CVPIIDEI,1422,31,Female,White,United States,United States,United States,English,No,Due to start a new job within the next month,Not Applicable
60fd8b1c25fe10912980d749,<b>Statistics can be pretty misleading sometimes.,Highly disagree,10/94,Highly agree,4,1708007117732,1708007121698,\Somewhat agree\,\Highly agree\,\3\,1708007118642,1708007119421,910,1689,3966,buq,qns-item-noham,10,35052,0.0-1.0-0.9,65ce1dc2571c87b35df1e9e9,AWAITING REVIEW,2024-02-15T14:24:04.049000Z,2024-02-15T14:31:33.286000Z,,2024-02-15T14:31:33.864777Z,450.0,CVPIIDEI,1422,31,Female,White,United States,United States,United States,English,No,Due to start a new job within the next month,Not Applicable
60fd8b1c25fe10912980d749,<b>I have lots of beliefs that I?m only sort of sure about.,Highly disagree,11/94,Somewhat disagree,2,1708007121700,1708007125113,\Somewhat agree\,\Somewhat disagree\,\3\,1708007123302,1708007124207,1602,2507,3413,buq,qns-item-noham,11,38467,0.0-1.0-0.10,65ce1dc2571c87b35df1e9e9,AWAITING REVIEW,2024-02-15T14:24:04.049000Z,2024-02-15T14:31:33.286000Z,,2024-02-15T14:31:33.864777Z,450.0,CVPIIDEI,1422,31,Female,White,United States,United States,United States,English,No,Due to start a new job within the next month,Not Applicable
60fd8b1c25fe10912980d749,"<b>If I go to my favorite restaurant and the food is surprisingly bad, it reminds me there are many disappointments in life.",Highly disagree,12/94,Somewhat disagree,2,1708007125114,1708007130066,\Somewhat agree\,\Somewhat disagree\,\3\,1708007128563,1708007129225,3449,4111,4952,buq,qns-item-noham,12,43420,0.0-1.0-0.11,65ce1dc2571c87b35df1e9e9,AWAITING REVIEW,2024-02-15T14:24:04.049000Z,2024-02-15T14:31:33.286000Z,,2024-02-15T14:31:33.864777Z,450.0,CVPIIDEI,1422,31,Female,White,United States,United States,United States,English,No,Due to start a new job within the next month,Not Applicable
60fd8b1c25fe10912980d749,"<b>If you are paying attention, please select ?Somewhat agree?",Highly disagree,13/94,Somewhat agree,3,1708007130068,1708007136404,\Somewhat agree\,\Somewhat agree\,\3\,1708007135448,1708007135448,5380,5380,6336,buq,qns-item-noham,13,49758,0.0-1.0-0.12,65ce1dc2571c87b35df1e9e9,AWAITING REVIEW,2024-02-15T14:24:04.049000Z,2024-02-15T14:31:33.286000Z,,2024-02-15T14:31:33.864777Z,450.0,CVPIIDEI,1422,31,Female,White,United States,United States,United States,English,No,Due to start a new job within the next month,Not Applicable
60fd8b1c25fe10912980d749,"<b>When I talk to others, I often worry I?ll convince them of something I didn?t mean to.",Highly disagree,14/94,Highly disagree,1,1708007136405,1708007140497,\Highly disagree\,\Highly disagree\,\1\,1708007139564,1708007139564,3159,3159,4092,buq,qns-item-noham,14,53851,0.0-1.0-0.13,65ce1dc2571c87b35df1e9e9,AWAITING REVIEW,2024-02-15T14:24:04.049000Z,2024-02-15T14:31:33.286000Z,,2024-02-15T14:31:33.864777Z,450.0,CVPIIDEI,1422,31,Female,White,United States,United States,United States,English,No,Due to start a new job within the next month,Not Applicable
60fd8b1c25fe10912980d749,<b>I would need to learn something utterly shocking about my party in order to change my political views.,Highly disagree,15/94,Somewhat agree,3,1708007140499,1708007143693,\Somewhat agree\,\Somewhat agree\,\3\,1708007142948,1708007142948,2449,2449,3194,buq,qns-item-noham,15,57047,0.0-1.0-0.14,65ce1dc2571c87b35df1e9e9,AWAITING REVIEW,2024-02-15T14:24:04.049000Z,2024-02-15T14:31:33.286000Z,,2024-02-15T14:31:33.864777Z,450.0,CVPIIDEI,1422,31,Female,White,United States,United States,United States,English,No,Due to start a new job within the next month,Not Applicable
60fd8b1c25fe10912980d749,"<b>When I have new experiences, I tend to think of them as unique.",Highly disagree,16/94,Somewhat agree,3,1708007143700,1708007145624,\Somewhat agree\,\Somewhat agree\,\3\,1708007145291,1708007145291,1591,1591,1924,buq,qns-item-noham,16,58978,0.0-1.0-0.15,65ce1dc2571c87b35df1e9e9,AWAITING REVIEW,2024-02-15T14:24:04.049000Z,2024-02-15T14:31:33.286000Z,,2024-02-15T14:31:33.864777Z,450.0,CVPIIDEI,1422,31,Female,White,United States,United States,United States,English,No,Due to start a new job within the next month,Not Applicable
60fd8b1c25fe10912980d749,<b>I change my mind about specific policies pretty frequently.,Highly disagree,17/94,Somewhat disagree,2,1708007145625,1708007147835,\Somewhat disagree\,\Somewhat disagree\,\2\,1708007147495,1708007147495,1870,1870,2210,buq,qns-item-noham,17,61189,0.0-1.0-0.16,65ce1dc2571c87b35df1e9e9,AWAITING REVIEW,2024-02-15T14:24:04.049000Z,2024-02-15T14:31:33.286000Z,,2024-02-15T14:31:33.864777Z,450.0,CVPIIDEI,1422,31,Female,White,United States,United States,United States,English,No,Due to start a new job within the next month,Not Applicable
60fd8b1c25fe10912980d749,"<b>If a politician in my political party supports something I disagree with, I give them the benefit of the doubt, as such issues often involve hidden complexities that aren?t obvious.   ",Highly disagree,18/94,Somewhat agree,3,1708007147838,1708007150679,\Somewhat disagree\,\Somewhat agree\,\2\,1708007149419,1708007150275,1581,2437,2841,buq,qns-item-noham,18,64033,0.0-1.0-0.17,65ce1dc2571c87b35df1e9e9,AWAITING REVIEW,2024-02-15T14:24:04.049000Z,2024-02-15T14:31:33.286000Z,,2024-02-15T14:31:33.864777Z,450.0,CVPIIDEI,1422,31,Female,White,United States,United States,United States,English,No,Due to start a new job within the next month,Not Applicable
60fd8b1c25fe10912980d749,<b>People?s bad politics are usually motivated by hatefulness.,Highly disagree,19/94,Somewhat agree,3,1708007150681,1708007152744,\Somewhat agree\,\Somewhat agree\,\3\,1708007151665,1708007151665,984,984,2063,buq,qns-item-noham,19,66098,0.0-1.0-0.18,65ce1dc2571c87b35df1e9e9,AWAITING REVIEW,2024-02-15T14:24:04.049000Z,2024-02-15T14:31:33.286000Z,,2024-02-15T14:31:33.864777Z,450.0,CVPIIDEI,1422,31,Female,White,United States,United States,United States,English,No,Due to start a new job within the next month,Not Applicable
60fd8b1c25fe10912980d749,<b>I think a lot about how to reconcile my beliefs with one another.,Highly disagree,20/94,Somewhat agree,3,1708007152746,1708007154495,\Somewhat agree\,\Somewhat agree\,\3\,1708007154255,1708007154255,1509,1509,1749,buq,qns-item-noham,20,67849,0.0-1.0-0.19,65ce1dc2571c87b35df1e9e9,AWAITING REVIEW,2024-02-15T14:24:04.049000Z,2024-02-15T14:31:33.286000Z,,2024-02-15T14:31:33.864777Z,450.0,CVPIIDEI,1422,31,Female,White,United States,United States,United States,English,No,Due to start a new job within the next month,Not Applicable
60fd8b1c25fe10912980d749,<b>I might have false beliefs about important topics.,Highly disagree,21/94,Somewhat agree,3,1708007154496,1708007155973,\Somewhat agree\,\Somewhat agree\,\3\,1708007155752,1708007155752,1256,1256,1477,buq,qns-item-noham,21,69327,0.0-1.0-0.20,65ce1dc2571c87b35df1e9e9,AWAITING REVIEW,2024-02-15T14:24:04.049000Z,2024-02-15T14:31:33.286000Z,,2024-02-15T14:31:33.864777Z,450.0,CVPIIDEI,1422,31,Female,White,United States,United States,United States,English,No,Due to start a new job within the next month,Not Applicable
60fd8b1c25fe10912980d749,"<b>If a good friend of mine does something unexpected that upsets me, I feel like I don?t know them anymore.",Highly disagree,22/94,Somewhat disagree,2,1708007155975,1708007158803,\Somewhat disagree\,\Somewhat disagree\,\2\,1708007158078,1708007158078,2103,2103,2828,buq,qns-item-noham,22,72157,0.0-1.0-0.21,65ce1dc2571c87b35df1e9e9,AWAITING REVIEW,2024-02-15T14:24:04.049000Z,2024-02-15T14:31:33.286000Z,,2024-02-15T14:31:33.864777Z,450.0,CVPIIDEI,1422,31,Female,White,United States,United States,United States,English,No,Due to start a new job within the next month,Not Applicable
60fd8b1c25fe10912980d749,<b>Other people?s beliefs are often incoherent.,Highly disagree,23/94,Somewhat disagree,2,1708007158804,1708007160496,\Somewhat disagree\,\Somewhat disagree\,\2\,1708007160158,1708007160158,1354,1354,1692,buq,qns-item-noham,23,73850,0.0-1.0-0.22,65ce1dc2571c87b35df1e9e9,AWAITING REVIEW,2024-02-15T14:24:04.049000Z,2024-02-15T14:31:33.286000Z,,2024-02-15T14:31:33.864777Z,450.0,CVPIIDEI,1422,31,Female,White,United States,United States,United States,English,No,Due to start a new job within the next month,Not Applicable
60fd8b1c25fe10912980d749,"<b>Every now and then, a new experience will unsettle beliefs I?ve had for a while.",Highly disagree,24/94,Somewhat disagree,2,1708007160498,1708007162139,\Somewhat disagree\,\Somewhat disagree\,\2\,1708007161753,1708007161753,1255,1255,1641,buq,qns-item-noham,24,75493,0.0-1.0-0.23,65ce1dc2571c87b35df1e9e9,AWAITING REVIEW,2024-02-15T14:24:04.049000Z,2024-02-15T14:31:33.286000Z,,2024-02-15T14:31:33.864777Z,450.0,CVPIIDEI,1422,31,Female,White,United States,United States,United States,English,No,Due to start a new job within the next month,Not Applicable
60fd8b1c25fe10912980d749,<b>Some policies I agree with in principle are so bad I don?t support them. ,Highly disagree,25/94,Somewhat disagree,2,1708007162140,1708007167624,\Somewhat agree\,\Somewhat disagree\,\3\,1708007164384,1708007166280,2244,4140,5484,buq,qns-item-noham,25,80978,0.0-1.0-0.24,65ce1dc2571c87b35df1e9e9,AWAITING REVIEW,2024-02-15T14:24:04.049000Z,2024-02-15T14:31:33.286000Z,,2024-02-15T14:31:33.864777Z,450.0,CVPIIDEI,1422,31,Female,White,United States,United States,United States,English,No,Due to start a new job within the next month,Not Applicable
60fd8b1c25fe10912980d749,<b>I?m pretty sure I?ve accidentally spread false information.,Highly disagree,26/94,Somewhat agree,3,1708007167627,1708007170863,\Somewhat disagree\,\Somewhat agree\,\2\,1708007170230,1708007170538,2603,2911,3236,buq,qns-item-noham,26,84217,0.0-1.0-0.25,65ce1dc2571c87b35df1e9e9,AWAITING REVIEW,2024-02-15T14:24:04.049000Z,2024-02-15T14:31:33.286000Z,,2024-02-15T14:31:33.864777Z,450.0,CVPIIDEI,1422,31,Female,White,United States,United States,United States,English,No,Due to start a new job within the next month,Not Applicable
60fd8b1c25fe10912980d749,"<b>If I go to my favorite restaurant and the food is unexpectedly bad, then they have changed owners.",Highly disagree,27/94,Somewhat disagree,2,1708007170864,1708007172789,\Somewhat agree\,\Somewhat disagree\,\3\,1708007171712,1708007172494,848,1630,1925,buq,qns-item-noham,27,86143,0.0-1.0-0.26,65ce1dc2571c87b35df1e9e9,AWAITING REVIEW,2024-02-15T14:24:04.049000Z,2024-02-15T14:31:33.286000Z,,2024-02-15T14:31:33.864777Z,450.0,CVPIIDEI,1422,31,Female,White,United States,United States,United States,English,No,Due to start a new job within the next month,Not Applicable
60fd8b1c25fe10912980d749,"<b>In politics, it?s important to trust your friends and family.",Highly disagree,28/94,Somewhat disagree,2,1708007172792,1708007175022,\Somewhat agree\,\Somewhat disagree\,\3\,1708007173945,1708007174747,1153,1955,2230,buq,qns-item-noham,28,88376,0.0-1.0-0.27,65ce1dc2571c87b35df1e9e9,AWAITING REVIEW,2024-02-15T14:24:04.049000Z,2024-02-15T14:31:33.286000Z,,2024-02-15T14:31:33.864777Z,450.0,CVPIIDEI,1422,31,Female,White,United States,United States,United States,English,No,Due to start a new job within the next month,Not Applicable
60fd8b1c25fe10912980d749,<b>It?s OK to have some conflicting beliefs.,Highly disagree,29/94,Somewhat agree,3,1708007175023,1708007176100,\Somewhat agree\,\Somewhat agree\,\3\,1708007175878,1708007175878,855,855,1077,buq,qns-item-noham,29,89454,0.0-1.0-0.28,65ce1dc2571c87b35df1e9e9,AWAITING REVIEW,2024-02-15T14:24:04.049000Z,2024-02-15T14:31:33.286000Z,,2024-02-15T14:31:33.864777Z,450.0,CVPIIDEI,1422,31,Female,White,United States,United States,United States,English,No,Due to start a new job within the next month,Not Applicable
60fd8b1c25fe10912980d749,<b>Listening to people I disagree with makes my opinions better.,Highly disagree,30/94,Somewhat agree,3,1708007176102,1708007178034,\Somewhat agree\,\Somewhat agree\,\3\,1708007177785,1708007177785,1683,1683,1932,buq,qns-item-noham,30,91388,0.0-1.0-0.29,65ce1dc2571c87b35df1e9e9,AWAITING REVIEW,2024-02-15T14:24:04.049000Z,2024-02-15T14:31:33.286000Z,,2024-02-15T14:31:33.864777Z,450.0,CVPIIDEI,1422,31,Female,White,United States,United States,United States,English,No,Due to start a new job within the next month,Not Applicable
60fd8b1c25fe10912980d749,<b>My moral compass sometimes makes it harder to determine what?s true.,Highly disagree,31/94,Somewhat disagree,2,1708007178035,1708007180682,\Somewhat disagree\,\Somewhat disagree\,\2\,1708007179799,1708007179799,1764,1764,2647,buq,qns-item-noham,31,94036,0.0-1.0-0.30,65ce1dc2571c87b35df1e9e9,AWAITING REVIEW,2024-02-15T14:24:04.049000Z,2024-02-15T14:31:33.286000Z,,2024-02-15T14:31:33.864777Z,450.0,CVPIIDEI,1422,31,Female,White,United States,United States,United States,English,No,Due to start a new job within the next month,Not Applicable
60fd8b1c25fe10912980d749,<b>Evidence pointing in the wrong direction isn?t really evidence at all.,Highly disagree,32/94,Somewhat disagree,2,1708007180683,1708007182263,\Somewhat disagree\,\Somewhat disagree\,\2\,1708007181952,1708007181952,1269,1269,1580,buq,qns-item-noham,32,95617,0.0-1.0-0.31,65ce1dc2571c87b35df1e9e9,AWAITING REVIEW,2024-02-15T14:24:04.049000Z,2024-02-15T14:31:33.286000Z,,2024-02-15T14:31:33.864777Z,450.0,CVPIIDEI,1422,31,Female,White,United States,United States,United States,English,No,Due to start a new job within the next month,Not Applicable
60fd8b1c25fe10912980d749,"<b>If the political party I support messes up, it makes me think politics is rotten.",Highly disagree,33/94,Somewhat disagree,2,1708007182265,1708007185661,\Somewhat disagree\,\Somewhat disagree\,\2\,1708007185215,1708007185215,2950,2950,3396,buq,qns-item-noham,33,99015,0.0-1.0-0.32,65ce1dc2571c87b35df1e9e9,AWAITING REVIEW,2024-02-15T14:24:04.049000Z,2024-02-15T14:31:33.286000Z,,2024-02-15T14:31:33.864777Z,450.0,CVPIIDEI,1422,31,Female,White,United States,United States,United States,English,No,Due to start a new job within the next month,Not Applicable
60fd8b1c25fe10912980d749,<b>Lots of important topics can only really be understood by some groups of people.,Highly disagree,34/94,Somewhat disagree,2,1708007185664,1708007187219,\Somewhat disagree\,\Somewhat disagree\,\2\,1708007186633,1708007186633,969,969,1555,buq,qns-item-noham,34,100574,0.0-1.0-0.33,65ce1dc2571c87b35df1e9e9,AWAITING REVIEW,2024-02-15T14:24:04.049000Z,2024-02-15T14:31:33.286000Z,,2024-02-15T14:31:33.864777Z,450.0,CVPIIDEI,1422,31,Female,White,United States,United States,United States,English,No,Due to start a new job within the next month,Not Applicable
60fd8b1c25fe10912980d749,<b>Having conflicting beliefs means you haven?t thought about them enough.,Highly disagree,35/94,Highly disagree,1,1708007187221,1708007189474,\Highly disagree\,\Highly disagree\,\1\,1708007188869,1708007188869,1648,1648,2253,buq,qns-item-noham,35,102828,0.0-1.0-0.34,65ce1dc2571c87b35df1e9e9,AWAITING REVIEW,2024-02-15T14:24:04.049000Z,2024-02-15T14:31:33.286000Z,,2024-02-15T14:31:33.864777Z,450.0,CVPIIDEI,1422,31,Female,White,United States,United States,United States,English,No,Due to start a new job within the next month,Not Applicable
60fd8b1c25fe10912980d749,<b>I do not often change my political opinions.,Highly disagree,36/94,Somewhat agree,3,1708007189475,1708007191227,\Somewhat agree\,\Somewhat agree\,\3\,1708007190998,1708007190998,1523,1523,1752,buq,qns-item-noham,36,104581,0.0-1.0-0.35,65ce1dc2571c87b35df1e9e9,AWAITING REVIEW,2024-02-15T14:24:04.049000Z,2024-02-15T14:31:33.286000Z,,2024-02-15T14:31:33.864777Z,450.0,CVPIIDEI,1422,31,Female,White,United States,United States,United States,English,No,Due to start a new job within the next month,Not Applicable
60fd8b1c25fe10912980d749,<b>It?s difficult to not have at least some conflicting beliefs.,Highly disagree,37/94,Somewhat agree,3,1708007191228,1708007193684,\Somewhat agree\,\Somewhat agree\,\3\,1708007192835,1708007192835,1607,1607,2456,buq,qns-item-noham,37,107038,0.0-1.0-0.36,65ce1dc2571c87b35df1e9e9,AWAITING REVIEW,2024-02-15T14:24:04.049000Z,2024-02-15T14:31:33.286000Z,,2024-02-15T14:31:33.864777Z,450.0,CVPIIDEI,1422,31,Female,White,United States,United States,United States,English,No,Due to start a new job within the next month,Not Applicable
60fd8b1c25fe10912980d749,<b>Wishful thinking causes a lot of problems.,Highly disagree,38/94,Somewhat agree,3,1708007193685,1708007195950,\Somewhat disagree\,\Somewhat agree\,\2\,1708007195135,1708007195506,1450,1821,2265,buq,qns-item-noham,38,109304,0.0-1.0-0.37,65ce1dc2571c87b35df1e9e9,AWAITING REVIEW,2024-02-15T14:24:04.049000Z,2024-02-15T14:31:33.286000Z,,2024-02-15T14:31:33.864777Z,450.0,CVPIIDEI,1422,31,Female,White,United States,United States,United States,English,No,Due to start a new job within the next month,Not Applicable
60fd8b1c25fe10912980d749,<b>I judge a food item only once I try it many times.,Highly disagree,39/94,Somewhat disagree,2,1708007195951,1708007197984,\Somewhat disagree\,\Somewhat disagree\,\2\,1708007197702,1708007197702,1751,1751,2033,buq,qns-item-noham,39,111338,0.0-1.0-0.38,65ce1dc2571c87b35df1e9e9,AWAITING REVIEW,2024-02-15T14:24:04.049000Z,2024-02-15T14:31:33.286000Z,,2024-02-15T14:31:33.864777Z,450.0,CVPIIDEI,1422,31,Female,White,United States,United States,United States,English,No,Due to start a new job within the next month,Not Applicable
60fd8b1c25fe10912980d749,"<b>When a person holds conflicting beliefs, they should really try to figure out what?s wrong.",Highly disagree,40/94,Somewhat disagree,2,1708007197985,1708007203340,\Somewhat disagree\,\Somewhat disagree\,\2\,1708007202466,1708007202466,4481,4481,5355,buq,qns-item-noham,40,116694,0.0-1.0-0.39,65ce1dc2571c87b35df1e9e9,AWAITING REVIEW,2024-02-15T14:24:04.049000Z,2024-02-15T14:31:33.286000Z,,2024-02-15T14:31:33.864777Z,450.0,CVPIIDEI,1422,31,Female,White,United States,United States,United States,English,No,Due to start a new job within the next month,Not Applicable
60fd8b1c25fe10912980d749,<b>Knowing what?s important in life is easy.,Highly disagree,41/94,Somewhat agree,3,1708007203341,1708007206323,\Somewhat agree\,\Somewhat agree\,\3\,1708007205426,1708007205426,2085,2085,2982,buq,qns-item-noham,41,119677,0.0-1.0-0.40,65ce1dc2571c87b35df1e9e9,AWAITING REVIEW,2024-02-15T14:24:04.049000Z,2024-02-15T14:31:33.286000Z,,2024-02-15T14:31:33.864777Z,450.0,CVPIIDEI,1422,31,Female,White,United States,United States,United States,English,No,Due to start a new job within the next month,Not Applicable
60fd8b1c25fe10912980d749,<b>I swim across the Atlantic Ocean to get to work every day.,Highly disagree,42/94,Highly disagree,1,1708007206325,1708007211560,\Highly disagree\,\Highly disagree\,\1\,1708007210277,1708007210277,3952,3952,5235,buq,qns-item-noham,42,124914,0.0-1.0-0.41,65ce1dc2571c87b35df1e9e9,AWAITING REVIEW,2024-02-15T14:24:04.049000Z,2024-02-15T14:31:33.286000Z,,2024-02-15T14:31:33.864777Z,450.0,CVPIIDEI,1422,31,Female,White,United States,United States,United States,English,No,Due to start a new job within the next month,Not Applicable
60fd8b1c25fe10912980d749,"<b>Sometimes, you just have to ignore evidence that you know is wrong.",Highly disagree,43/94,Somewhat disagree,2,1708007211561,1708007216799,\Somewhat agree\,\Somewhat disagree\,\3\,1708007215034,1708007215872,3473,4311,5238,buq,qns-item-noham,43,130153,0.0-1.0-0.42,65ce1dc2571c87b35df1e9e9,AWAITING REVIEW,2024-02-15T14:24:04.049000Z,2024-02-15T14:31:33.286000Z,,2024-02-15T14:31:33.864777Z,450.0,CVPIIDEI,1422,31,Female,White,United States,United States,United States,English,No,Due to start a new job within the next month,Not Applicable
60fd8b1c25fe10912980d749,<b>I have had some false beliefs.,Highly disagree,44/94,Somewhat agree,3,1708007216800,1708007224916,\Somewhat agree\,\Somewhat agree\,\3\,1708007222927,1708007222927,6127,6127,8116,buq,qns-item-noham,44,138271,0.0-1.0-0.43,65ce1dc2571c87b35df1e9e9,AWAITING REVIEW,2024-02-15T14:24:04.049000Z,2024-02-15T14:31:33.286000Z,,2024-02-15T14:31:33.864777Z,450.0,CVPIIDEI,1422,31,Female,White,United States,United States,United States,English,No,Due to start a new job within the next month,Not Applicable
60fd8b1c25fe10912980d749,"<b>If one friend does something that upsets me, I sometimes start to distrust people in general.",Highly disagree,45/94,Somewhat disagree,2,1708007224918,1708007233992,\Somewhat disagree\,\Somewhat disagree\,\2\,1708007233124,1708007233124,8206,8206,9074,buq,qns-item-noham,45,147346,0.0-1.0-0.44,65ce1dc2571c87b35df1e9e9,AWAITING REVIEW,2024-02-15T14:24:04.049000Z,2024-02-15T14:31:33.286000Z,,2024-02-15T14:31:33.864777Z,450.0,CVPIIDEI,1422,31,Female,White,United States,United States,United States,English,No,Due to start a new job within the next month,Not Applicable
60fd8b1c25fe10912980d749,<b>The facts about most important matters are easy to find.,Highly disagree,46/94,Somewhat disagree,2,1708007233993,1708007243250,\Somewhat agree\,\Somewhat disagree\,\3\,1708007240551,1708007242491,6558,8498,9257,buq,qns-item-noham,46,156604,0.0-1.0-0.45,65ce1dc2571c87b35df1e9e9,AWAITING REVIEW,2024-02-15T14:24:04.049000Z,2024-02-15T14:31:33.286000Z,,2024-02-15T14:31:33.864777Z,450.0,CVPIIDEI,1422,31,Female,White,United States,United States,United States,English,No,Due to start a new job within the next month,Not Applicable
60fd8b1c25fe10912980d749,<b>It?s better to know what?s true than to know what?s moral.,Highly disagree,47/94,Somewhat agree,3,1708007243251,1708007245233,\Somewhat agree\,\Somewhat agree\,\3\,1708007244461,1708007244461,1210,1210,1982,buq,qns-item-noham,47,158587,0.0-1.0-0.46,65ce1dc2571c87b35df1e9e9,AWAITING REVIEW,2024-02-15T14:24:04.049000Z,2024-02-15T14:31:33.286000Z,,2024-02-15T14:31:33.864777Z,450.0,CVPIIDEI,1422,31,Female,White,United States,United States,United States,English,No,Due to start a new job within the next month,Not Applicable
60fd8b1c25fe10912980d749,<b>I used to think the world was less complicated than I do now.,Highly disagree,48/94,Somewhat agree,3,1708007245235,1708007247940,\Somewhat agree\,\Somewhat agree\,\3\,1708007246561,1708007246561,1326,1326,2705,buq,qns-item-noham,48,161294,0.0-1.0-0.47,65ce1dc2571c87b35df1e9e9,AWAITING REVIEW,2024-02-15T14:24:04.049000Z,2024-02-15T14:31:33.286000Z,,2024-02-15T14:31:33.864777Z,450.0,CVPIIDEI,1422,31,Female,White,United States,United States,United States,English,No,Due to start a new job within the next month,Not Applicable
60fd8b1c25fe10912980d749,<b>People are usually completely right or completely wrong.,Highly disagree,49/94,Highly disagree,1,1708007247941,1708007257059,\Highly disagree\,\Highly disagree\,\1\,1708007256175,1708007256175,8234,8234,9118,buq,qns-item-noham,49,170413,0.0-1.0-0.48,65ce1dc2571c87b35df1e9e9,AWAITING REVIEW,2024-02-15T14:24:04.049000Z,2024-02-15T14:31:33.286000Z,,2024-02-15T14:31:33.864777Z,450.0,CVPIIDEI,1422,31,Female,White,United States,United States,United States,English,No,Due to start a new job within the next month,Not Applicable
60fd8b1c25fe10912980d749,<b>I spend a lot of time considering alternatives to my beliefs.,Highly disagree,50/94,Somewhat disagree,2,1708007257060,1708007264002,\Somewhat disagree\,\Somewhat disagree\,\2\,1708007263221,1708007263221,6161,6161,6942,buq,qns-item-noham,50,177356,0.0-1.0-0.49,65ce1dc2571c87b35df1e9e9,AWAITING REVIEW,2024-02-15T14:24:04.049000Z,2024-02-15T14:31:33.286000Z,,2024-02-15T14:31:33.864777Z,450.0,CVPIIDEI,1422,31,Female,White,United States,United States,United States,English,No,Due to start a new job within the next month,Not Applicable
60fd8b1c25fe10912980d749,"<b>Political enemies need to be defeated, not convinced.",Highly disagree,51/94,Somewhat agree,3,1708007264003,1708007270428,\Somewhat agree\,\Somewhat agree\,\3\,1708007269648,1708007269648,5645,5645,6425,buq,qns-item-noham,51,183782,0.0-1.0-0.50,65ce1dc2571c87b35df1e9e9,AWAITING REVIEW,2024-02-15T14:24:04.049000Z,2024-02-15T14:31:33.286000Z,,2024-02-15T14:31:33.864777Z,450.0,CVPIIDEI,1422,31,Female,White,United States,United States,United States,English,No,Due to start a new job within the next month,Not Applicable
60fd8b1c25fe10912980d749,<b>I form my political views only after meticulously gathering historical and present information about their policies.,Highly disagree,52/94,Somewhat agree,3,1708007270430,1708007272982,\Somewhat agree\,\Somewhat agree\,\3\,1708007272194,1708007272194,1764,1764,2552,buq,qns-item-noham,52,186336,0.0-1.0-0.51,65ce1dc2571c87b35df1e9e9,AWAITING REVIEW,2024-02-15T14:24:04.049000Z,2024-02-15T14:31:33.286000Z,,2024-02-15T14:31:33.864777Z,450.0,CVPIIDEI,1422,31,Female,White,United States,United States,United States,English,No,Due to start a new job within the next month,Not Applicable
60fd8b1c25fe10912980d749,<b>It is difficult for me to remember the last time I was surprised by politics.,Highly disagree,53/94,Somewhat agree,3,1708007272983,1708007282159,\Somewhat agree\,\Somewhat agree\,\3\,1708007274572,1708007274572,1589,1589,9176,buq,qns-item-noham,53,195513,0.0-1.0-0.52,65ce1dc2571c87b35df1e9e9,AWAITING REVIEW,2024-02-15T14:24:04.049000Z,2024-02-15T14:31:33.286000Z,,2024-02-15T14:31:33.864777Z,450.0,CVPIIDEI,1422,31,Female,White,United States,United States,United States,English,No,Due to start a new job within the next month,Not Applicable
60fd8b1c25fe10912980d749,"<b>When I find out I?m wrong, I think a lot about my related beliefs.",Highly disagree,54/94,Somewhat agree,3,1708007282160,1708007285843,\Somewhat agree\,\Somewhat agree\,\3\,1708007284609,1708007284609,2449,2449,3683,buq,qns-item-noham,54,199197,0.0-1.0-0.53,65ce1dc2571c87b35df1e9e9,AWAITING REVIEW,2024-02-15T14:24:04.049000Z,2024-02-15T14:31:33.286000Z,,2024-02-15T14:31:33.864777Z,450.0,CVPIIDEI,1422,31,Female,White,United States,United States,United States,English,No,Due to start a new job within the next month,Not Applicable
60fd8b1c25fe10912980d749,"<b>If the political party I support messes up, it makes me think you can?t trust anyone these days",Highly disagree,55/94,Somewhat disagree,2,1708007285844,1708007296267,\Somewhat disagree\,\Somewhat disagree\,\2\,1708007295538,1708007295538,9694,9694,10423,buq,qns-item-noham,55,209621,0.0-1.0-0.54,65ce1dc2571c87b35df1e9e9,AWAITING REVIEW,2024-02-15T14:24:04.049000Z,2024-02-15T14:31:33.286000Z,,2024-02-15T14:31:33.864777Z,450.0,CVPIIDEI,1422,31,Female,White,United States,United States,United States,English,No,Due to start a new job within the next month,Not Applicable
60fd8b1c25fe10912980d749,<b>People?s brains turn off when they talk about politics.,Highly disagree,56/94,Somewhat disagree,2,1708007296268,1708007298538,\Somewhat disagree\,\Somewhat disagree\,\2\,1708007297850,1708007297850,1582,1582,2270,buq,qns-item-noham,56,211892,0.0-1.0-0.55,65ce1dc2571c87b35df1e9e9,AWAITING REVIEW,2024-02-15T14:24:04.049000Z,2024-02-15T14:31:33.286000Z,,2024-02-15T14:31:33.864777Z,450.0,CVPIIDEI,1422,31,Female,White,United States,United States,United States,English,No,Due to start a new job within the next month,Not Applicable
60fd8b1c25fe10912980d749,<b>People who are wrong are usually just ignoring the obvious.,Highly disagree,57/94,Somewhat disagree,2,1708007298540,1708007300609,\Somewhat disagree\,\Somewhat disagree\,\2\,1708007299689,1708007299689,1149,1149,2069,buq,qns-item-noham,57,213963,0.0-1.0-0.56,65ce1dc2571c87b35df1e9e9,AWAITING REVIEW,2024-02-15T14:24:04.049000Z,2024-02-15T14:31:33.286000Z,,2024-02-15T14:31:33.864777Z,450.0,CVPIIDEI,1422,31,Female,White,United States,United States,United States,English,No,Due to start a new job within the next month,Not Applicable
60fd8b1c25fe10912980d749,"<b>When forming my views on people, I rely more on what they are like now rather than rely on my past experience with them.",Highly disagree,58/94,Somewhat agree,3,1708007300610,1708007303820,\Somewhat disagree\,\Somewhat agree\,\2\,1708007301995,1708007302615,1385,2005,3210,buq,qns-item-noham,58,217174,0.0-1.0-0.57,65ce1dc2571c87b35df1e9e9,AWAITING REVIEW,2024-02-15T14:24:04.049000Z,2024-02-15T14:31:33.286000Z,,2024-02-15T14:31:33.864777Z,450.0,CVPIIDEI,1422,31,Female,White,United States,United States,United States,English,No,Due to start a new job within the next month,Not Applicable
60fd8b1c25fe10912980d749,"<b>When people contradict my beliefs, I usually know about their evidence already.",Highly disagree,59/94,Somewhat disagree,2,1708007303821,1708007305888,\Somewhat disagree\,\Somewhat disagree\,\2\,1708007305206,1708007305206,1385,1385,2067,buq,qns-item-noham,59,219242,0.0-1.0-0.58,65ce1dc2571c87b35df1e9e9,AWAITING REVIEW,2024-02-15T14:24:04.049000Z,2024-02-15T14:31:33.286000Z,,2024-02-15T14:31:33.864777Z,450.0,CVPIIDEI,1422,31,Female,White,United States,United States,United States,English,No,Due to start a new job within the next month,Not Applicable
60fd8b1c25fe10912980d749,<b>Figuring out what?s true and what?s false mainly requires a strong moral compass.,Highly disagree,60/94,Somewhat disagree,2,1708007305890,1708007308152,\Somewhat disagree\,\Somewhat disagree\,\2\,1708007306767,1708007306767,877,877,2262,buq,qns-item-noham,60,221506,0.0-1.0-0.59,65ce1dc2571c87b35df1e9e9,AWAITING REVIEW,2024-02-15T14:24:04.049000Z,2024-02-15T14:31:33.286000Z,,2024-02-15T14:31:33.864777Z,450.0,CVPIIDEI,1422,31,Female,White,United States,United States,United States,English,No,Due to start a new job within the next month,Not Applicable
60fd8b1c25fe10912980d749,"<b>Usually I?m wrong about simple things, not complicated ones.",Highly disagree,61/94,Somewhat disagree,2,1708007308154,1708007310428,\Somewhat disagree\,\Somewhat disagree\,\2\,1708007309210,1708007309210,1056,1056,2274,buq,qns-item-noham,61,223782,0.0-1.0-0.60,65ce1dc2571c87b35df1e9e9,AWAITING REVIEW,2024-02-15T14:24:04.049000Z,2024-02-15T14:31:33.286000Z,,2024-02-15T14:31:33.864777Z,450.0,CVPIIDEI,1422,31,Female,White,United States,United States,United States,English,No,Due to start a new job within the next month,Not Applicable
60fd8b1c25fe10912980d749,<b>Getting all the information I want about important things is hard.,Highly disagree,62/94,Somewhat disagree,2,1708007310430,1708007313887,\Somewhat disagree\,\Somewhat disagree\,\2\,1708007312025,1708007312025,1595,1595,3457,buq,qns-item-noham,62,227241,0.0-1.0-0.61,65ce1dc2571c87b35df1e9e9,AWAITING REVIEW,2024-02-15T14:24:04.049000Z,2024-02-15T14:31:33.286000Z,,2024-02-15T14:31:33.864777Z,450.0,CVPIIDEI,1422,31,Female,White,United States,United States,United States,English,No,Due to start a new job within the next month,Not Applicable
60fd8b1c25fe10912980d749,<b>Most false beliefs spread because people try to deceive one another.,Highly disagree,63/94,Somewhat disagree,2,1708007313888,1708007317308,\Somewhat disagree\,\Somewhat disagree\,\2\,1708007316017,1708007316017,2129,2129,3420,buq,qns-item-noham,63,230662,0.0-1.0-0.62,65ce1dc2571c87b35df1e9e9,AWAITING REVIEW,2024-02-15T14:24:04.049000Z,2024-02-15T14:31:33.286000Z,,2024-02-15T14:31:33.864777Z,450.0,CVPIIDEI,1422,31,Female,White,United States,United States,United States,English,No,Due to start a new job within the next month,Not Applicable
60fd8b1c25fe10912980d749,<b>I can usually find something to agree with in most people?s beliefs.,Highly disagree,64/94,Somewhat agree,3,1708007317310,1708007349492,\Somewhat agree\,\Somewhat agree\,\3\,1708007348610,1708007348610,31300,31300,32182,buq,qns-item-noham,64,262846,0.0-1.0-0.63,65ce1dc2571c87b35df1e9e9,AWAITING REVIEW,2024-02-15T14:24:04.049000Z,2024-02-15T14:31:33.286000Z,,2024-02-15T14:31:33.864777Z,450.0,CVPIIDEI,1422,31,Female,White,United States,United States,United States,English,No,Due to start a new job within the next month,Not Applicable
60fd8b1c25fe10912980d749,<b>I only form my views of people once I get to know them very well.,Highly disagree,65/94,Somewhat agree,3,1708007349494,1708007357692,\Somewhat agree\,\Somewhat agree\,\3\,1708007356852,1708007356852,7358,7358,8198,buq,qns-item-noham,65,271046,0.0-1.0-0.64,65ce1dc2571c87b35df1e9e9,AWAITING REVIEW,2024-02-15T14:24:04.049000Z,2024-02-15T14:31:33.286000Z,,2024-02-15T14:31:33.864777Z,450.0,CVPIIDEI,1422,31,Female,White,United States,United States,United States,English,No,Due to start a new job within the next month,Not Applicable
60fd8b1c25fe10912980d749,"<b>When people tell me important things about the world, I usually believe them.",Highly disagree,66/94,Somewhat disagree,2,1708007357694,1708007361142,\Somewhat agree\,\Somewhat disagree\,\3\,1708007359551,1708007360303,1857,2609,3448,buq,qns-item-noham,66,274496,0.0-1.0-0.65,65ce1dc2571c87b35df1e9e9,AWAITING REVIEW,2024-02-15T14:24:04.049000Z,2024-02-15T14:31:33.286000Z,,2024-02-15T14:31:33.864777Z,450.0,CVPIIDEI,1422,31,Female,White,United States,United States,United States,English,No,Due to start a new job within the next month,Not Applicable
60fd8b1c25fe10912980d749,"<b>If a friend does something that upsets me, it reminds me what an unpredictable place the world is.",Highly disagree,67/94,Somewhat agree,3,1708007361144,1708007368232,\Somewhat agree\,\Somewhat agree\,\3\,1708007363468,1708007363468,2324,2324,7088,buq,qns-item-noham,67,281586,0.0-1.0-0.66,65ce1dc2571c87b35df1e9e9,AWAITING REVIEW,2024-02-15T14:24:04.049000Z,2024-02-15T14:31:33.286000Z,,2024-02-15T14:31:33.864777Z,450.0,CVPIIDEI,1422,31,Female,White,United States,United States,United States,English,No,Due to start a new job within the next month,Not Applicable
60fd8b1c25fe10912980d749,<b>People tend to believe whatever is good for their friends.,Highly disagree,68/94,Somewhat agree,3,1708007368233,1708007370355,\Somewhat agree\,\Somewhat agree\,\3\,1708007369567,1708007369567,1334,1334,2122,buq,qns-item-noham,68,283709,0.0-1.0-0.67,65ce1dc2571c87b35df1e9e9,AWAITING REVIEW,2024-02-15T14:24:04.049000Z,2024-02-15T14:31:33.286000Z,,2024-02-15T14:31:33.864777Z,450.0,CVPIIDEI,1422,31,Female,White,United States,United States,United States,English,No,Due to start a new job within the next month,Not Applicable
60fd8b1c25fe10912980d749,<b>I used to be more certain my beliefs were true.,Highly disagree,69/94,Somewhat agree,3,1708007370357,1708007381328,\Somewhat agree\,\Somewhat agree\,\3\,1708007378496,1708007378496,8139,8139,10971,buq,qns-item-noham,69,294682,0.0-1.0-0.68,65ce1dc2571c87b35df1e9e9,AWAITING REVIEW,2024-02-15T14:24:04.049000Z,2024-02-15T14:31:33.286000Z,,2024-02-15T14:31:33.864777Z,450.0,CVPIIDEI,1422,31,Female,White,United States,United States,United States,English,No,Due to start a new job within the next month,Not Applicable
60fd8b1c25fe10912980d749,<b>It?s often pretty easy to figure out whether something is true based on who said it.,Highly disagree,70/94,Somewhat agree,3,1708007381329,1708007383733,\Somewhat agree\,\Somewhat agree\,\3\,1708007382632,1708007382632,1303,1303,2404,buq,qns-item-noham,70,297087,0.0-1.0-0.69,65ce1dc2571c87b35df1e9e9,AWAITING REVIEW,2024-02-15T14:24:04.049000Z,2024-02-15T14:31:33.286000Z,,2024-02-15T14:31:33.864777Z,450.0,CVPIIDEI,1422,31,Female,White,United States,United States,United States,English,No,Due to start a new job within the next month,Not Applicable
60fd8b1c25fe10912980d749,<b>I transform into a hummingbird every day.,Highly disagree,71/94,Highly disagree,1,1708007383735,1708007386141,\Somewhat agree\,\Highly disagree\,\3\,1708007384623,1708007385336,888,1601,2406,buq,qns-item-noham,71,299495,0.0-1.0-0.70,65ce1dc2571c87b35df1e9e9,AWAITING REVIEW,2024-02-15T14:24:04.049000Z,2024-02-15T14:31:33.286000Z,,2024-02-15T14:31:33.864777Z,450.0,CVPIIDEI,1422,31,Female,White,United States,United States,United States,English,No,Due to start a new job within the next month,Not Applicable
60fd8b1c25fe10912980d749,<b>I think a lot about arguments against my views.,Highly disagree,72/94,Somewhat disagree,2,1708007386142,1708007388335,\Somewhat disagree\,\Somewhat disagree\,\2\,1708007387555,1708007387555,1413,1413,2193,buq,qns-item-noham,72,301689,0.0-1.0-0.71,65ce1dc2571c87b35df1e9e9,AWAITING REVIEW,2024-02-15T14:24:04.049000Z,2024-02-15T14:31:33.286000Z,,2024-02-15T14:31:33.864777Z,450.0,CVPIIDEI,1422,31,Female,White,United States,United States,United States,English,No,Due to start a new job within the next month,Not Applicable
60fd8b1c25fe10912980d749,<b>Personal experience is usually more important than facts and figures.,Highly disagree,73/94,Somewhat agree,3,1708007388337,1708007391881,\Somewhat agree\,\Somewhat agree\,\3\,1708007391195,1708007391195,2858,2858,3544,buq,qns-item-noham,73,305235,0.0-1.0-0.72,65ce1dc2571c87b35df1e9e9,AWAITING REVIEW,2024-02-15T14:24:04.049000Z,2024-02-15T14:31:33.286000Z,,2024-02-15T14:31:33.864777Z,450.0,CVPIIDEI,1422,31,Female,White,United States,United States,United States,English,No,Due to start a new job within the next month,Not Applicable
60fd8b1c25fe10912980d749,<b>I?ve been tricked before about important matters.,Highly disagree,74/94,Somewhat agree,3,1708007391882,1708007393976,\Somewhat agree\,\Somewhat agree\,\3\,1708007392814,1708007392814,932,932,2094,buq,qns-item-noham,74,307330,0.0-1.0-0.73,65ce1dc2571c87b35df1e9e9,AWAITING REVIEW,2024-02-15T14:24:04.049000Z,2024-02-15T14:31:33.286000Z,,2024-02-15T14:31:33.864777Z,450.0,CVPIIDEI,1422,31,Female,White,United States,United States,United States,English,No,Due to start a new job within the next month,Not Applicable
60fd8b1c25fe10912980d749,<b>I would need to be totally wowed if I were to change my opinion of a restaurant I don?t like.,Highly disagree,75/94,Somewhat agree,3,1708007393978,1708007396237,\Somewhat agree\,\Somewhat agree\,\3\,1708007395027,1708007395027,1049,1049,2259,buq,qns-item-noham,75,309591,0.0-1.0-0.74,65ce1dc2571c87b35df1e9e9,AWAITING REVIEW,2024-02-15T14:24:04.049000Z,2024-02-15T14:31:33.286000Z,,2024-02-15T14:31:33.864777Z,450.0,CVPIIDEI,1422,31,Female,White,United States,United States,United States,English,No,Due to start a new job within the next month,Not Applicable
60fd8b1c25fe10912980d749,<b>I care a lot about politics.,Highly disagree,76/94,Somewhat agree,3,1708007396238,1708007398286,\Somewhat agree\,\Somewhat agree\,\3\,1708007397353,1708007397353,1115,1115,2048,buq,qns-item-noham,76,311640,0.0-1.0-0.75,65ce1dc2571c87b35df1e9e9,AWAITING REVIEW,2024-02-15T14:24:04.049000Z,2024-02-15T14:31:33.286000Z,,2024-02-15T14:31:33.864777Z,450.0,CVPIIDEI,1422,31,Female,White,United States,United States,United States,English,No,Due to start a new job within the next month,Not Applicable
60fd8b1c25fe10912980d749,<b>There are some topics I?ve been really wrong about.,Highly disagree,77/94,Somewhat agree,3,1708007398288,1708007399891,\Somewhat agree\,\Somewhat agree\,\3\,1708007399161,1708007399161,873,873,1603,buq,qns-item-noham,77,313245,0.0-1.0-0.76,65ce1dc2571c87b35df1e9e9,AWAITING REVIEW,2024-02-15T14:24:04.049000Z,2024-02-15T14:31:33.286000Z,,2024-02-15T14:31:33.864777Z,450.0,CVPIIDEI,1422,31,Female,White,United States,United States,United States,English,No,Due to start a new job within the next month,Not Applicable
60fd8b1c25fe10912980d749,<b>Most beliefs can be supported with at least some evidence.,Highly disagree,78/94,Somewhat agree,3,1708007399893,1708007416363,\Somewhat agree\,\Somewhat agree\,\3\,1708007415502,1708007415502,15609,15609,16470,buq,qns-item-noham,78,329717,0.0-1.0-0.77,65ce1dc2571c87b35df1e9e9,AWAITING REVIEW,2024-02-15T14:24:04.049000Z,2024-02-15T14:31:33.286000Z,,2024-02-15T14:31:33.864777Z,450.0,CVPIIDEI,1422,31,Female,White,United States,United States,United States,English,No,Due to start a new job within the next month,Not Applicable
60fd8b1c25fe10912980d749,<b>Other people make life out to be more complicated than it really is.,Highly disagree,79/94,Somewhat agree,3,1708007416364,1708007418231,\Somewhat agree\,\Somewhat agree\,\3\,1708007417274,1708007417274,910,910,1867,buq,qns-item-noham,79,331585,0.0-1.0-0.78,65ce1dc2571c87b35df1e9e9,AWAITING REVIEW,2024-02-15T14:24:04.049000Z,2024-02-15T14:31:33.286000Z,,2024-02-15T14:31:33.864777Z,450.0,CVPIIDEI,1422,31,Female,White,United States,United States,United States,English,No,Due to start a new job within the next month,Not Applicable
60fd8b1c25fe10912980d749,"<b>Policy details don?t matter much, just the big picture.",Highly disagree,80/94,Somewhat agree,3,1708007418233,1708007420339,\Somewhat agree\,\Somewhat agree\,\3\,1708007419273,1708007419273,1040,1040,2106,buq,qns-item-noham,80,333693,0.0-1.0-0.79,65ce1dc2571c87b35df1e9e9,AWAITING REVIEW,2024-02-15T14:24:04.049000Z,2024-02-15T14:31:33.286000Z,,2024-02-15T14:31:33.864777Z,450.0,CVPIIDEI,1422,31,Female,White,United States,United States,United States,English,No,Due to start a new job within the next month,Not Applicable
60fd8b1c25fe10912980d749,<b>I know my friends so well they can hardly ever surprise me.,Highly disagree,81/94,Somewhat disagree,2,1708007420341,1708007422432,\Somewhat disagree\,\Somewhat disagree\,\2\,1708007421748,1708007421748,1407,1407,2091,buq,qns-item-noham,81,335786,0.0-1.0-0.80,65ce1dc2571c87b35df1e9e9,AWAITING REVIEW,2024-02-15T14:24:04.049000Z,2024-02-15T14:31:33.286000Z,,2024-02-15T14:31:33.864777Z,450.0,CVPIIDEI,1422,31,Female,White,United States,United States,United States,English,No,Due to start a new job within the next month,Not Applicable
60fd8b1c25fe10912980d749,<b>I do not often change my views on people.,Highly disagree,82/94,Somewhat disagree,2,1708007422433,1708007423847,\Somewhat disagree\,\Somewhat disagree\,\2\,1708007423220,1708007423220,787,787,1414,buq,qns-item-noham,82,337201,0.0-1.0-0.81,65ce1dc2571c87b35df1e9e9,AWAITING REVIEW,2024-02-15T14:24:04.049000Z,2024-02-15T14:31:33.286000Z,,2024-02-15T14:31:33.864777Z,450.0,CVPIIDEI,1422,31,Female,White,United States,United States,United States,English,No,Due to start a new job within the next month,Not Applicable
60fd8b1c25fe10912980d749,<b>I?m more certain about my beliefs than I used to be.,Highly disagree,83/94,Somewhat disagree,2,1708007423849,1708007425707,\Somewhat disagree\,\Somewhat disagree\,\2\,1708007424635,1708007424635,786,786,1858,buq,qns-item-noham,83,339062,0.0-1.0-0.82,65ce1dc2571c87b35df1e9e9,AWAITING REVIEW,2024-02-15T14:24:04.049000Z,2024-02-15T14:31:33.286000Z,,2024-02-15T14:31:33.864777Z,450.0,CVPIIDEI,1422,31,Female,White,United States,United States,United States,English,No,Due to start a new job within the next month,Not Applicable
60fd8b1c25fe10912980d749,<b>People often tell falsehoods unintentionally.,Highly disagree,84/94,Somewhat agree,3,1708007425709,1708007428536,\Somewhat disagree\,\Somewhat agree\,\2\,1708007426983,1708007427539,1274,1830,2827,buq,qns-item-noham,84,341890,0.0-1.0-0.83,65ce1dc2571c87b35df1e9e9,AWAITING REVIEW,2024-02-15T14:24:04.049000Z,2024-02-15T14:31:33.286000Z,,2024-02-15T14:31:33.864777Z,450.0,CVPIIDEI,1422,31,Female,White,United States,United States,United States,English,No,Due to start a new job within the next month,Not Applicable
60fd8b1c25fe10912980d749,<b>Most people don?t know much about most things.,Highly disagree,85/94,Somewhat agree,3,1708007428537,1708007430397,\Somewhat agree\,\Somewhat agree\,\3\,1708007429639,1708007429639,1102,1102,1860,buq,qns-item-noham,85,343751,0.0-1.0-0.84,65ce1dc2571c87b35df1e9e9,AWAITING REVIEW,2024-02-15T14:24:04.049000Z,2024-02-15T14:31:33.286000Z,,2024-02-15T14:31:33.864777Z,450.0,CVPIIDEI,1422,31,Female,White,United States,United States,United States,English,No,Due to start a new job within the next month,Not Applicable
60fd8b1c25fe10912980d749,"<b>If I find out something new about someone, I easily change my views about them.",Highly disagree,86/94,Somewhat agree,3,1708007430399,1708007441814,\Somewhat agree\,\Somewhat agree\,\3\,1708007439290,1708007441027,8891,10628,11415,buq,qns-item-noham,86,355168,0.0-1.0-0.85,65ce1dc2571c87b35df1e9e9,AWAITING REVIEW,2024-02-15T14:24:04.049000Z,2024-02-15T14:31:33.286000Z,,2024-02-15T14:31:33.864777Z,450.0,CVPIIDEI,1422,31,Female,White,United States,United States,United States,English,No,Due to start a new job within the next month,Not Applicable
60fd8b1c25fe10912980d749,<b>Having true beliefs is difficult.,Highly disagree,87/94,Somewhat agree,3,1708007441816,1708007444944,\Somewhat agree\,\Somewhat agree\,\3\,1708007443637,1708007443637,1821,1821,3128,buq,qns-item-noham,87,358298,0.0-1.0-0.86,65ce1dc2571c87b35df1e9e9,AWAITING REVIEW,2024-02-15T14:24:04.049000Z,2024-02-15T14:31:33.286000Z,,2024-02-15T14:31:33.864777Z,450.0,CVPIIDEI,1422,31,Female,White,United States,United States,United States,English,No,Due to start a new job within the next month,Not Applicable
60fd8b1c25fe10912980d749,<b>I don?t try new foods since I know I won?t like them.,Highly disagree,88/94,Somewhat disagree,2,1708007444945,1708007448254,\Somewhat disagree\,\Somewhat disagree\,\2\,1708007447525,1708007447525,2580,2580,3309,buq,qns-item-noham,88,361608,0.0-1.0-0.87,65ce1dc2571c87b35df1e9e9,AWAITING REVIEW,2024-02-15T14:24:04.049000Z,2024-02-15T14:31:33.286000Z,,2024-02-15T14:31:33.864777Z,450.0,CVPIIDEI,1422,31,Female,White,United States,United States,United States,English,No,Due to start a new job within the next month,Not Applicable
60fd8b1c25fe10912980d749,<b>Other people trick each other a lot.,Highly disagree,89/94,Somewhat agree,3,1708007448256,1708007450662,\Somewhat agree\,\Somewhat agree\,\3\,1708007449641,1708007449641,1385,1385,2406,buq,qns-item-noham,89,364016,0.0-1.0-0.88,65ce1dc2571c87b35df1e9e9,AWAITING REVIEW,2024-02-15T14:24:04.049000Z,2024-02-15T14:31:33.286000Z,,2024-02-15T14:31:33.864777Z,450.0,CVPIIDEI,1422,31,Female,White,United States,United States,United States,English,No,Due to start a new job within the next month,Not Applicable
60fd8b1c25fe10912980d749,<b>I would need to learn a lot about a person for my opinion of them to be swayed.,Highly disagree,90/94,Somewhat agree,3,1708007450664,1708007454295,\Somewhat agree\,\Somewhat agree\,\3\,1708007453478,1708007453478,2814,2814,3631,buq,qns-item-noham,90,367649,0.0-1.0-0.89,65ce1dc2571c87b35df1e9e9,AWAITING REVIEW,2024-02-15T14:24:04.049000Z,2024-02-15T14:31:33.286000Z,,2024-02-15T14:31:33.864777Z,450.0,CVPIIDEI,1422,31,Female,White,United States,United States,United States,English,No,Due to start a new job within the next month,Not Applicable
60fd8b1c25fe10912980d749,<b>People can?t usually trick me when it comes to topics I care about.,Highly disagree,91/94,Somewhat agree,3,1708007454297,1708007467272,\Somewhat agree\,\Somewhat agree\,\3\,1708007466323,1708007466323,12026,12026,12975,buq,qns-item-noham,91,380626,0.0-1.0-0.90,65ce1dc2571c87b35df1e9e9,AWAITING REVIEW,2024-02-15T14:24:04.049000Z,2024-02-15T14:31:33.286000Z,,2024-02-15T14:31:33.864777Z,450.0,CVPIIDEI,1422,31,Female,White,United States,United States,United States,English,No,Due to start a new job within the next month,Not Applicable
60fd8b1c25fe10912980d749,<b>I do not often change my views on food.,Highly disagree,92/94,Somewhat agree,3,1708007467274,1708007471999,\Somewhat agree\,\Somewhat agree\,\3\,1708007471189,1708007471189,3915,3915,4725,buq,qns-item-noham,92,385353,0.0-1.0-0.91,65ce1dc2571c87b35df1e9e9,AWAITING REVIEW,2024-02-15T14:24:04.049000Z,2024-02-15T14:31:33.286000Z,,2024-02-15T14:31:33.864777Z,450.0,CVPIIDEI,1422,31,Female,White,United States,United States,United States,English,No,Due to start a new job within the next month,Not Applicable
60fd8b1c25fe10912980d749,<b>Specific policies are often very important to me.,Highly disagree,93/94,Somewhat agree,3,1708007472001,1708007474157,\Somewhat agree\,\Somewhat agree\,\3\,1708007473180,1708007473363,1179,1362,2156,buq,qns-item-noham,93,387512,0.0-1.0-0.92,65ce1dc2571c87b35df1e9e9,AWAITING REVIEW,2024-02-15T14:24:04.049000Z,2024-02-15T14:31:33.286000Z,,2024-02-15T14:31:33.864777Z,450.0,CVPIIDEI,1422,31,Female,White,United States,United States,United States,English,No,Due to start a new job within the next month,Not Applicable
60fd8b1c25fe10912980d749,<b>Most people are woefully under-informed.,Highly disagree,94/94,Highly agree,4,1708007474159,1708007476726,\Somewhat agree\,\Highly agree\,\3\,1708007475202,1708007475851,1043,1692,2567,buq,qns-item-noham,94,390080,0.0-1.0-0.93,65ce1dc2571c87b35df1e9e9,AWAITING REVIEW,2024-02-15T14:24:04.049000Z,2024-02-15T14:31:33.286000Z,,2024-02-15T14:31:33.864777Z,450.0,CVPIIDEI,1422,31,Female,White,United States,United States,United States,English,No,Due to start a new job within the next month,Not Applicable
60fd8b1c25fe10912980d749,,,,,,,,,,,,,,,,,,,,,65ce1dc2571c87b35df1e9e9,AWAITING REVIEW,2024-02-15T14:24:04.049000Z,2024-02-15T14:31:33.286000Z,,2024-02-15T14:31:33.864777Z,450.0,CVPIIDEI,1422,31,Female,White,United States,United States,United States,English,No,Due to start a new job within the next month,Not Applicable
