PROLIFIC_PID,Question,qns_options,quest_num,answer,answer_num,question_load_timestamp,next_btn_timestamp,text_selected,final_text_selected,option_num_selected,preview_timestamps,final_text_selected_time_stamp,rt_first_option_click,rt_final_option_click,rt_submit_click,questionnaire,trial_type,trial_index,time_elapsed,internal_node_id,Demographic_Submission id,Demographic_Status,Demographic_Started at,Demographic_Completed at,Demographic_Reviewed at,Demographic_Archived at,Demographic_Time taken,Demographic_Completion code,Demographic_Total approvals,Demographic_Age,Demographic_Sex,Demographic_Ethnicity simplified,Demographic_Country of birth,Demographic_Country of residence,Demographic_Nationality,Demographic_Language,Demographic_Student status,Demographic_Employment status,Demographic_Custom study tncs accepted at
5f57620f2095071eaf7a8224,<b>Knowing what?s true and knowing what to do about it are usually basically the same.,Highly disagree,1/94,Highly disagree,1,1708007293791,1708007303441,\Highly disagree\,\Highly disagree\,\1\,1708007302470,1708007302470,8679,8679,9650,buq,qns-item-noham,1,15152,0.0-1.0-0.0,65ce1f64064cd8260efd2ea8,AWAITING REVIEW,2024-02-15T14:27:50.975000Z,2024-02-15T14:36:56.395000Z,,2024-02-15T14:36:56.866365Z,546.0,CVPIIDEI,3271,25,Male,White,United States,United States,United States,English,No,Unemployed (and job seeking),Not Applicable
5f57620f2095071eaf7a8224,<b>Most people just believe whatever is convenient for them.,Highly disagree,2/94,Highly agree,4,1708007303443,1708007307190,\Highly agree\,\Highly agree\,\4\,1708007306308,1708007306308,2865,2865,3747,buq,qns-item-noham,2,18902,0.0-1.0-0.1,65ce1f64064cd8260efd2ea8,AWAITING REVIEW,2024-02-15T14:27:50.975000Z,2024-02-15T14:36:56.395000Z,,2024-02-15T14:36:56.866365Z,546.0,CVPIIDEI,3271,25,Male,White,United States,United States,United States,English,No,Unemployed (and job seeking),Not Applicable
5f57620f2095071eaf7a8224,<b>Having some big beliefs helps me sort out minor ones.,Highly disagree,3/94,Somewhat agree,3,1708007307192,1708007316124,\Somewhat agree\,\Somewhat agree\,\3\,1708007312875,1708007312875,5683,5683,8932,buq,qns-item-noham,3,27835,0.0-1.0-0.2,65ce1f64064cd8260efd2ea8,AWAITING REVIEW,2024-02-15T14:27:50.975000Z,2024-02-15T14:36:56.395000Z,,2024-02-15T14:36:56.866365Z,546.0,CVPIIDEI,3271,25,Male,White,United States,United States,United States,English,No,Unemployed (and job seeking),Not Applicable
5f57620f2095071eaf7a8224,<b>Political questions are usually pretty complicated.,Highly disagree,4/94,Highly agree,4,1708007316126,1708007320907,\Somewhat agree\,\Highly agree\,\3\,1708007318979,1708007320209,2853,4083,4781,buq,qns-item-noham,4,32618,0.0-1.0-0.3,65ce1f64064cd8260efd2ea8,AWAITING REVIEW,2024-02-15T14:27:50.975000Z,2024-02-15T14:36:56.395000Z,,2024-02-15T14:36:56.866365Z,546.0,CVPIIDEI,3271,25,Male,White,United States,United States,United States,English,No,Unemployed (and job seeking),Not Applicable
5f57620f2095071eaf7a8224,<b>Figuring out what?s important in life requires learning a lot of facts.,Highly disagree,5/94,Somewhat agree,3,1708007320909,1708007331569,\Somewhat disagree\,\Somewhat agree\,\2\,1708007325458,1708007330456,4549,9547,10660,buq,qns-item-noham,5,43280,0.0-1.0-0.4,65ce1f64064cd8260efd2ea8,AWAITING REVIEW,2024-02-15T14:27:50.975000Z,2024-02-15T14:36:56.395000Z,,2024-02-15T14:36:56.866365Z,546.0,CVPIIDEI,3271,25,Male,White,United States,United States,United States,English,No,Unemployed (and job seeking),Not Applicable
5f57620f2095071eaf7a8224,<b>It is difficult for me to remember the last time I was surprised by politics.,Highly disagree,6/94,Somewhat agree,3,1708007331572,1708007340816,\Highly agree\,\Somewhat agree\,\4\,1708007339736,1708007340300,8164,8728,9244,buq,qns-item-noham,6,52527,0.0-1.0-0.5,65ce1f64064cd8260efd2ea8,AWAITING REVIEW,2024-02-15T14:27:50.975000Z,2024-02-15T14:36:56.395000Z,,2024-02-15T14:36:56.866365Z,546.0,CVPIIDEI,3271,25,Male,White,United States,United States,United States,English,No,Unemployed (and job seeking),Not Applicable
5f57620f2095071eaf7a8224,<b>People?s false beliefs are understandable.,Highly disagree,7/94,Highly agree,4,1708007340817,1708007349019,\Somewhat agree\,\Highly agree\,\3\,1708007343513,1708007344325,2696,3508,8202,buq,qns-item-noham,7,60730,0.0-1.0-0.6,65ce1f64064cd8260efd2ea8,AWAITING REVIEW,2024-02-15T14:27:50.975000Z,2024-02-15T14:36:56.395000Z,,2024-02-15T14:36:56.866365Z,546.0,CVPIIDEI,3271,25,Male,White,United States,United States,United States,English,No,Unemployed (and job seeking),Not Applicable
5f57620f2095071eaf7a8224,<b>I spend a lot of time trying to be informed about politics.,Highly disagree,8/94,Somewhat agree,3,1708007349023,1708007351772,\Somewhat agree\,\Somewhat agree\,\3\,1708007351099,1708007351099,2076,2076,2749,buq,qns-item-noham,8,63484,0.0-1.0-0.7,65ce1f64064cd8260efd2ea8,AWAITING REVIEW,2024-02-15T14:27:50.975000Z,2024-02-15T14:36:56.395000Z,,2024-02-15T14:36:56.866365Z,546.0,CVPIIDEI,3271,25,Male,White,United States,United States,United States,English,No,Unemployed (and job seeking),Not Applicable
5f57620f2095071eaf7a8224,<b>I think a lot about whether my beliefs are right.,Highly disagree,9/94,Highly agree,4,1708007351775,1708007357114,\Somewhat agree\,\Highly agree\,\3\,1708007353909,1708007355181,2134,3406,5339,buq,qns-item-noham,9,68825,0.0-1.0-0.8,65ce1f64064cd8260efd2ea8,AWAITING REVIEW,2024-02-15T14:27:50.975000Z,2024-02-15T14:36:56.395000Z,,2024-02-15T14:36:56.866365Z,546.0,CVPIIDEI,3271,25,Male,White,United States,United States,United States,English,No,Unemployed (and job seeking),Not Applicable
5f57620f2095071eaf7a8224,<b>Statistics can be pretty misleading sometimes.,Highly disagree,10/94,Highly agree,4,1708007357116,1708007363761,\Somewhat agree\,\Highly agree\,\3\,1708007359828,1708007362421,2712,5305,6645,buq,qns-item-noham,10,75472,0.0-1.0-0.9,65ce1f64064cd8260efd2ea8,AWAITING REVIEW,2024-02-15T14:27:50.975000Z,2024-02-15T14:36:56.395000Z,,2024-02-15T14:36:56.866365Z,546.0,CVPIIDEI,3271,25,Male,White,United States,United States,United States,English,No,Unemployed (and job seeking),Not Applicable
5f57620f2095071eaf7a8224,<b>I have lots of beliefs that I?m only sort of sure about.,Highly disagree,11/94,Highly agree,4,1708007363764,1708007367760,\Highly agree\,\Highly agree\,\4\,1708007366909,1708007366909,3145,3145,3996,buq,qns-item-noham,11,79471,0.0-1.0-0.10,65ce1f64064cd8260efd2ea8,AWAITING REVIEW,2024-02-15T14:27:50.975000Z,2024-02-15T14:36:56.395000Z,,2024-02-15T14:36:56.866365Z,546.0,CVPIIDEI,3271,25,Male,White,United States,United States,United States,English,No,Unemployed (and job seeking),Not Applicable
5f57620f2095071eaf7a8224,"<b>If I go to my favorite restaurant and the food is surprisingly bad, it reminds me there are many disappointments in life.",Highly disagree,12/94,Somewhat agree,3,1708007367763,1708007374709,\Somewhat agree\,\Somewhat agree\,\3\,1708007373985,1708007373985,6222,6222,6946,buq,qns-item-noham,12,86420,0.0-1.0-0.11,65ce1f64064cd8260efd2ea8,AWAITING REVIEW,2024-02-15T14:27:50.975000Z,2024-02-15T14:36:56.395000Z,,2024-02-15T14:36:56.866365Z,546.0,CVPIIDEI,3271,25,Male,White,United States,United States,United States,English,No,Unemployed (and job seeking),Not Applicable
5f57620f2095071eaf7a8224,"<b>If you are paying attention, please select ?Somewhat agree?",Highly disagree,13/94,Somewhat agree,3,1708007374712,1708007377292,\Somewhat agree\,\Somewhat agree\,\3\,1708007376600,1708007376600,1888,1888,2580,buq,qns-item-noham,13,89003,0.0-1.0-0.12,65ce1f64064cd8260efd2ea8,AWAITING REVIEW,2024-02-15T14:27:50.975000Z,2024-02-15T14:36:56.395000Z,,2024-02-15T14:36:56.866365Z,546.0,CVPIIDEI,3271,25,Male,White,United States,United States,United States,English,No,Unemployed (and job seeking),Not Applicable
5f57620f2095071eaf7a8224,"<b>When I talk to others, I often worry I?ll convince them of something I didn?t mean to.",Highly disagree,14/94,Somewhat agree,3,1708007377293,1708007382992,\Somewhat agree\,\Somewhat agree\,\3\,1708007382130,1708007382130,4837,4837,5699,buq,qns-item-noham,14,94703,0.0-1.0-0.13,65ce1f64064cd8260efd2ea8,AWAITING REVIEW,2024-02-15T14:27:50.975000Z,2024-02-15T14:36:56.395000Z,,2024-02-15T14:36:56.866365Z,546.0,CVPIIDEI,3271,25,Male,White,United States,United States,United States,English,No,Unemployed (and job seeking),Not Applicable
5f57620f2095071eaf7a8224,<b>I would need to learn something utterly shocking about my party in order to change my political views.,Highly disagree,15/94,Highly disagree,1,1708007382993,1708007393807,\Somewhat disagree\,\Highly disagree\,\2\,1708007389220,1708007391205,6227,8212,10814,buq,qns-item-noham,15,105518,0.0-1.0-0.14,65ce1f64064cd8260efd2ea8,AWAITING REVIEW,2024-02-15T14:27:50.975000Z,2024-02-15T14:36:56.395000Z,,2024-02-15T14:36:56.866365Z,546.0,CVPIIDEI,3271,25,Male,White,United States,United States,United States,English,No,Unemployed (and job seeking),Not Applicable
5f57620f2095071eaf7a8224,"<b>When I have new experiences, I tend to think of them as unique.",Highly disagree,16/94,Somewhat disagree,2,1708007393809,1708007398026,\Somewhat disagree\,\Somewhat disagree\,\2\,1708007396582,1708007396582,2773,2773,4217,buq,qns-item-noham,16,109737,0.0-1.0-0.15,65ce1f64064cd8260efd2ea8,AWAITING REVIEW,2024-02-15T14:27:50.975000Z,2024-02-15T14:36:56.395000Z,,2024-02-15T14:36:56.866365Z,546.0,CVPIIDEI,3271,25,Male,White,United States,United States,United States,English,No,Unemployed (and job seeking),Not Applicable
5f57620f2095071eaf7a8224,<b>I change my mind about specific policies pretty frequently.,Highly disagree,17/94,Somewhat agree,3,1708007398027,1708007400991,\Somewhat agree\,\Somewhat agree\,\3\,1708007400441,1708007400441,2414,2414,2964,buq,qns-item-noham,17,112702,0.0-1.0-0.16,65ce1f64064cd8260efd2ea8,AWAITING REVIEW,2024-02-15T14:27:50.975000Z,2024-02-15T14:36:56.395000Z,,2024-02-15T14:36:56.866365Z,546.0,CVPIIDEI,3271,25,Male,White,United States,United States,United States,English,No,Unemployed (and job seeking),Not Applicable
5f57620f2095071eaf7a8224,"<b>If a politician in my political party supports something I disagree with, I give them the benefit of the doubt, as such issues often involve hidden complexities that aren?t obvious.   ",Highly disagree,18/94,Highly agree,4,1708007400993,1708007409860,\Highly agree\,\Highly agree\,\4\,1708007408318,1708007408318,7325,7325,8867,buq,qns-item-noham,18,121571,0.0-1.0-0.17,65ce1f64064cd8260efd2ea8,AWAITING REVIEW,2024-02-15T14:27:50.975000Z,2024-02-15T14:36:56.395000Z,,2024-02-15T14:36:56.866365Z,546.0,CVPIIDEI,3271,25,Male,White,United States,United States,United States,English,No,Unemployed (and job seeking),Not Applicable
5f57620f2095071eaf7a8224,<b>People?s bad politics are usually motivated by hatefulness.,Highly disagree,19/94,Highly disagree,1,1708007409861,1708007417072,\Somewhat disagree\,\Highly disagree\,\2\,1708007413172,1708007413925,3311,4064,7211,buq,qns-item-noham,19,128784,0.0-1.0-0.18,65ce1f64064cd8260efd2ea8,AWAITING REVIEW,2024-02-15T14:27:50.975000Z,2024-02-15T14:36:56.395000Z,,2024-02-15T14:36:56.866365Z,546.0,CVPIIDEI,3271,25,Male,White,United States,United States,United States,English,No,Unemployed (and job seeking),Not Applicable
5f57620f2095071eaf7a8224,<b>I think a lot about how to reconcile my beliefs with one another.,Highly disagree,20/94,Highly agree,4,1708007417076,1708007421685,\Highly agree\,\Highly agree\,\4\,1708007419927,1708007419927,2851,2851,4609,buq,qns-item-noham,20,133396,0.0-1.0-0.19,65ce1f64064cd8260efd2ea8,AWAITING REVIEW,2024-02-15T14:27:50.975000Z,2024-02-15T14:36:56.395000Z,,2024-02-15T14:36:56.866365Z,546.0,CVPIIDEI,3271,25,Male,White,United States,United States,United States,English,No,Unemployed (and job seeking),Not Applicable
5f57620f2095071eaf7a8224,<b>I might have false beliefs about important topics.,Highly disagree,21/94,Highly agree,4,1708007421687,1708007424582,\Highly agree\,\Highly agree\,\4\,1708007423995,1708007423995,2308,2308,2895,buq,qns-item-noham,21,136293,0.0-1.0-0.20,65ce1f64064cd8260efd2ea8,AWAITING REVIEW,2024-02-15T14:27:50.975000Z,2024-02-15T14:36:56.395000Z,,2024-02-15T14:36:56.866365Z,546.0,CVPIIDEI,3271,25,Male,White,United States,United States,United States,English,No,Unemployed (and job seeking),Not Applicable
5f57620f2095071eaf7a8224,"<b>If a good friend of mine does something unexpected that upsets me, I feel like I don?t know them anymore.",Highly disagree,22/94,Highly disagree,1,1708007424584,1708007429632,\Highly disagree\,\Highly disagree\,\1\,1708007428324,1708007428324,3740,3740,5048,buq,qns-item-noham,22,141343,0.0-1.0-0.21,65ce1f64064cd8260efd2ea8,AWAITING REVIEW,2024-02-15T14:27:50.975000Z,2024-02-15T14:36:56.395000Z,,2024-02-15T14:36:56.866365Z,546.0,CVPIIDEI,3271,25,Male,White,United States,United States,United States,English,No,Unemployed (and job seeking),Not Applicable
5f57620f2095071eaf7a8224,<b>Other people?s beliefs are often incoherent.,Highly disagree,23/94,Somewhat disagree,2,1708007429633,1708007433545,\Somewhat disagree\,\Somewhat disagree\,\2\,1708007432170,1708007432170,2537,2537,3912,buq,qns-item-noham,23,145256,0.0-1.0-0.22,65ce1f64064cd8260efd2ea8,AWAITING REVIEW,2024-02-15T14:27:50.975000Z,2024-02-15T14:36:56.395000Z,,2024-02-15T14:36:56.866365Z,546.0,CVPIIDEI,3271,25,Male,White,United States,United States,United States,English,No,Unemployed (and job seeking),Not Applicable
5f57620f2095071eaf7a8224,"<b>Every now and then, a new experience will unsettle beliefs I?ve had for a while.",Highly disagree,24/94,Highly disagree,1,1708007433547,1708007440617,\Somewhat disagree\,\Highly disagree\,\2\,1708007437498,1708007440030,3951,6483,7070,buq,qns-item-noham,24,152328,0.0-1.0-0.23,65ce1f64064cd8260efd2ea8,AWAITING REVIEW,2024-02-15T14:27:50.975000Z,2024-02-15T14:36:56.395000Z,,2024-02-15T14:36:56.866365Z,546.0,CVPIIDEI,3271,25,Male,White,United States,United States,United States,English,No,Unemployed (and job seeking),Not Applicable
5f57620f2095071eaf7a8224,<b>Some policies I agree with in principle are so bad I don?t support them. ,Highly disagree,25/94,Highly agree,4,1708007440619,1708007454768,\Highly agree\,\Highly agree\,\4\,1708007453005,1708007453005,12386,12386,14149,buq,qns-item-noham,25,166479,0.0-1.0-0.24,65ce1f64064cd8260efd2ea8,AWAITING REVIEW,2024-02-15T14:27:50.975000Z,2024-02-15T14:36:56.395000Z,,2024-02-15T14:36:56.866365Z,546.0,CVPIIDEI,3271,25,Male,White,United States,United States,United States,English,No,Unemployed (and job seeking),Not Applicable
5f57620f2095071eaf7a8224,<b>I?m pretty sure I?ve accidentally spread false information.,Highly disagree,26/94,Somewhat agree,3,1708007454770,1708007460853,\Somewhat agree\,\Somewhat agree\,\3\,1708007457586,1708007457586,2816,2816,6083,buq,qns-item-noham,26,172564,0.0-1.0-0.25,65ce1f64064cd8260efd2ea8,AWAITING REVIEW,2024-02-15T14:27:50.975000Z,2024-02-15T14:36:56.395000Z,,2024-02-15T14:36:56.866365Z,546.0,CVPIIDEI,3271,25,Male,White,United States,United States,United States,English,No,Unemployed (and job seeking),Not Applicable
5f57620f2095071eaf7a8224,"<b>If I go to my favorite restaurant and the food is unexpectedly bad, then they have changed owners.",Highly disagree,27/94,Highly disagree,1,1708007460854,1708007465706,\Highly disagree\,\Highly disagree\,\1\,1708007464407,1708007464407,3553,3553,4852,buq,qns-item-noham,27,177417,0.0-1.0-0.26,65ce1f64064cd8260efd2ea8,AWAITING REVIEW,2024-02-15T14:27:50.975000Z,2024-02-15T14:36:56.395000Z,,2024-02-15T14:36:56.866365Z,546.0,CVPIIDEI,3271,25,Male,White,United States,United States,United States,English,No,Unemployed (and job seeking),Not Applicable
5f57620f2095071eaf7a8224,"<b>In politics, it?s important to trust your friends and family.",Highly disagree,28/94,Somewhat agree,3,1708007465706,1708007470670,\Somewhat agree\,\Somewhat agree\,\3\,1708007469645,1708007469645,3939,3939,4964,buq,qns-item-noham,28,182381,0.0-1.0-0.27,65ce1f64064cd8260efd2ea8,AWAITING REVIEW,2024-02-15T14:27:50.975000Z,2024-02-15T14:36:56.395000Z,,2024-02-15T14:36:56.866365Z,546.0,CVPIIDEI,3271,25,Male,White,United States,United States,United States,English,No,Unemployed (and job seeking),Not Applicable
5f57620f2095071eaf7a8224,<b>It?s OK to have some conflicting beliefs.,Highly disagree,29/94,Highly agree,4,1708007470672,1708007474045,\Highly agree\,\Highly agree\,\4\,1708007473105,1708007473105,2433,2433,3373,buq,qns-item-noham,29,185756,0.0-1.0-0.28,65ce1f64064cd8260efd2ea8,AWAITING REVIEW,2024-02-15T14:27:50.975000Z,2024-02-15T14:36:56.395000Z,,2024-02-15T14:36:56.866365Z,546.0,CVPIIDEI,3271,25,Male,White,United States,United States,United States,English,No,Unemployed (and job seeking),Not Applicable
5f57620f2095071eaf7a8224,<b>Listening to people I disagree with makes my opinions better.,Highly disagree,30/94,Highly agree,4,1708007474046,1708007477488,\Highly agree\,\Highly agree\,\4\,1708007476650,1708007476650,2604,2604,3442,buq,qns-item-noham,30,189199,0.0-1.0-0.29,65ce1f64064cd8260efd2ea8,AWAITING REVIEW,2024-02-15T14:27:50.975000Z,2024-02-15T14:36:56.395000Z,,2024-02-15T14:36:56.866365Z,546.0,CVPIIDEI,3271,25,Male,White,United States,United States,United States,English,No,Unemployed (and job seeking),Not Applicable
5f57620f2095071eaf7a8224,<b>My moral compass sometimes makes it harder to determine what?s true.,Highly disagree,31/94,Highly agree,4,1708007477491,1708007482506,\Highly agree\,\Highly agree\,\4\,1708007481062,1708007481062,3571,3571,5015,buq,qns-item-noham,31,194217,0.0-1.0-0.30,65ce1f64064cd8260efd2ea8,AWAITING REVIEW,2024-02-15T14:27:50.975000Z,2024-02-15T14:36:56.395000Z,,2024-02-15T14:36:56.866365Z,546.0,CVPIIDEI,3271,25,Male,White,United States,United States,United States,English,No,Unemployed (and job seeking),Not Applicable
5f57620f2095071eaf7a8224,<b>Evidence pointing in the wrong direction isn?t really evidence at all.,Highly disagree,32/94,Highly disagree,1,1708007482511,1708007490982,\Highly disagree\,\Highly disagree\,\1\,1708007486541,1708007490414,4030,7903,8471,buq,qns-item-noham,32,202693,0.0-1.0-0.31,65ce1f64064cd8260efd2ea8,AWAITING REVIEW,2024-02-15T14:27:50.975000Z,2024-02-15T14:36:56.395000Z,,2024-02-15T14:36:56.866365Z,546.0,CVPIIDEI,3271,25,Male,White,United States,United States,United States,English,No,Unemployed (and job seeking),Not Applicable
5f57620f2095071eaf7a8224,"<b>If the political party I support messes up, it makes me think politics is rotten.",Highly disagree,33/94,Somewhat disagree,2,1708007490984,1708007496361,\Somewhat disagree\,\Somewhat disagree\,\2\,1708007495406,1708007495406,4422,4422,5377,buq,qns-item-noham,33,208073,0.0-1.0-0.32,65ce1f64064cd8260efd2ea8,AWAITING REVIEW,2024-02-15T14:27:50.975000Z,2024-02-15T14:36:56.395000Z,,2024-02-15T14:36:56.866365Z,546.0,CVPIIDEI,3271,25,Male,White,United States,United States,United States,English,No,Unemployed (and job seeking),Not Applicable
5f57620f2095071eaf7a8224,<b>Lots of important topics can only really be understood by some groups of people.,Highly disagree,34/94,Highly agree,4,1708007496364,1708007504402,\Somewhat agree\,\Highly agree\,\3\,1708007500031,1708007502849,3667,6485,8038,buq,qns-item-noham,34,216114,0.0-1.0-0.33,65ce1f64064cd8260efd2ea8,AWAITING REVIEW,2024-02-15T14:27:50.975000Z,2024-02-15T14:36:56.395000Z,,2024-02-15T14:36:56.866365Z,546.0,CVPIIDEI,3271,25,Male,White,United States,United States,United States,English,No,Unemployed (and job seeking),Not Applicable
5f57620f2095071eaf7a8224,<b>Having conflicting beliefs means you haven?t thought about them enough.,Highly disagree,35/94,Highly disagree,1,1708007504404,1708007507264,\Highly disagree\,\Highly disagree\,\1\,1708007506686,1708007506686,2282,2282,2860,buq,qns-item-noham,35,218975,0.0-1.0-0.34,65ce1f64064cd8260efd2ea8,AWAITING REVIEW,2024-02-15T14:27:50.975000Z,2024-02-15T14:36:56.395000Z,,2024-02-15T14:36:56.866365Z,546.0,CVPIIDEI,3271,25,Male,White,United States,United States,United States,English,No,Unemployed (and job seeking),Not Applicable
5f57620f2095071eaf7a8224,<b>I do not often change my political opinions.,Highly disagree,36/94,Somewhat disagree,2,1708007507266,1708007509931,\Somewhat disagree\,\Somewhat disagree\,\2\,1708007509024,1708007509024,1758,1758,2665,buq,qns-item-noham,36,221642,0.0-1.0-0.35,65ce1f64064cd8260efd2ea8,AWAITING REVIEW,2024-02-15T14:27:50.975000Z,2024-02-15T14:36:56.395000Z,,2024-02-15T14:36:56.866365Z,546.0,CVPIIDEI,3271,25,Male,White,United States,United States,United States,English,No,Unemployed (and job seeking),Not Applicable
5f57620f2095071eaf7a8224,<b>It?s difficult to not have at least some conflicting beliefs.,Highly disagree,37/94,Highly agree,4,1708007509932,1708007512564,\Highly agree\,\Highly agree\,\4\,1708007512007,1708007512007,2075,2075,2632,buq,qns-item-noham,37,224275,0.0-1.0-0.36,65ce1f64064cd8260efd2ea8,AWAITING REVIEW,2024-02-15T14:27:50.975000Z,2024-02-15T14:36:56.395000Z,,2024-02-15T14:36:56.866365Z,546.0,CVPIIDEI,3271,25,Male,White,United States,United States,United States,English,No,Unemployed (and job seeking),Not Applicable
5f57620f2095071eaf7a8224,<b>Wishful thinking causes a lot of problems.,Highly disagree,38/94,Somewhat disagree,2,1708007512565,1708007516636,\Highly disagree\,\Somewhat disagree\,\1\,1708007514872,1708007515829,2307,3264,4071,buq,qns-item-noham,38,228347,0.0-1.0-0.37,65ce1f64064cd8260efd2ea8,AWAITING REVIEW,2024-02-15T14:27:50.975000Z,2024-02-15T14:36:56.395000Z,,2024-02-15T14:36:56.866365Z,546.0,CVPIIDEI,3271,25,Male,White,United States,United States,United States,English,No,Unemployed (and job seeking),Not Applicable
5f57620f2095071eaf7a8224,<b>I judge a food item only once I try it many times.,Highly disagree,39/94,Highly disagree,1,1708007516637,1708007521479,\Highly disagree\,\Highly disagree\,\1\,1708007520415,1708007520415,3778,3778,4842,buq,qns-item-noham,39,233190,0.0-1.0-0.38,65ce1f64064cd8260efd2ea8,AWAITING REVIEW,2024-02-15T14:27:50.975000Z,2024-02-15T14:36:56.395000Z,,2024-02-15T14:36:56.866365Z,546.0,CVPIIDEI,3271,25,Male,White,United States,United States,United States,English,No,Unemployed (and job seeking),Not Applicable
5f57620f2095071eaf7a8224,"<b>When a person holds conflicting beliefs, they should really try to figure out what?s wrong.",Highly disagree,40/94,Somewhat agree,3,1708007521480,1708007528678,\Somewhat agree\,\Somewhat agree\,\3\,1708007525003,1708007525003,3523,3523,7198,buq,qns-item-noham,40,240390,0.0-1.0-0.39,65ce1f64064cd8260efd2ea8,AWAITING REVIEW,2024-02-15T14:27:50.975000Z,2024-02-15T14:36:56.395000Z,,2024-02-15T14:36:56.866365Z,546.0,CVPIIDEI,3271,25,Male,White,United States,United States,United States,English,No,Unemployed (and job seeking),Not Applicable
5f57620f2095071eaf7a8224,<b>Knowing what?s important in life is easy.,Highly disagree,41/94,Highly disagree,1,1708007528681,1708007530980,\Highly disagree\,\Highly disagree\,\1\,1708007530509,1708007530509,1828,1828,2299,buq,qns-item-noham,41,242691,0.0-1.0-0.40,65ce1f64064cd8260efd2ea8,AWAITING REVIEW,2024-02-15T14:27:50.975000Z,2024-02-15T14:36:56.395000Z,,2024-02-15T14:36:56.866365Z,546.0,CVPIIDEI,3271,25,Male,White,United States,United States,United States,English,No,Unemployed (and job seeking),Not Applicable
5f57620f2095071eaf7a8224,<b>I swim across the Atlantic Ocean to get to work every day.,Highly disagree,42/94,Highly disagree,1,1708007530982,1708007532884,\Highly disagree\,\Highly disagree\,\1\,1708007532342,1708007532342,1360,1360,1902,buq,qns-item-noham,42,244595,0.0-1.0-0.41,65ce1f64064cd8260efd2ea8,AWAITING REVIEW,2024-02-15T14:27:50.975000Z,2024-02-15T14:36:56.395000Z,,2024-02-15T14:36:56.866365Z,546.0,CVPIIDEI,3271,25,Male,White,United States,United States,United States,English,No,Unemployed (and job seeking),Not Applicable
5f57620f2095071eaf7a8224,"<b>Sometimes, you just have to ignore evidence that you know is wrong.",Highly disagree,43/94,Somewhat agree,3,1708007532885,1708007538696,\Somewhat agree\,\Somewhat agree\,\3\,1708007537314,1708007537314,4429,4429,5811,buq,qns-item-noham,43,250407,0.0-1.0-0.42,65ce1f64064cd8260efd2ea8,AWAITING REVIEW,2024-02-15T14:27:50.975000Z,2024-02-15T14:36:56.395000Z,,2024-02-15T14:36:56.866365Z,546.0,CVPIIDEI,3271,25,Male,White,United States,United States,United States,English,No,Unemployed (and job seeking),Not Applicable
5f57620f2095071eaf7a8224,<b>I have had some false beliefs.,Highly disagree,44/94,Highly agree,4,1708007538698,1708007542430,\Highly agree\,\Highly agree\,\4\,1708007541620,1708007541620,2922,2922,3732,buq,qns-item-noham,44,254141,0.0-1.0-0.43,65ce1f64064cd8260efd2ea8,AWAITING REVIEW,2024-02-15T14:27:50.975000Z,2024-02-15T14:36:56.395000Z,,2024-02-15T14:36:56.866365Z,546.0,CVPIIDEI,3271,25,Male,White,United States,United States,United States,English,No,Unemployed (and job seeking),Not Applicable
5f57620f2095071eaf7a8224,"<b>If one friend does something that upsets me, I sometimes start to distrust people in general.",Highly disagree,45/94,Somewhat disagree,2,1708007542433,1708007547451,\Somewhat disagree\,\Somewhat disagree\,\2\,1708007546537,1708007546537,4104,4104,5018,buq,qns-item-noham,45,259162,0.0-1.0-0.44,65ce1f64064cd8260efd2ea8,AWAITING REVIEW,2024-02-15T14:27:50.975000Z,2024-02-15T14:36:56.395000Z,,2024-02-15T14:36:56.866365Z,546.0,CVPIIDEI,3271,25,Male,White,United States,United States,United States,English,No,Unemployed (and job seeking),Not Applicable
5f57620f2095071eaf7a8224,<b>The facts about most important matters are easy to find.,Highly disagree,46/94,Highly disagree,1,1708007547454,1708007552196,\Highly disagree\,\Highly disagree\,\1\,1708007550436,1708007550436,2982,2982,4742,buq,qns-item-noham,46,263907,0.0-1.0-0.45,65ce1f64064cd8260efd2ea8,AWAITING REVIEW,2024-02-15T14:27:50.975000Z,2024-02-15T14:36:56.395000Z,,2024-02-15T14:36:56.866365Z,546.0,CVPIIDEI,3271,25,Male,White,United States,United States,United States,English,No,Unemployed (and job seeking),Not Applicable
5f57620f2095071eaf7a8224,<b>It?s better to know what?s true than to know what?s moral.,Highly disagree,47/94,Somewhat agree,3,1708007552198,1708007561209,\Somewhat agree\,\Somewhat agree\,\3\,1708007560285,1708007560285,8087,8087,9011,buq,qns-item-noham,47,272920,0.0-1.0-0.46,65ce1f64064cd8260efd2ea8,AWAITING REVIEW,2024-02-15T14:27:50.975000Z,2024-02-15T14:36:56.395000Z,,2024-02-15T14:36:56.866365Z,546.0,CVPIIDEI,3271,25,Male,White,United States,United States,United States,English,No,Unemployed (and job seeking),Not Applicable
5f57620f2095071eaf7a8224,<b>I used to think the world was less complicated than I do now.,Highly disagree,48/94,Highly agree,4,1708007561211,1708007569631,\Highly agree\,\Highly agree\,\4\,1708007568167,1708007568167,6956,6956,8420,buq,qns-item-noham,48,281342,0.0-1.0-0.47,65ce1f64064cd8260efd2ea8,AWAITING REVIEW,2024-02-15T14:27:50.975000Z,2024-02-15T14:36:56.395000Z,,2024-02-15T14:36:56.866365Z,546.0,CVPIIDEI,3271,25,Male,White,United States,United States,United States,English,No,Unemployed (and job seeking),Not Applicable
5f57620f2095071eaf7a8224,<b>People are usually completely right or completely wrong.,Highly disagree,49/94,Highly disagree,1,1708007569632,1708007571919,\Highly disagree\,\Highly disagree\,\1\,1708007571452,1708007571452,1820,1820,2287,buq,qns-item-noham,49,283630,0.0-1.0-0.48,65ce1f64064cd8260efd2ea8,AWAITING REVIEW,2024-02-15T14:27:50.975000Z,2024-02-15T14:36:56.395000Z,,2024-02-15T14:36:56.866365Z,546.0,CVPIIDEI,3271,25,Male,White,United States,United States,United States,English,No,Unemployed (and job seeking),Not Applicable
5f57620f2095071eaf7a8224,<b>I spend a lot of time considering alternatives to my beliefs.,Highly disagree,50/94,Somewhat agree,3,1708007571921,1708007574750,\Somewhat agree\,\Somewhat agree\,\3\,1708007574244,1708007574244,2323,2323,2829,buq,qns-item-noham,50,286461,0.0-1.0-0.49,65ce1f64064cd8260efd2ea8,AWAITING REVIEW,2024-02-15T14:27:50.975000Z,2024-02-15T14:36:56.395000Z,,2024-02-15T14:36:56.866365Z,546.0,CVPIIDEI,3271,25,Male,White,United States,United States,United States,English,No,Unemployed (and job seeking),Not Applicable
5f57620f2095071eaf7a8224,"<b>Political enemies need to be defeated, not convinced.",Highly disagree,51/94,Somewhat agree,3,1708007574751,1708007581669,\Somewhat agree\,\Somewhat agree\,\3\,1708007579557,1708007579557,4806,4806,6918,buq,qns-item-noham,51,293380,0.0-1.0-0.50,65ce1f64064cd8260efd2ea8,AWAITING REVIEW,2024-02-15T14:27:50.975000Z,2024-02-15T14:36:56.395000Z,,2024-02-15T14:36:56.866365Z,546.0,CVPIIDEI,3271,25,Male,White,United States,United States,United States,English,No,Unemployed (and job seeking),Not Applicable
5f57620f2095071eaf7a8224,<b>I form my political views only after meticulously gathering historical and present information about their policies.,Highly disagree,52/94,Somewhat agree,3,1708007581671,1708007588965,\Somewhat agree\,\Somewhat agree\,\3\,1708007588348,1708007588348,6677,6677,7294,buq,qns-item-noham,52,300676,0.0-1.0-0.51,65ce1f64064cd8260efd2ea8,AWAITING REVIEW,2024-02-15T14:27:50.975000Z,2024-02-15T14:36:56.395000Z,,2024-02-15T14:36:56.866365Z,546.0,CVPIIDEI,3271,25,Male,White,United States,United States,United States,English,No,Unemployed (and job seeking),Not Applicable
5f57620f2095071eaf7a8224,<b>It is difficult for me to remember the last time I was surprised by politics.,Highly disagree,53/94,Somewhat agree,3,1708007588966,1708007603146,\Somewhat agree\,\Somewhat agree\,\3\,1708007600350,1708007600350,11384,11384,14180,buq,qns-item-noham,53,314857,0.0-1.0-0.52,65ce1f64064cd8260efd2ea8,AWAITING REVIEW,2024-02-15T14:27:50.975000Z,2024-02-15T14:36:56.395000Z,,2024-02-15T14:36:56.866365Z,546.0,CVPIIDEI,3271,25,Male,White,United States,United States,United States,English,No,Unemployed (and job seeking),Not Applicable
5f57620f2095071eaf7a8224,"<b>When I find out I?m wrong, I think a lot about my related beliefs.",Highly disagree,54/94,Somewhat agree,3,1708007603148,1708007608005,\Somewhat agree\,\Somewhat agree\,\3\,1708007606804,1708007606804,3656,3656,4857,buq,qns-item-noham,54,319716,0.0-1.0-0.53,65ce1f64064cd8260efd2ea8,AWAITING REVIEW,2024-02-15T14:27:50.975000Z,2024-02-15T14:36:56.395000Z,,2024-02-15T14:36:56.866365Z,546.0,CVPIIDEI,3271,25,Male,White,United States,United States,United States,English,No,Unemployed (and job seeking),Not Applicable
5f57620f2095071eaf7a8224,"<b>If the political party I support messes up, it makes me think you can?t trust anyone these days",Highly disagree,55/94,Somewhat disagree,2,1708007608009,1708007612472,\Somewhat disagree\,\Somewhat disagree\,\2\,1708007610986,1708007610986,2977,2977,4463,buq,qns-item-noham,55,324183,0.0-1.0-0.54,65ce1f64064cd8260efd2ea8,AWAITING REVIEW,2024-02-15T14:27:50.975000Z,2024-02-15T14:36:56.395000Z,,2024-02-15T14:36:56.866365Z,546.0,CVPIIDEI,3271,25,Male,White,United States,United States,United States,English,No,Unemployed (and job seeking),Not Applicable
5f57620f2095071eaf7a8224,<b>People?s brains turn off when they talk about politics.,Highly disagree,56/94,Highly agree,4,1708007612474,1708007616517,\Highly agree\,\Highly agree\,\4\,1708007614350,1708007614350,1876,1876,4043,buq,qns-item-noham,56,328228,0.0-1.0-0.55,65ce1f64064cd8260efd2ea8,AWAITING REVIEW,2024-02-15T14:27:50.975000Z,2024-02-15T14:36:56.395000Z,,2024-02-15T14:36:56.866365Z,546.0,CVPIIDEI,3271,25,Male,White,United States,United States,United States,English,No,Unemployed (and job seeking),Not Applicable
5f57620f2095071eaf7a8224,<b>People who are wrong are usually just ignoring the obvious.,Highly disagree,57/94,Highly disagree,1,1708007616519,1708007620532,\Highly disagree\,\Highly disagree\,\1\,1708007619302,1708007619302,2783,2783,4013,buq,qns-item-noham,57,332243,0.0-1.0-0.56,65ce1f64064cd8260efd2ea8,AWAITING REVIEW,2024-02-15T14:27:50.975000Z,2024-02-15T14:36:56.395000Z,,2024-02-15T14:36:56.866365Z,546.0,CVPIIDEI,3271,25,Male,White,United States,United States,United States,English,No,Unemployed (and job seeking),Not Applicable
5f57620f2095071eaf7a8224,"<b>When forming my views on people, I rely more on what they are like now rather than rely on my past experience with them.",Highly disagree,58/94,Somewhat agree,3,1708007620534,1708007628072,\Somewhat agree\,\Somewhat agree\,\3\,1708007626290,1708007626290,5756,5756,7538,buq,qns-item-noham,58,339783,0.0-1.0-0.57,65ce1f64064cd8260efd2ea8,AWAITING REVIEW,2024-02-15T14:27:50.975000Z,2024-02-15T14:36:56.395000Z,,2024-02-15T14:36:56.866365Z,546.0,CVPIIDEI,3271,25,Male,White,United States,United States,United States,English,No,Unemployed (and job seeking),Not Applicable
5f57620f2095071eaf7a8224,"<b>When people contradict my beliefs, I usually know about their evidence already.",Highly disagree,59/94,Somewhat agree,3,1708007628073,1708007635315,\Somewhat disagree\,\Somewhat agree\,\2\,1708007633340,1708007633771,5267,5698,7242,buq,qns-item-noham,59,347026,0.0-1.0-0.58,65ce1f64064cd8260efd2ea8,AWAITING REVIEW,2024-02-15T14:27:50.975000Z,2024-02-15T14:36:56.395000Z,,2024-02-15T14:36:56.866365Z,546.0,CVPIIDEI,3271,25,Male,White,United States,United States,United States,English,No,Unemployed (and job seeking),Not Applicable
5f57620f2095071eaf7a8224,<b>Figuring out what?s true and what?s false mainly requires a strong moral compass.,Highly disagree,60/94,Highly disagree,1,1708007635317,1708007640210,\Somewhat disagree\,\Highly disagree\,\2\,1708007638944,1708007639603,3627,4286,4893,buq,qns-item-noham,60,351921,0.0-1.0-0.59,65ce1f64064cd8260efd2ea8,AWAITING REVIEW,2024-02-15T14:27:50.975000Z,2024-02-15T14:36:56.395000Z,,2024-02-15T14:36:56.866365Z,546.0,CVPIIDEI,3271,25,Male,White,United States,United States,United States,English,No,Unemployed (and job seeking),Not Applicable
5f57620f2095071eaf7a8224,"<b>Usually I?m wrong about simple things, not complicated ones.",Highly disagree,61/94,Somewhat disagree,2,1708007640212,1708007645452,\Somewhat disagree\,\Somewhat disagree\,\2\,1708007643559,1708007643559,3347,3347,5240,buq,qns-item-noham,61,357163,0.0-1.0-0.60,65ce1f64064cd8260efd2ea8,AWAITING REVIEW,2024-02-15T14:27:50.975000Z,2024-02-15T14:36:56.395000Z,,2024-02-15T14:36:56.866365Z,546.0,CVPIIDEI,3271,25,Male,White,United States,United States,United States,English,No,Unemployed (and job seeking),Not Applicable
5f57620f2095071eaf7a8224,<b>Getting all the information I want about important things is hard.,Highly disagree,62/94,Somewhat disagree,2,1708007645454,1708007650835,\Somewhat disagree\,\Somewhat disagree\,\2\,1708007650114,1708007650114,4660,4660,5381,buq,qns-item-noham,62,362546,0.0-1.0-0.61,65ce1f64064cd8260efd2ea8,AWAITING REVIEW,2024-02-15T14:27:50.975000Z,2024-02-15T14:36:56.395000Z,,2024-02-15T14:36:56.866365Z,546.0,CVPIIDEI,3271,25,Male,White,United States,United States,United States,English,No,Unemployed (and job seeking),Not Applicable
5f57620f2095071eaf7a8224,<b>Most false beliefs spread because people try to deceive one another.,Highly disagree,63/94,Highly disagree,1,1708007650837,1708007656068,\Highly disagree\,\Highly disagree\,\1\,1708007653854,1708007653854,3017,3017,5231,buq,qns-item-noham,63,367779,0.0-1.0-0.62,65ce1f64064cd8260efd2ea8,AWAITING REVIEW,2024-02-15T14:27:50.975000Z,2024-02-15T14:36:56.395000Z,,2024-02-15T14:36:56.866365Z,546.0,CVPIIDEI,3271,25,Male,White,United States,United States,United States,English,No,Unemployed (and job seeking),Not Applicable
5f57620f2095071eaf7a8224,<b>I can usually find something to agree with in most people?s beliefs.,Highly disagree,64/94,Highly agree,4,1708007656070,1708007662436,\Somewhat agree\,\Highly agree\,\3\,1708007658880,1708007661241,2810,5171,6366,buq,qns-item-noham,64,374147,0.0-1.0-0.63,65ce1f64064cd8260efd2ea8,AWAITING REVIEW,2024-02-15T14:27:50.975000Z,2024-02-15T14:36:56.395000Z,,2024-02-15T14:36:56.866365Z,546.0,CVPIIDEI,3271,25,Male,White,United States,United States,United States,English,No,Unemployed (and job seeking),Not Applicable
5f57620f2095071eaf7a8224,<b>I only form my views of people once I get to know them very well.,Highly disagree,65/94,Somewhat disagree,2,1708007662438,1708007667477,\Somewhat disagree\,\Somewhat disagree\,\2\,1708007665181,1708007665181,2743,2743,5039,buq,qns-item-noham,65,379188,0.0-1.0-0.64,65ce1f64064cd8260efd2ea8,AWAITING REVIEW,2024-02-15T14:27:50.975000Z,2024-02-15T14:36:56.395000Z,,2024-02-15T14:36:56.866365Z,546.0,CVPIIDEI,3271,25,Male,White,United States,United States,United States,English,No,Unemployed (and job seeking),Not Applicable
5f57620f2095071eaf7a8224,"<b>When people tell me important things about the world, I usually believe them.",Highly disagree,66/94,Highly disagree,1,1708007667479,1708007671113,\Highly disagree\,\Highly disagree\,\1\,1708007670541,1708007670541,3062,3062,3634,buq,qns-item-noham,66,382824,0.0-1.0-0.65,65ce1f64064cd8260efd2ea8,AWAITING REVIEW,2024-02-15T14:27:50.975000Z,2024-02-15T14:36:56.395000Z,,2024-02-15T14:36:56.866365Z,546.0,CVPIIDEI,3271,25,Male,White,United States,United States,United States,English,No,Unemployed (and job seeking),Not Applicable
5f57620f2095071eaf7a8224,"<b>If a friend does something that upsets me, it reminds me what an unpredictable place the world is.",Highly disagree,67/94,Somewhat agree,3,1708007671117,1708007676912,\Somewhat agree\,\Somewhat agree\,\3\,1708007676043,1708007676043,4926,4926,5795,buq,qns-item-noham,67,388623,0.0-1.0-0.66,65ce1f64064cd8260efd2ea8,AWAITING REVIEW,2024-02-15T14:27:50.975000Z,2024-02-15T14:36:56.395000Z,,2024-02-15T14:36:56.866365Z,546.0,CVPIIDEI,3271,25,Male,White,United States,United States,United States,English,No,Unemployed (and job seeking),Not Applicable
5f57620f2095071eaf7a8224,<b>People tend to believe whatever is good for their friends.,Highly disagree,68/94,Highly agree,4,1708007676914,1708007681480,\Somewhat agree\,\Highly agree\,\3\,1708007679494,1708007680386,2580,3472,4566,buq,qns-item-noham,68,393191,0.0-1.0-0.67,65ce1f64064cd8260efd2ea8,AWAITING REVIEW,2024-02-15T14:27:50.975000Z,2024-02-15T14:36:56.395000Z,,2024-02-15T14:36:56.866365Z,546.0,CVPIIDEI,3271,25,Male,White,United States,United States,United States,English,No,Unemployed (and job seeking),Not Applicable
5f57620f2095071eaf7a8224,<b>I used to be more certain my beliefs were true.,Highly disagree,69/94,Somewhat agree,3,1708007681482,1708007687395,\Somewhat disagree\,\Somewhat agree\,\2\,1708007684996,1708007686550,3514,5068,5913,buq,qns-item-noham,69,399107,0.0-1.0-0.68,65ce1f64064cd8260efd2ea8,AWAITING REVIEW,2024-02-15T14:27:50.975000Z,2024-02-15T14:36:56.395000Z,,2024-02-15T14:36:56.866365Z,546.0,CVPIIDEI,3271,25,Male,White,United States,United States,United States,English,No,Unemployed (and job seeking),Not Applicable
5f57620f2095071eaf7a8224,<b>It?s often pretty easy to figure out whether something is true based on who said it.,Highly disagree,70/94,Highly disagree,1,1708007687398,1708007692111,\Highly disagree\,\Highly disagree\,\1\,1708007690412,1708007690412,3014,3014,4713,buq,qns-item-noham,70,403822,0.0-1.0-0.69,65ce1f64064cd8260efd2ea8,AWAITING REVIEW,2024-02-15T14:27:50.975000Z,2024-02-15T14:36:56.395000Z,,2024-02-15T14:36:56.866365Z,546.0,CVPIIDEI,3271,25,Male,White,United States,United States,United States,English,No,Unemployed (and job seeking),Not Applicable
5f57620f2095071eaf7a8224,<b>I transform into a hummingbird every day.,Highly disagree,71/94,Highly disagree,1,1708007692113,1708007694191,\Highly disagree\,\Highly disagree\,\1\,1708007693677,1708007693677,1564,1564,2078,buq,qns-item-noham,71,405902,0.0-1.0-0.70,65ce1f64064cd8260efd2ea8,AWAITING REVIEW,2024-02-15T14:27:50.975000Z,2024-02-15T14:36:56.395000Z,,2024-02-15T14:36:56.866365Z,546.0,CVPIIDEI,3271,25,Male,White,United States,United States,United States,English,No,Unemployed (and job seeking),Not Applicable
5f57620f2095071eaf7a8224,<b>I think a lot about arguments against my views.,Highly disagree,72/94,Somewhat agree,3,1708007694193,1708007696474,\Somewhat agree\,\Somewhat agree\,\3\,1708007695985,1708007695985,1792,1792,2281,buq,qns-item-noham,72,408186,0.0-1.0-0.71,65ce1f64064cd8260efd2ea8,AWAITING REVIEW,2024-02-15T14:27:50.975000Z,2024-02-15T14:36:56.395000Z,,2024-02-15T14:36:56.866365Z,546.0,CVPIIDEI,3271,25,Male,White,United States,United States,United States,English,No,Unemployed (and job seeking),Not Applicable
5f57620f2095071eaf7a8224,<b>Personal experience is usually more important than facts and figures.,Highly disagree,73/94,Somewhat agree,3,1708007696476,1708007701006,\Somewhat agree\,\Somewhat agree\,\3\,1708007700344,1708007700344,3868,3868,4530,buq,qns-item-noham,73,412717,0.0-1.0-0.72,65ce1f64064cd8260efd2ea8,AWAITING REVIEW,2024-02-15T14:27:50.975000Z,2024-02-15T14:36:56.395000Z,,2024-02-15T14:36:56.866365Z,546.0,CVPIIDEI,3271,25,Male,White,United States,United States,United States,English,No,Unemployed (and job seeking),Not Applicable
5f57620f2095071eaf7a8224,<b>I?ve been tricked before about important matters.,Highly disagree,74/94,Highly agree,4,1708007701008,1708007707224,\Somewhat agree\,\Highly agree\,\3\,1708007703969,1708007705574,2961,4566,6216,buq,qns-item-noham,74,418936,0.0-1.0-0.73,65ce1f64064cd8260efd2ea8,AWAITING REVIEW,2024-02-15T14:27:50.975000Z,2024-02-15T14:36:56.395000Z,,2024-02-15T14:36:56.866365Z,546.0,CVPIIDEI,3271,25,Male,White,United States,United States,United States,English,No,Unemployed (and job seeking),Not Applicable
5f57620f2095071eaf7a8224,<b>I would need to be totally wowed if I were to change my opinion of a restaurant I don?t like.,Highly disagree,75/94,Somewhat disagree,2,1708007707226,1708007713720,\Somewhat disagree\,\Somewhat disagree\,\2\,1708007712947,1708007712947,5721,5721,6494,buq,qns-item-noham,75,425431,0.0-1.0-0.74,65ce1f64064cd8260efd2ea8,AWAITING REVIEW,2024-02-15T14:27:50.975000Z,2024-02-15T14:36:56.395000Z,,2024-02-15T14:36:56.866365Z,546.0,CVPIIDEI,3271,25,Male,White,United States,United States,United States,English,No,Unemployed (and job seeking),Not Applicable
5f57620f2095071eaf7a8224,<b>I care a lot about politics.,Highly disagree,76/94,Somewhat disagree,2,1708007713722,1708007716404,\Somewhat disagree\,\Somewhat disagree\,\2\,1708007715730,1708007715730,2008,2008,2682,buq,qns-item-noham,76,428116,0.0-1.0-0.75,65ce1f64064cd8260efd2ea8,AWAITING REVIEW,2024-02-15T14:27:50.975000Z,2024-02-15T14:36:56.395000Z,,2024-02-15T14:36:56.866365Z,546.0,CVPIIDEI,3271,25,Male,White,United States,United States,United States,English,No,Unemployed (and job seeking),Not Applicable
5f57620f2095071eaf7a8224,<b>There are some topics I?ve been really wrong about.,Highly disagree,77/94,Somewhat agree,3,1708007716406,1708007724006,\Somewhat agree\,\Somewhat agree\,\3\,1708007723370,1708007723370,6964,6964,7600,buq,qns-item-noham,77,435717,0.0-1.0-0.76,65ce1f64064cd8260efd2ea8,AWAITING REVIEW,2024-02-15T14:27:50.975000Z,2024-02-15T14:36:56.395000Z,,2024-02-15T14:36:56.866365Z,546.0,CVPIIDEI,3271,25,Male,White,United States,United States,United States,English,No,Unemployed (and job seeking),Not Applicable
5f57620f2095071eaf7a8224,<b>Most beliefs can be supported with at least some evidence.,Highly disagree,78/94,Highly agree,4,1708007724007,1708007728822,\Highly agree\,\Highly agree\,\4\,1708007728020,1708007728020,4013,4013,4815,buq,qns-item-noham,78,440533,0.0-1.0-0.77,65ce1f64064cd8260efd2ea8,AWAITING REVIEW,2024-02-15T14:27:50.975000Z,2024-02-15T14:36:56.395000Z,,2024-02-15T14:36:56.866365Z,546.0,CVPIIDEI,3271,25,Male,White,United States,United States,United States,English,No,Unemployed (and job seeking),Not Applicable
5f57620f2095071eaf7a8224,<b>Other people make life out to be more complicated than it really is.,Highly disagree,79/94,Highly disagree,1,1708007728823,1708007733902,\Somewhat disagree\,\Highly disagree\,\2\,1708007732486,1708007733388,3663,4565,5079,buq,qns-item-noham,79,445614,0.0-1.0-0.78,65ce1f64064cd8260efd2ea8,AWAITING REVIEW,2024-02-15T14:27:50.975000Z,2024-02-15T14:36:56.395000Z,,2024-02-15T14:36:56.866365Z,546.0,CVPIIDEI,3271,25,Male,White,United States,United States,United States,English,No,Unemployed (and job seeking),Not Applicable
5f57620f2095071eaf7a8224,"<b>Policy details don?t matter much, just the big picture.",Highly disagree,80/94,Somewhat disagree,2,1708007733907,1708007737576,\Somewhat disagree\,\Somewhat disagree\,\2\,1708007736122,1708007736122,2215,2215,3669,buq,qns-item-noham,80,449287,0.0-1.0-0.79,65ce1f64064cd8260efd2ea8,AWAITING REVIEW,2024-02-15T14:27:50.975000Z,2024-02-15T14:36:56.395000Z,,2024-02-15T14:36:56.866365Z,546.0,CVPIIDEI,3271,25,Male,White,United States,United States,United States,English,No,Unemployed (and job seeking),Not Applicable
5f57620f2095071eaf7a8224,<b>I know my friends so well they can hardly ever surprise me.,Highly disagree,81/94,Somewhat disagree,2,1708007737580,1708007741575,\Somewhat disagree\,\Somewhat disagree\,\2\,1708007740128,1708007740128,2548,2548,3995,buq,qns-item-noham,81,453286,0.0-1.0-0.80,65ce1f64064cd8260efd2ea8,AWAITING REVIEW,2024-02-15T14:27:50.975000Z,2024-02-15T14:36:56.395000Z,,2024-02-15T14:36:56.866365Z,546.0,CVPIIDEI,3271,25,Male,White,United States,United States,United States,English,No,Unemployed (and job seeking),Not Applicable
5f57620f2095071eaf7a8224,<b>I do not often change my views on people.,Highly disagree,82/94,Somewhat agree,3,1708007741576,1708007744839,\Somewhat agree\,\Somewhat agree\,\3\,1708007744201,1708007744201,2625,2625,3263,buq,qns-item-noham,82,456550,0.0-1.0-0.81,65ce1f64064cd8260efd2ea8,AWAITING REVIEW,2024-02-15T14:27:50.975000Z,2024-02-15T14:36:56.395000Z,,2024-02-15T14:36:56.866365Z,546.0,CVPIIDEI,3271,25,Male,White,United States,United States,United States,English,No,Unemployed (and job seeking),Not Applicable
5f57620f2095071eaf7a8224,<b>I?m more certain about my beliefs than I used to be.,Highly disagree,83/94,Somewhat agree,3,1708007744840,1708007750237,\Somewhat agree\,\Somewhat agree\,\3\,1708007747123,1708007747123,2283,2283,5397,buq,qns-item-noham,83,461948,0.0-1.0-0.82,65ce1f64064cd8260efd2ea8,AWAITING REVIEW,2024-02-15T14:27:50.975000Z,2024-02-15T14:36:56.395000Z,,2024-02-15T14:36:56.866365Z,546.0,CVPIIDEI,3271,25,Male,White,United States,United States,United States,English,No,Unemployed (and job seeking),Not Applicable
5f57620f2095071eaf7a8224,<b>People often tell falsehoods unintentionally.,Highly disagree,84/94,Somewhat agree,3,1708007750239,1708007754807,\Somewhat agree\,\Somewhat agree\,\3\,1708007753515,1708007753515,3276,3276,4568,buq,qns-item-noham,84,466518,0.0-1.0-0.83,65ce1f64064cd8260efd2ea8,AWAITING REVIEW,2024-02-15T14:27:50.975000Z,2024-02-15T14:36:56.395000Z,,2024-02-15T14:36:56.866365Z,546.0,CVPIIDEI,3271,25,Male,White,United States,United States,United States,English,No,Unemployed (and job seeking),Not Applicable
5f57620f2095071eaf7a8224,<b>Most people don?t know much about most things.,Highly disagree,85/94,Highly agree,4,1708007754809,1708007757312,\Highly agree\,\Highly agree\,\4\,1708007756642,1708007756642,1833,1833,2503,buq,qns-item-noham,85,469023,0.0-1.0-0.84,65ce1f64064cd8260efd2ea8,AWAITING REVIEW,2024-02-15T14:27:50.975000Z,2024-02-15T14:36:56.395000Z,,2024-02-15T14:36:56.866365Z,546.0,CVPIIDEI,3271,25,Male,White,United States,United States,United States,English,No,Unemployed (and job seeking),Not Applicable
5f57620f2095071eaf7a8224,"<b>If I find out something new about someone, I easily change my views about them.",Highly disagree,86/94,Somewhat agree,3,1708007757313,1708007761211,\Somewhat agree\,\Somewhat agree\,\3\,1708007760542,1708007760542,3229,3229,3898,buq,qns-item-noham,86,472922,0.0-1.0-0.85,65ce1f64064cd8260efd2ea8,AWAITING REVIEW,2024-02-15T14:27:50.975000Z,2024-02-15T14:36:56.395000Z,,2024-02-15T14:36:56.866365Z,546.0,CVPIIDEI,3271,25,Male,White,United States,United States,United States,English,No,Unemployed (and job seeking),Not Applicable
5f57620f2095071eaf7a8224,<b>Having true beliefs is difficult.,Highly disagree,87/94,Highly agree,4,1708007761212,1708007764039,\Highly agree\,\Highly agree\,\4\,1708007763514,1708007763514,2302,2302,2827,buq,qns-item-noham,87,475750,0.0-1.0-0.86,65ce1f64064cd8260efd2ea8,AWAITING REVIEW,2024-02-15T14:27:50.975000Z,2024-02-15T14:36:56.395000Z,,2024-02-15T14:36:56.866365Z,546.0,CVPIIDEI,3271,25,Male,White,United States,United States,United States,English,No,Unemployed (and job seeking),Not Applicable
5f57620f2095071eaf7a8224,<b>I don?t try new foods since I know I won?t like them.,Highly disagree,88/94,Somewhat agree,3,1708007764041,1708007767976,\Somewhat agree\,\Somewhat agree\,\3\,1708007767073,1708007767073,3032,3032,3935,buq,qns-item-noham,88,479687,0.0-1.0-0.87,65ce1f64064cd8260efd2ea8,AWAITING REVIEW,2024-02-15T14:27:50.975000Z,2024-02-15T14:36:56.395000Z,,2024-02-15T14:36:56.866365Z,546.0,CVPIIDEI,3271,25,Male,White,United States,United States,United States,English,No,Unemployed (and job seeking),Not Applicable
5f57620f2095071eaf7a8224,<b>Other people trick each other a lot.,Highly disagree,89/94,Somewhat disagree,2,1708007767977,1708007772841,\Somewhat disagree\,\Somewhat disagree\,\2\,1708007772256,1708007772256,4279,4279,4864,buq,qns-item-noham,89,484552,0.0-1.0-0.88,65ce1f64064cd8260efd2ea8,AWAITING REVIEW,2024-02-15T14:27:50.975000Z,2024-02-15T14:36:56.395000Z,,2024-02-15T14:36:56.866365Z,546.0,CVPIIDEI,3271,25,Male,White,United States,United States,United States,English,No,Unemployed (and job seeking),Not Applicable
5f57620f2095071eaf7a8224,<b>I would need to learn a lot about a person for my opinion of them to be swayed.,Highly disagree,90/94,Somewhat disagree,2,1708007772843,1708007776990,\Somewhat disagree\,\Somewhat disagree\,\2\,1708007776372,1708007776372,3529,3529,4147,buq,qns-item-noham,90,488701,0.0-1.0-0.89,65ce1f64064cd8260efd2ea8,AWAITING REVIEW,2024-02-15T14:27:50.975000Z,2024-02-15T14:36:56.395000Z,,2024-02-15T14:36:56.866365Z,546.0,CVPIIDEI,3271,25,Male,White,United States,United States,United States,English,No,Unemployed (and job seeking),Not Applicable
5f57620f2095071eaf7a8224,<b>People can?t usually trick me when it comes to topics I care about.,Highly disagree,91/94,Somewhat agree,3,1708007776991,1708007783229,\Somewhat agree\,\Somewhat agree\,\3\,1708007780562,1708007780562,3571,3571,6238,buq,qns-item-noham,91,494941,0.0-1.0-0.90,65ce1f64064cd8260efd2ea8,AWAITING REVIEW,2024-02-15T14:27:50.975000Z,2024-02-15T14:36:56.395000Z,,2024-02-15T14:36:56.866365Z,546.0,CVPIIDEI,3271,25,Male,White,United States,United States,United States,English,No,Unemployed (and job seeking),Not Applicable
5f57620f2095071eaf7a8224,<b>I do not often change my views on food.,Highly disagree,92/94,Highly agree,4,1708007783231,1708007788565,\Somewhat agree\,\Highly agree\,\3\,1708007785506,1708007787976,2275,4745,5334,buq,qns-item-noham,92,500276,0.0-1.0-0.91,65ce1f64064cd8260efd2ea8,AWAITING REVIEW,2024-02-15T14:27:50.975000Z,2024-02-15T14:36:56.395000Z,,2024-02-15T14:36:56.866365Z,546.0,CVPIIDEI,3271,25,Male,White,United States,United States,United States,English,No,Unemployed (and job seeking),Not Applicable
5f57620f2095071eaf7a8224,<b>Specific policies are often very important to me.,Highly disagree,93/94,Highly agree,4,1708007788567,1708007792822,\Highly agree\,\Highly agree\,\4\,1708007791389,1708007791389,2822,2822,4255,buq,qns-item-noham,93,504533,0.0-1.0-0.92,65ce1f64064cd8260efd2ea8,AWAITING REVIEW,2024-02-15T14:27:50.975000Z,2024-02-15T14:36:56.395000Z,,2024-02-15T14:36:56.866365Z,546.0,CVPIIDEI,3271,25,Male,White,United States,United States,United States,English,No,Unemployed (and job seeking),Not Applicable
5f57620f2095071eaf7a8224,<b>Most people are woefully under-informed.,Highly disagree,94/94,Highly agree,4,1708007792824,1708007795058,\Highly agree\,\Highly agree\,\4\,1708007794537,1708007794537,1713,1713,2234,buq,qns-item-noham,94,506769,0.0-1.0-0.93,65ce1f64064cd8260efd2ea8,AWAITING REVIEW,2024-02-15T14:27:50.975000Z,2024-02-15T14:36:56.395000Z,,2024-02-15T14:36:56.866365Z,546.0,CVPIIDEI,3271,25,Male,White,United States,United States,United States,English,No,Unemployed (and job seeking),Not Applicable
5f57620f2095071eaf7a8224,,,,,,,,,,,,,,,,,,,,,65ce1f64064cd8260efd2ea8,AWAITING REVIEW,2024-02-15T14:27:50.975000Z,2024-02-15T14:36:56.395000Z,,2024-02-15T14:36:56.866365Z,546.0,CVPIIDEI,3271,25,Male,White,United States,United States,United States,English,No,Unemployed (and job seeking),Not Applicable
