PROLIFIC_PID,Question,qns_options,quest_num,answer,answer_num,question_load_timestamp,next_btn_timestamp,text_selected,final_text_selected,option_num_selected,preview_timestamps,final_text_selected_time_stamp,rt_first_option_click,rt_final_option_click,rt_submit_click,questionnaire,trial_type,trial_index,time_elapsed,internal_node_id,Demographic_Submission id,Demographic_Status,Demographic_Started at,Demographic_Completed at,Demographic_Reviewed at,Demographic_Archived at,Demographic_Time taken,Demographic_Completion code,Demographic_Total approvals,Demographic_Age,Demographic_Sex,Demographic_Ethnicity simplified,Demographic_Country of birth,Demographic_Country of residence,Demographic_Nationality,Demographic_Language,Demographic_Student status,Demographic_Employment status,Demographic_Custom study tncs accepted at
5ac70920a3ba7a0001b4ba8c,<b>Knowing what?s true and knowing what to do about it are usually basically the same.,Highly disagree,1/94,Somewhat disagree,2,1708007509724,1708007522044,\Somewhat disagree\,\Somewhat disagree\,\2\,1708007520908,1708007520908,11184,11184,12320,buq,qns-item-noham,1,22789,0.0-1.0-0.0,65ce202c5c88af7bddb963ca,AWAITING REVIEW,2024-02-15T14:31:17.765000Z,2024-02-15T14:41:16.023000Z,,2024-02-15T14:41:16.612062Z,599.0,CVPIIDEI,128,38,Male,Mixed,United States,United States,United States,English,Yes,DATA_EXPIRED,Not Applicable
5ac70920a3ba7a0001b4ba8c,<b>Most people just believe whatever is convenient for them.,Highly disagree,2/94,Somewhat agree,3,1708007522045,1708007527433,\Somewhat agree\,\Somewhat agree\,\3\,1708007526667,1708007526667,4622,4622,5388,buq,qns-item-noham,2,28178,0.0-1.0-0.1,65ce202c5c88af7bddb963ca,AWAITING REVIEW,2024-02-15T14:31:17.765000Z,2024-02-15T14:41:16.023000Z,,2024-02-15T14:41:16.612062Z,599.0,CVPIIDEI,128,38,Male,Mixed,United States,United States,United States,English,Yes,DATA_EXPIRED,Not Applicable
5ac70920a3ba7a0001b4ba8c,<b>Having some big beliefs helps me sort out minor ones.,Highly disagree,3/94,Highly disagree,1,1708007527435,1708007533881,\Highly disagree\,\Highly disagree\,\1\,1708007532861,1708007532861,5426,5426,6446,buq,qns-item-noham,3,34626,0.0-1.0-0.2,65ce202c5c88af7bddb963ca,AWAITING REVIEW,2024-02-15T14:31:17.765000Z,2024-02-15T14:41:16.023000Z,,2024-02-15T14:41:16.612062Z,599.0,CVPIIDEI,128,38,Male,Mixed,United States,United States,United States,English,Yes,DATA_EXPIRED,Not Applicable
5ac70920a3ba7a0001b4ba8c,<b>Political questions are usually pretty complicated.,Highly disagree,4/94,Highly agree,4,1708007533882,1708007537889,\Highly agree\,\Highly agree\,\4\,1708007537265,1708007537265,3383,3383,4007,buq,qns-item-noham,4,38634,0.0-1.0-0.3,65ce202c5c88af7bddb963ca,AWAITING REVIEW,2024-02-15T14:31:17.765000Z,2024-02-15T14:41:16.023000Z,,2024-02-15T14:41:16.612062Z,599.0,CVPIIDEI,128,38,Male,Mixed,United States,United States,United States,English,Yes,DATA_EXPIRED,Not Applicable
5ac70920a3ba7a0001b4ba8c,<b>Figuring out what?s important in life requires learning a lot of facts.,Highly disagree,5/94,Somewhat agree,3,1708007537890,1708007543588,\Somewhat agree\,\Somewhat agree\,\3\,1708007542775,1708007542775,4885,4885,5698,buq,qns-item-noham,5,44333,0.0-1.0-0.4,65ce202c5c88af7bddb963ca,AWAITING REVIEW,2024-02-15T14:31:17.765000Z,2024-02-15T14:41:16.023000Z,,2024-02-15T14:41:16.612062Z,599.0,CVPIIDEI,128,38,Male,Mixed,United States,United States,United States,English,Yes,DATA_EXPIRED,Not Applicable
5ac70920a3ba7a0001b4ba8c,<b>It is difficult for me to remember the last time I was surprised by politics.,Highly disagree,6/94,Highly disagree,1,1708007543589,1708007548957,\Highly disagree\,\Highly disagree\,\1\,1708007547715,1708007547715,4126,4126,5368,buq,qns-item-noham,6,49702,0.0-1.0-0.5,65ce202c5c88af7bddb963ca,AWAITING REVIEW,2024-02-15T14:31:17.765000Z,2024-02-15T14:41:16.023000Z,,2024-02-15T14:41:16.612062Z,599.0,CVPIIDEI,128,38,Male,Mixed,United States,United States,United States,English,Yes,DATA_EXPIRED,Not Applicable
5ac70920a3ba7a0001b4ba8c,<b>People?s false beliefs are understandable.,Highly disagree,7/94,Somewhat disagree,2,1708007548958,1708007553852,\Somewhat disagree\,\Somewhat disagree\,\2\,1708007552528,1708007552528,3570,3570,4894,buq,qns-item-noham,7,54597,0.0-1.0-0.6,65ce202c5c88af7bddb963ca,AWAITING REVIEW,2024-02-15T14:31:17.765000Z,2024-02-15T14:41:16.023000Z,,2024-02-15T14:41:16.612062Z,599.0,CVPIIDEI,128,38,Male,Mixed,United States,United States,United States,English,Yes,DATA_EXPIRED,Not Applicable
5ac70920a3ba7a0001b4ba8c,<b>I spend a lot of time trying to be informed about politics.,Highly disagree,8/94,Somewhat agree,3,1708007553852,1708007557471,\Somewhat agree\,\Somewhat agree\,\3\,1708007556762,1708007556762,2910,2910,3619,buq,qns-item-noham,8,58216,0.0-1.0-0.7,65ce202c5c88af7bddb963ca,AWAITING REVIEW,2024-02-15T14:31:17.765000Z,2024-02-15T14:41:16.023000Z,,2024-02-15T14:41:16.612062Z,599.0,CVPIIDEI,128,38,Male,Mixed,United States,United States,United States,English,Yes,DATA_EXPIRED,Not Applicable
5ac70920a3ba7a0001b4ba8c,<b>I think a lot about whether my beliefs are right.,Highly disagree,9/94,Highly agree,4,1708007557472,1708007561704,\Highly agree\,\Highly agree\,\4\,1708007560932,1708007560932,3460,3460,4232,buq,qns-item-noham,9,62449,0.0-1.0-0.8,65ce202c5c88af7bddb963ca,AWAITING REVIEW,2024-02-15T14:31:17.765000Z,2024-02-15T14:41:16.023000Z,,2024-02-15T14:41:16.612062Z,599.0,CVPIIDEI,128,38,Male,Mixed,United States,United States,United States,English,Yes,DATA_EXPIRED,Not Applicable
5ac70920a3ba7a0001b4ba8c,<b>Statistics can be pretty misleading sometimes.,Highly disagree,10/94,Highly agree,4,1708007561704,1708007565660,\Highly agree\,\Highly agree\,\4\,1708007564943,1708007564943,3239,3239,3956,buq,qns-item-noham,10,66405,0.0-1.0-0.9,65ce202c5c88af7bddb963ca,AWAITING REVIEW,2024-02-15T14:31:17.765000Z,2024-02-15T14:41:16.023000Z,,2024-02-15T14:41:16.612062Z,599.0,CVPIIDEI,128,38,Male,Mixed,United States,United States,United States,English,Yes,DATA_EXPIRED,Not Applicable
5ac70920a3ba7a0001b4ba8c,<b>I have lots of beliefs that I?m only sort of sure about.,Highly disagree,11/94,Somewhat disagree,2,1708007565661,1708007575713,\Somewhat disagree\,\Somewhat disagree\,\2\,1708007573415,1708007573415,7754,7754,10052,buq,qns-item-noham,11,76458,0.0-1.0-0.10,65ce202c5c88af7bddb963ca,AWAITING REVIEW,2024-02-15T14:31:17.765000Z,2024-02-15T14:41:16.023000Z,,2024-02-15T14:41:16.612062Z,599.0,CVPIIDEI,128,38,Male,Mixed,United States,United States,United States,English,Yes,DATA_EXPIRED,Not Applicable
5ac70920a3ba7a0001b4ba8c,"<b>If I go to my favorite restaurant and the food is surprisingly bad, it reminds me there are many disappointments in life.",Highly disagree,12/94,Somewhat disagree,2,1708007575713,1708007583647,\Somewhat agree\,\Somewhat disagree\,\3\,1708007580979,1708007582800,5266,7087,7934,buq,qns-item-noham,12,84392,0.0-1.0-0.11,65ce202c5c88af7bddb963ca,AWAITING REVIEW,2024-02-15T14:31:17.765000Z,2024-02-15T14:41:16.023000Z,,2024-02-15T14:41:16.612062Z,599.0,CVPIIDEI,128,38,Male,Mixed,United States,United States,United States,English,Yes,DATA_EXPIRED,Not Applicable
5ac70920a3ba7a0001b4ba8c,"<b>If you are paying attention, please select ?Somewhat agree?",Highly disagree,13/94,Somewhat agree,3,1708007583648,1708007587360,\Somewhat agree\,\Somewhat agree\,\3\,1708007586360,1708007586360,2712,2712,3712,buq,qns-item-noham,13,88105,0.0-1.0-0.12,65ce202c5c88af7bddb963ca,AWAITING REVIEW,2024-02-15T14:31:17.765000Z,2024-02-15T14:41:16.023000Z,,2024-02-15T14:41:16.612062Z,599.0,CVPIIDEI,128,38,Male,Mixed,United States,United States,United States,English,Yes,DATA_EXPIRED,Not Applicable
5ac70920a3ba7a0001b4ba8c,"<b>When I talk to others, I often worry I?ll convince them of something I didn?t mean to.",Highly disagree,14/94,Highly agree,4,1708007587361,1708007592552,\Highly agree\,\Highly agree\,\4\,1708007591784,1708007591784,4423,4423,5191,buq,qns-item-noham,14,93297,0.0-1.0-0.13,65ce202c5c88af7bddb963ca,AWAITING REVIEW,2024-02-15T14:31:17.765000Z,2024-02-15T14:41:16.023000Z,,2024-02-15T14:41:16.612062Z,599.0,CVPIIDEI,128,38,Male,Mixed,United States,United States,United States,English,Yes,DATA_EXPIRED,Not Applicable
5ac70920a3ba7a0001b4ba8c,<b>I would need to learn something utterly shocking about my party in order to change my political views.,Highly disagree,15/94,Somewhat disagree,2,1708007592552,1708007598846,\Somewhat disagree\,\Somewhat disagree\,\2\,1708007597610,1708007597610,5058,5058,6294,buq,qns-item-noham,15,99591,0.0-1.0-0.14,65ce202c5c88af7bddb963ca,AWAITING REVIEW,2024-02-15T14:31:17.765000Z,2024-02-15T14:41:16.023000Z,,2024-02-15T14:41:16.612062Z,599.0,CVPIIDEI,128,38,Male,Mixed,United States,United States,United States,English,Yes,DATA_EXPIRED,Not Applicable
5ac70920a3ba7a0001b4ba8c,"<b>When I have new experiences, I tend to think of them as unique.",Highly disagree,16/94,Highly agree,4,1708007598847,1708007602052,\Highly agree\,\Highly agree\,\4\,1708007601455,1708007601455,2608,2608,3205,buq,qns-item-noham,16,102797,0.0-1.0-0.15,65ce202c5c88af7bddb963ca,AWAITING REVIEW,2024-02-15T14:31:17.765000Z,2024-02-15T14:41:16.023000Z,,2024-02-15T14:41:16.612062Z,599.0,CVPIIDEI,128,38,Male,Mixed,United States,United States,United States,English,Yes,DATA_EXPIRED,Not Applicable
5ac70920a3ba7a0001b4ba8c,<b>I change my mind about specific policies pretty frequently.,Highly disagree,17/94,Somewhat agree,3,1708007602052,1708007605296,\Somewhat agree\,\Somewhat agree\,\3\,1708007604647,1708007604647,2595,2595,3244,buq,qns-item-noham,17,106042,0.0-1.0-0.16,65ce202c5c88af7bddb963ca,AWAITING REVIEW,2024-02-15T14:31:17.765000Z,2024-02-15T14:41:16.023000Z,,2024-02-15T14:41:16.612062Z,599.0,CVPIIDEI,128,38,Male,Mixed,United States,United States,United States,English,Yes,DATA_EXPIRED,Not Applicable
5ac70920a3ba7a0001b4ba8c,"<b>If a politician in my political party supports something I disagree with, I give them the benefit of the doubt, as such issues often involve hidden complexities that aren?t obvious.   ",Highly disagree,18/94,Somewhat disagree,2,1708007605297,1708007614469,\Somewhat disagree\,\Somewhat disagree\,\2\,1708007613670,1708007613670,8373,8373,9172,buq,qns-item-noham,18,115214,0.0-1.0-0.17,65ce202c5c88af7bddb963ca,AWAITING REVIEW,2024-02-15T14:31:17.765000Z,2024-02-15T14:41:16.023000Z,,2024-02-15T14:41:16.612062Z,599.0,CVPIIDEI,128,38,Male,Mixed,United States,United States,United States,English,Yes,DATA_EXPIRED,Not Applicable
5ac70920a3ba7a0001b4ba8c,<b>People?s bad politics are usually motivated by hatefulness.,Highly disagree,19/94,Somewhat disagree,2,1708007614470,1708007619853,\Somewhat disagree\,\Somewhat disagree\,\2\,1708007618530,1708007618530,4060,4060,5383,buq,qns-item-noham,19,120598,0.0-1.0-0.18,65ce202c5c88af7bddb963ca,AWAITING REVIEW,2024-02-15T14:31:17.765000Z,2024-02-15T14:41:16.023000Z,,2024-02-15T14:41:16.612062Z,599.0,CVPIIDEI,128,38,Male,Mixed,United States,United States,United States,English,Yes,DATA_EXPIRED,Not Applicable
5ac70920a3ba7a0001b4ba8c,<b>I think a lot about how to reconcile my beliefs with one another.,Highly disagree,20/94,Somewhat agree,3,1708007619854,1708007627022,\Somewhat disagree\,\Somewhat agree\,\2\,1708007624464,1708007626322,4610,6468,7168,buq,qns-item-noham,20,127767,0.0-1.0-0.19,65ce202c5c88af7bddb963ca,AWAITING REVIEW,2024-02-15T14:31:17.765000Z,2024-02-15T14:41:16.023000Z,,2024-02-15T14:41:16.612062Z,599.0,CVPIIDEI,128,38,Male,Mixed,United States,United States,United States,English,Yes,DATA_EXPIRED,Not Applicable
5ac70920a3ba7a0001b4ba8c,<b>I might have false beliefs about important topics.,Highly disagree,21/94,Somewhat agree,3,1708007627023,1708007632694,\Somewhat agree\,\Somewhat agree\,\3\,1708007631924,1708007631924,4901,4901,5671,buq,qns-item-noham,21,133439,0.0-1.0-0.20,65ce202c5c88af7bddb963ca,AWAITING REVIEW,2024-02-15T14:31:17.765000Z,2024-02-15T14:41:16.023000Z,,2024-02-15T14:41:16.612062Z,599.0,CVPIIDEI,128,38,Male,Mixed,United States,United States,United States,English,Yes,DATA_EXPIRED,Not Applicable
5ac70920a3ba7a0001b4ba8c,"<b>If a good friend of mine does something unexpected that upsets me, I feel like I don?t know them anymore.",Highly disagree,22/94,Highly disagree,1,1708007632695,1708007637933,\Highly disagree\,\Highly disagree\,\1\,1708007637278,1708007637278,4583,4583,5238,buq,qns-item-noham,22,138678,0.0-1.0-0.21,65ce202c5c88af7bddb963ca,AWAITING REVIEW,2024-02-15T14:31:17.765000Z,2024-02-15T14:41:16.023000Z,,2024-02-15T14:41:16.612062Z,599.0,CVPIIDEI,128,38,Male,Mixed,United States,United States,United States,English,Yes,DATA_EXPIRED,Not Applicable
5ac70920a3ba7a0001b4ba8c,<b>Other people?s beliefs are often incoherent.,Highly disagree,23/94,Highly disagree,1,1708007637934,1708007641578,\Highly disagree\,\Highly disagree\,\1\,1708007640695,1708007640695,2761,2761,3644,buq,qns-item-noham,23,142323,0.0-1.0-0.22,65ce202c5c88af7bddb963ca,AWAITING REVIEW,2024-02-15T14:31:17.765000Z,2024-02-15T14:41:16.023000Z,,2024-02-15T14:41:16.612062Z,599.0,CVPIIDEI,128,38,Male,Mixed,United States,United States,United States,English,Yes,DATA_EXPIRED,Not Applicable
5ac70920a3ba7a0001b4ba8c,"<b>Every now and then, a new experience will unsettle beliefs I?ve had for a while.",Highly disagree,24/94,Highly agree,4,1708007641579,1708007646249,\Highly agree\,\Highly agree\,\4\,1708007645683,1708007645683,4104,4104,4670,buq,qns-item-noham,24,146994,0.0-1.0-0.23,65ce202c5c88af7bddb963ca,AWAITING REVIEW,2024-02-15T14:31:17.765000Z,2024-02-15T14:41:16.023000Z,,2024-02-15T14:41:16.612062Z,599.0,CVPIIDEI,128,38,Male,Mixed,United States,United States,United States,English,Yes,DATA_EXPIRED,Not Applicable
5ac70920a3ba7a0001b4ba8c,<b>Some policies I agree with in principle are so bad I don?t support them. ,Highly disagree,25/94,Somewhat disagree,2,1708007646250,1708007659082,\Somewhat disagree\,\Somewhat disagree\,\2\,1708007655851,1708007655851,9601,9601,12832,buq,qns-item-noham,25,159827,0.0-1.0-0.24,65ce202c5c88af7bddb963ca,AWAITING REVIEW,2024-02-15T14:31:17.765000Z,2024-02-15T14:41:16.023000Z,,2024-02-15T14:41:16.612062Z,599.0,CVPIIDEI,128,38,Male,Mixed,United States,United States,United States,English,Yes,DATA_EXPIRED,Not Applicable
5ac70920a3ba7a0001b4ba8c,<b>I?m pretty sure I?ve accidentally spread false information.,Highly disagree,26/94,Somewhat agree,3,1708007659083,1708007664322,\Somewhat agree\,\Somewhat agree\,\3\,1708007663292,1708007663292,4209,4209,5239,buq,qns-item-noham,26,165067,0.0-1.0-0.25,65ce202c5c88af7bddb963ca,AWAITING REVIEW,2024-02-15T14:31:17.765000Z,2024-02-15T14:41:16.023000Z,,2024-02-15T14:41:16.612062Z,599.0,CVPIIDEI,128,38,Male,Mixed,United States,United States,United States,English,Yes,DATA_EXPIRED,Not Applicable
5ac70920a3ba7a0001b4ba8c,"<b>If I go to my favorite restaurant and the food is unexpectedly bad, then they have changed owners.",Highly disagree,27/94,Highly disagree,1,1708007664323,1708007673732,\Highly disagree\,\Highly disagree\,\1\,1708007673059,1708007673059,8736,8736,9409,buq,qns-item-noham,27,174477,0.0-1.0-0.26,65ce202c5c88af7bddb963ca,AWAITING REVIEW,2024-02-15T14:31:17.765000Z,2024-02-15T14:41:16.023000Z,,2024-02-15T14:41:16.612062Z,599.0,CVPIIDEI,128,38,Male,Mixed,United States,United States,United States,English,Yes,DATA_EXPIRED,Not Applicable
5ac70920a3ba7a0001b4ba8c,"<b>In politics, it?s important to trust your friends and family.",Highly disagree,28/94,Highly disagree,1,1708007673733,1708007680615,\Highly disagree\,\Highly disagree\,\1\,1708007678815,1708007678815,5082,5082,6882,buq,qns-item-noham,28,181360,0.0-1.0-0.27,65ce202c5c88af7bddb963ca,AWAITING REVIEW,2024-02-15T14:31:17.765000Z,2024-02-15T14:41:16.023000Z,,2024-02-15T14:41:16.612062Z,599.0,CVPIIDEI,128,38,Male,Mixed,United States,United States,United States,English,Yes,DATA_EXPIRED,Not Applicable
5ac70920a3ba7a0001b4ba8c,<b>It?s OK to have some conflicting beliefs.,Highly disagree,29/94,Highly agree,4,1708007680616,1708007683797,\Highly agree\,\Highly agree\,\4\,1708007682934,1708007682934,2318,2318,3181,buq,qns-item-noham,29,184542,0.0-1.0-0.28,65ce202c5c88af7bddb963ca,AWAITING REVIEW,2024-02-15T14:31:17.765000Z,2024-02-15T14:41:16.023000Z,,2024-02-15T14:41:16.612062Z,599.0,CVPIIDEI,128,38,Male,Mixed,United States,United States,United States,English,Yes,DATA_EXPIRED,Not Applicable
5ac70920a3ba7a0001b4ba8c,<b>Listening to people I disagree with makes my opinions better.,Highly disagree,30/94,Highly agree,4,1708007683797,1708007687519,\Highly agree\,\Highly agree\,\4\,1708007686823,1708007686823,3026,3026,3722,buq,qns-item-noham,30,188264,0.0-1.0-0.29,65ce202c5c88af7bddb963ca,AWAITING REVIEW,2024-02-15T14:31:17.765000Z,2024-02-15T14:41:16.023000Z,,2024-02-15T14:41:16.612062Z,599.0,CVPIIDEI,128,38,Male,Mixed,United States,United States,United States,English,Yes,DATA_EXPIRED,Not Applicable
5ac70920a3ba7a0001b4ba8c,<b>My moral compass sometimes makes it harder to determine what?s true.,Highly disagree,31/94,Somewhat disagree,2,1708007687520,1708007692343,\Somewhat disagree\,\Somewhat disagree\,\2\,1708007691509,1708007691509,3989,3989,4823,buq,qns-item-noham,31,193088,0.0-1.0-0.30,65ce202c5c88af7bddb963ca,AWAITING REVIEW,2024-02-15T14:31:17.765000Z,2024-02-15T14:41:16.023000Z,,2024-02-15T14:41:16.612062Z,599.0,CVPIIDEI,128,38,Male,Mixed,United States,United States,United States,English,Yes,DATA_EXPIRED,Not Applicable
5ac70920a3ba7a0001b4ba8c,<b>Evidence pointing in the wrong direction isn?t really evidence at all.,Highly disagree,32/94,Highly disagree,1,1708007692343,1708007696253,\Highly disagree\,\Highly disagree\,\1\,1708007695571,1708007695571,3228,3228,3910,buq,qns-item-noham,32,196998,0.0-1.0-0.31,65ce202c5c88af7bddb963ca,AWAITING REVIEW,2024-02-15T14:31:17.765000Z,2024-02-15T14:41:16.023000Z,,2024-02-15T14:41:16.612062Z,599.0,CVPIIDEI,128,38,Male,Mixed,United States,United States,United States,English,Yes,DATA_EXPIRED,Not Applicable
5ac70920a3ba7a0001b4ba8c,"<b>If the political party I support messes up, it makes me think politics is rotten.",Highly disagree,33/94,Somewhat disagree,2,1708007696254,1708007704113,\Somewhat disagree\,\Somewhat disagree\,\2\,1708007703471,1708007703471,7217,7217,7859,buq,qns-item-noham,33,204859,0.0-1.0-0.32,65ce202c5c88af7bddb963ca,AWAITING REVIEW,2024-02-15T14:31:17.765000Z,2024-02-15T14:41:16.023000Z,,2024-02-15T14:41:16.612062Z,599.0,CVPIIDEI,128,38,Male,Mixed,United States,United States,United States,English,Yes,DATA_EXPIRED,Not Applicable
5ac70920a3ba7a0001b4ba8c,<b>Lots of important topics can only really be understood by some groups of people.,Highly disagree,34/94,Somewhat agree,3,1708007704114,1708007712734,\Somewhat agree\,\Somewhat agree\,\3\,1708007712093,1708007712093,7979,7979,8620,buq,qns-item-noham,34,213479,0.0-1.0-0.33,65ce202c5c88af7bddb963ca,AWAITING REVIEW,2024-02-15T14:31:17.765000Z,2024-02-15T14:41:16.023000Z,,2024-02-15T14:41:16.612062Z,599.0,CVPIIDEI,128,38,Male,Mixed,United States,United States,United States,English,Yes,DATA_EXPIRED,Not Applicable
5ac70920a3ba7a0001b4ba8c,<b>Having conflicting beliefs means you haven?t thought about them enough.,Highly disagree,35/94,Somewhat disagree,2,1708007712734,1708007717779,\Somewhat disagree\,\Somewhat disagree\,\2\,1708007717072,1708007717072,4338,4338,5045,buq,qns-item-noham,35,218524,0.0-1.0-0.34,65ce202c5c88af7bddb963ca,AWAITING REVIEW,2024-02-15T14:31:17.765000Z,2024-02-15T14:41:16.023000Z,,2024-02-15T14:41:16.612062Z,599.0,CVPIIDEI,128,38,Male,Mixed,United States,United States,United States,English,Yes,DATA_EXPIRED,Not Applicable
5ac70920a3ba7a0001b4ba8c,<b>I do not often change my political opinions.,Highly disagree,36/94,Somewhat agree,3,1708007717780,1708007721515,\Somewhat agree\,\Somewhat agree\,\3\,1708007720821,1708007720821,3041,3041,3735,buq,qns-item-noham,36,222260,0.0-1.0-0.35,65ce202c5c88af7bddb963ca,AWAITING REVIEW,2024-02-15T14:31:17.765000Z,2024-02-15T14:41:16.023000Z,,2024-02-15T14:41:16.612062Z,599.0,CVPIIDEI,128,38,Male,Mixed,United States,United States,United States,English,Yes,DATA_EXPIRED,Not Applicable
5ac70920a3ba7a0001b4ba8c,<b>It?s difficult to not have at least some conflicting beliefs.,Highly disagree,37/94,Highly agree,4,1708007721516,1708007726595,\Highly agree\,\Highly agree\,\4\,1708007726010,1708007726010,4494,4494,5079,buq,qns-item-noham,37,227340,0.0-1.0-0.36,65ce202c5c88af7bddb963ca,AWAITING REVIEW,2024-02-15T14:31:17.765000Z,2024-02-15T14:41:16.023000Z,,2024-02-15T14:41:16.612062Z,599.0,CVPIIDEI,128,38,Male,Mixed,United States,United States,United States,English,Yes,DATA_EXPIRED,Not Applicable
5ac70920a3ba7a0001b4ba8c,<b>Wishful thinking causes a lot of problems.,Highly disagree,38/94,Highly disagree,1,1708007726596,1708007730284,\Highly disagree\,\Highly disagree\,\1\,1708007729370,1708007729370,2774,2774,3688,buq,qns-item-noham,38,231029,0.0-1.0-0.37,65ce202c5c88af7bddb963ca,AWAITING REVIEW,2024-02-15T14:31:17.765000Z,2024-02-15T14:41:16.023000Z,,2024-02-15T14:41:16.612062Z,599.0,CVPIIDEI,128,38,Male,Mixed,United States,United States,United States,English,Yes,DATA_EXPIRED,Not Applicable
5ac70920a3ba7a0001b4ba8c,<b>I judge a food item only once I try it many times.,Highly disagree,39/94,Highly disagree,1,1708007730284,1708007735915,\Highly disagree\,\Highly disagree\,\1\,1708007735117,1708007735117,4833,4833,5631,buq,qns-item-noham,39,236660,0.0-1.0-0.38,65ce202c5c88af7bddb963ca,AWAITING REVIEW,2024-02-15T14:31:17.765000Z,2024-02-15T14:41:16.023000Z,,2024-02-15T14:41:16.612062Z,599.0,CVPIIDEI,128,38,Male,Mixed,United States,United States,United States,English,Yes,DATA_EXPIRED,Not Applicable
5ac70920a3ba7a0001b4ba8c,"<b>When a person holds conflicting beliefs, they should really try to figure out what?s wrong.",Highly disagree,40/94,Somewhat disagree,2,1708007735916,1708007742213,\Somewhat disagree\,\Somewhat disagree\,\2\,1708007741287,1708007741287,5371,5371,6297,buq,qns-item-noham,40,242958,0.0-1.0-0.39,65ce202c5c88af7bddb963ca,AWAITING REVIEW,2024-02-15T14:31:17.765000Z,2024-02-15T14:41:16.023000Z,,2024-02-15T14:41:16.612062Z,599.0,CVPIIDEI,128,38,Male,Mixed,United States,United States,United States,English,Yes,DATA_EXPIRED,Not Applicable
5ac70920a3ba7a0001b4ba8c,<b>Knowing what?s important in life is easy.,Highly disagree,41/94,Highly disagree,1,1708007742213,1708007748291,\Highly disagree\,\Highly disagree\,\1\,1708007745601,1708007745601,3388,3388,6078,buq,qns-item-noham,41,249036,0.0-1.0-0.40,65ce202c5c88af7bddb963ca,AWAITING REVIEW,2024-02-15T14:31:17.765000Z,2024-02-15T14:41:16.023000Z,,2024-02-15T14:41:16.612062Z,599.0,CVPIIDEI,128,38,Male,Mixed,United States,United States,United States,English,Yes,DATA_EXPIRED,Not Applicable
5ac70920a3ba7a0001b4ba8c,<b>I swim across the Atlantic Ocean to get to work every day.,Highly disagree,42/94,Highly disagree,1,1708007748291,1708007756306,\Highly disagree\,\Highly disagree\,\1\,1708007752308,1708007752308,4017,4017,8015,buq,qns-item-noham,42,257051,0.0-1.0-0.41,65ce202c5c88af7bddb963ca,AWAITING REVIEW,2024-02-15T14:31:17.765000Z,2024-02-15T14:41:16.023000Z,,2024-02-15T14:41:16.612062Z,599.0,CVPIIDEI,128,38,Male,Mixed,United States,United States,United States,English,Yes,DATA_EXPIRED,Not Applicable
5ac70920a3ba7a0001b4ba8c,"<b>Sometimes, you just have to ignore evidence that you know is wrong.",Highly disagree,43/94,Somewhat disagree,2,1708007756307,1708007769206,\Somewhat agree\,\Somewhat disagree\,\3\,1708007763383,1708007767746,7076,11439,12899,buq,qns-item-noham,43,269951,0.0-1.0-0.42,65ce202c5c88af7bddb963ca,AWAITING REVIEW,2024-02-15T14:31:17.765000Z,2024-02-15T14:41:16.023000Z,,2024-02-15T14:41:16.612062Z,599.0,CVPIIDEI,128,38,Male,Mixed,United States,United States,United States,English,Yes,DATA_EXPIRED,Not Applicable
5ac70920a3ba7a0001b4ba8c,<b>I have had some false beliefs.,Highly disagree,44/94,Somewhat agree,3,1708007769206,1708007773714,\Somewhat agree\,\Somewhat agree\,\3\,1708007772811,1708007772811,3605,3605,4508,buq,qns-item-noham,44,274459,0.0-1.0-0.43,65ce202c5c88af7bddb963ca,AWAITING REVIEW,2024-02-15T14:31:17.765000Z,2024-02-15T14:41:16.023000Z,,2024-02-15T14:41:16.612062Z,599.0,CVPIIDEI,128,38,Male,Mixed,United States,United States,United States,English,Yes,DATA_EXPIRED,Not Applicable
5ac70920a3ba7a0001b4ba8c,"<b>If one friend does something that upsets me, I sometimes start to distrust people in general.",Highly disagree,45/94,Somewhat agree,3,1708007773714,1708007779430,\Somewhat agree\,\Somewhat agree\,\3\,1708007778859,1708007778859,5145,5145,5716,buq,qns-item-noham,45,280175,0.0-1.0-0.44,65ce202c5c88af7bddb963ca,AWAITING REVIEW,2024-02-15T14:31:17.765000Z,2024-02-15T14:41:16.023000Z,,2024-02-15T14:41:16.612062Z,599.0,CVPIIDEI,128,38,Male,Mixed,United States,United States,United States,English,Yes,DATA_EXPIRED,Not Applicable
5ac70920a3ba7a0001b4ba8c,<b>The facts about most important matters are easy to find.,Highly disagree,46/94,Somewhat agree,3,1708007779431,1708007782802,\Somewhat agree\,\Somewhat agree\,\3\,1708007781926,1708007781926,2495,2495,3371,buq,qns-item-noham,46,283547,0.0-1.0-0.45,65ce202c5c88af7bddb963ca,AWAITING REVIEW,2024-02-15T14:31:17.765000Z,2024-02-15T14:41:16.023000Z,,2024-02-15T14:41:16.612062Z,599.0,CVPIIDEI,128,38,Male,Mixed,United States,United States,United States,English,Yes,DATA_EXPIRED,Not Applicable
5ac70920a3ba7a0001b4ba8c,<b>It?s better to know what?s true than to know what?s moral.,Highly disagree,47/94,Somewhat agree,3,1708007782803,1708007789080,\Somewhat agree\,\Somewhat agree\,\3\,1708007788359,1708007788359,5556,5556,6277,buq,qns-item-noham,47,289825,0.0-1.0-0.46,65ce202c5c88af7bddb963ca,AWAITING REVIEW,2024-02-15T14:31:17.765000Z,2024-02-15T14:41:16.023000Z,,2024-02-15T14:41:16.612062Z,599.0,CVPIIDEI,128,38,Male,Mixed,United States,United States,United States,English,Yes,DATA_EXPIRED,Not Applicable
5ac70920a3ba7a0001b4ba8c,<b>I used to think the world was less complicated than I do now.,Highly disagree,48/94,Highly agree,4,1708007789081,1708007794801,\Highly agree\,\Highly agree\,\4\,1708007793157,1708007793157,4076,4076,5720,buq,qns-item-noham,48,295546,0.0-1.0-0.47,65ce202c5c88af7bddb963ca,AWAITING REVIEW,2024-02-15T14:31:17.765000Z,2024-02-15T14:41:16.023000Z,,2024-02-15T14:41:16.612062Z,599.0,CVPIIDEI,128,38,Male,Mixed,United States,United States,United States,English,Yes,DATA_EXPIRED,Not Applicable
5ac70920a3ba7a0001b4ba8c,<b>People are usually completely right or completely wrong.,Highly disagree,49/94,Highly disagree,1,1708007794802,1708007799248,\Highly disagree\,\Highly disagree\,\1\,1708007798620,1708007798620,3818,3818,4446,buq,qns-item-noham,49,299993,0.0-1.0-0.48,65ce202c5c88af7bddb963ca,AWAITING REVIEW,2024-02-15T14:31:17.765000Z,2024-02-15T14:41:16.023000Z,,2024-02-15T14:41:16.612062Z,599.0,CVPIIDEI,128,38,Male,Mixed,United States,United States,United States,English,Yes,DATA_EXPIRED,Not Applicable
5ac70920a3ba7a0001b4ba8c,<b>I spend a lot of time considering alternatives to my beliefs.,Highly disagree,50/94,Somewhat disagree,2,1708007799249,1708007803802,\Somewhat disagree\,\Somewhat disagree\,\2\,1708007803071,1708007803071,3822,3822,4553,buq,qns-item-noham,50,304547,0.0-1.0-0.49,65ce202c5c88af7bddb963ca,AWAITING REVIEW,2024-02-15T14:31:17.765000Z,2024-02-15T14:41:16.023000Z,,2024-02-15T14:41:16.612062Z,599.0,CVPIIDEI,128,38,Male,Mixed,United States,United States,United States,English,Yes,DATA_EXPIRED,Not Applicable
5ac70920a3ba7a0001b4ba8c,"<b>Political enemies need to be defeated, not convinced.",Highly disagree,51/94,Highly disagree,1,1708007803803,1708007808687,\Highly disagree\,\Highly disagree\,\1\,1708007807982,1708007807982,4179,4179,4884,buq,qns-item-noham,51,309432,0.0-1.0-0.50,65ce202c5c88af7bddb963ca,AWAITING REVIEW,2024-02-15T14:31:17.765000Z,2024-02-15T14:41:16.023000Z,,2024-02-15T14:41:16.612062Z,599.0,CVPIIDEI,128,38,Male,Mixed,United States,United States,United States,English,Yes,DATA_EXPIRED,Not Applicable
5ac70920a3ba7a0001b4ba8c,<b>I form my political views only after meticulously gathering historical and present information about their policies.,Highly disagree,52/94,Highly agree,4,1708007808687,1708007814466,\Highly agree\,\Highly agree\,\4\,1708007813188,1708007813188,4501,4501,5779,buq,qns-item-noham,52,315211,0.0-1.0-0.51,65ce202c5c88af7bddb963ca,AWAITING REVIEW,2024-02-15T14:31:17.765000Z,2024-02-15T14:41:16.023000Z,,2024-02-15T14:41:16.612062Z,599.0,CVPIIDEI,128,38,Male,Mixed,United States,United States,United States,English,Yes,DATA_EXPIRED,Not Applicable
5ac70920a3ba7a0001b4ba8c,<b>It is difficult for me to remember the last time I was surprised by politics.,Highly disagree,53/94,Highly disagree,1,1708007814467,1708007820752,\Highly disagree\,\Highly disagree\,\1\,1708007819901,1708007819901,5434,5434,6285,buq,qns-item-noham,53,321497,0.0-1.0-0.52,65ce202c5c88af7bddb963ca,AWAITING REVIEW,2024-02-15T14:31:17.765000Z,2024-02-15T14:41:16.023000Z,,2024-02-15T14:41:16.612062Z,599.0,CVPIIDEI,128,38,Male,Mixed,United States,United States,United States,English,Yes,DATA_EXPIRED,Not Applicable
5ac70920a3ba7a0001b4ba8c,"<b>When I find out I?m wrong, I think a lot about my related beliefs.",Highly disagree,54/94,Somewhat agree,3,1708007820752,1708007828783,\Somewhat agree\,\Somewhat agree\,\3\,1708007828118,1708007828118,7366,7366,8031,buq,qns-item-noham,54,329528,0.0-1.0-0.53,65ce202c5c88af7bddb963ca,AWAITING REVIEW,2024-02-15T14:31:17.765000Z,2024-02-15T14:41:16.023000Z,,2024-02-15T14:41:16.612062Z,599.0,CVPIIDEI,128,38,Male,Mixed,United States,United States,United States,English,Yes,DATA_EXPIRED,Not Applicable
5ac70920a3ba7a0001b4ba8c,"<b>If the political party I support messes up, it makes me think you can?t trust anyone these days",Highly disagree,55/94,Highly disagree,1,1708007828784,1708007834172,\Highly disagree\,\Highly disagree\,\1\,1708007833222,1708007833222,4438,4438,5388,buq,qns-item-noham,55,334917,0.0-1.0-0.54,65ce202c5c88af7bddb963ca,AWAITING REVIEW,2024-02-15T14:31:17.765000Z,2024-02-15T14:41:16.023000Z,,2024-02-15T14:41:16.612062Z,599.0,CVPIIDEI,128,38,Male,Mixed,United States,United States,United States,English,Yes,DATA_EXPIRED,Not Applicable
5ac70920a3ba7a0001b4ba8c,<b>People?s brains turn off when they talk about politics.,Highly disagree,56/94,Somewhat agree,3,1708007834173,1708007839723,\Somewhat disagree\,\Somewhat agree\,\2\,1708007837269,1708007838323,3096,4150,5550,buq,qns-item-noham,56,340468,0.0-1.0-0.55,65ce202c5c88af7bddb963ca,AWAITING REVIEW,2024-02-15T14:31:17.765000Z,2024-02-15T14:41:16.023000Z,,2024-02-15T14:41:16.612062Z,599.0,CVPIIDEI,128,38,Male,Mixed,United States,United States,United States,English,Yes,DATA_EXPIRED,Not Applicable
5ac70920a3ba7a0001b4ba8c,<b>People who are wrong are usually just ignoring the obvious.,Highly disagree,57/94,Somewhat disagree,2,1708007839724,1708007844769,\Somewhat disagree\,\Somewhat disagree\,\2\,1708007844205,1708007844205,4481,4481,5045,buq,qns-item-noham,57,345514,0.0-1.0-0.56,65ce202c5c88af7bddb963ca,AWAITING REVIEW,2024-02-15T14:31:17.765000Z,2024-02-15T14:41:16.023000Z,,2024-02-15T14:41:16.612062Z,599.0,CVPIIDEI,128,38,Male,Mixed,United States,United States,United States,English,Yes,DATA_EXPIRED,Not Applicable
5ac70920a3ba7a0001b4ba8c,"<b>When forming my views on people, I rely more on what they are like now rather than rely on my past experience with them.",Highly disagree,58/94,Somewhat agree,3,1708007844770,1708007854547,\Somewhat agree\,\Somewhat agree\,\3\,1708007850528,1708007853779,5758,9009,9777,buq,qns-item-noham,58,355292,0.0-1.0-0.57,65ce202c5c88af7bddb963ca,AWAITING REVIEW,2024-02-15T14:31:17.765000Z,2024-02-15T14:41:16.023000Z,,2024-02-15T14:41:16.612062Z,599.0,CVPIIDEI,128,38,Male,Mixed,United States,United States,United States,English,Yes,DATA_EXPIRED,Not Applicable
5ac70920a3ba7a0001b4ba8c,"<b>When people contradict my beliefs, I usually know about their evidence already.",Highly disagree,59/94,Somewhat disagree,2,1708007854548,1708007859104,\Somewhat disagree\,\Somewhat disagree\,\2\,1708007858475,1708007858475,3927,3927,4556,buq,qns-item-noham,59,359849,0.0-1.0-0.58,65ce202c5c88af7bddb963ca,AWAITING REVIEW,2024-02-15T14:31:17.765000Z,2024-02-15T14:41:16.023000Z,,2024-02-15T14:41:16.612062Z,599.0,CVPIIDEI,128,38,Male,Mixed,United States,United States,United States,English,Yes,DATA_EXPIRED,Not Applicable
5ac70920a3ba7a0001b4ba8c,<b>Figuring out what?s true and what?s false mainly requires a strong moral compass.,Highly disagree,60/94,Highly disagree,1,1708007859105,1708007863432,\Highly disagree\,\Highly disagree\,\1\,1708007862823,1708007862823,3718,3718,4327,buq,qns-item-noham,60,364177,0.0-1.0-0.59,65ce202c5c88af7bddb963ca,AWAITING REVIEW,2024-02-15T14:31:17.765000Z,2024-02-15T14:41:16.023000Z,,2024-02-15T14:41:16.612062Z,599.0,CVPIIDEI,128,38,Male,Mixed,United States,United States,United States,English,Yes,DATA_EXPIRED,Not Applicable
5ac70920a3ba7a0001b4ba8c,"<b>Usually I?m wrong about simple things, not complicated ones.",Highly disagree,61/94,Somewhat disagree,2,1708007863433,1708007867287,\Somewhat disagree\,\Somewhat disagree\,\2\,1708007866740,1708007866740,3307,3307,3854,buq,qns-item-noham,61,368032,0.0-1.0-0.60,65ce202c5c88af7bddb963ca,AWAITING REVIEW,2024-02-15T14:31:17.765000Z,2024-02-15T14:41:16.023000Z,,2024-02-15T14:41:16.612062Z,599.0,CVPIIDEI,128,38,Male,Mixed,United States,United States,United States,English,Yes,DATA_EXPIRED,Not Applicable
5ac70920a3ba7a0001b4ba8c,<b>Getting all the information I want about important things is hard.,Highly disagree,62/94,Highly agree,4,1708007867288,1708007873769,\Highly agree\,\Highly agree\,\4\,1708007871292,1708007871292,4004,4004,6481,buq,qns-item-noham,62,374514,0.0-1.0-0.61,65ce202c5c88af7bddb963ca,AWAITING REVIEW,2024-02-15T14:31:17.765000Z,2024-02-15T14:41:16.023000Z,,2024-02-15T14:41:16.612062Z,599.0,CVPIIDEI,128,38,Male,Mixed,United States,United States,United States,English,Yes,DATA_EXPIRED,Not Applicable
5ac70920a3ba7a0001b4ba8c,<b>Most false beliefs spread because people try to deceive one another.,Highly disagree,63/94,Highly agree,4,1708007873770,1708007877984,\Highly agree\,\Highly agree\,\4\,1708007877394,1708007877394,3624,3624,4214,buq,qns-item-noham,63,378729,0.0-1.0-0.62,65ce202c5c88af7bddb963ca,AWAITING REVIEW,2024-02-15T14:31:17.765000Z,2024-02-15T14:41:16.023000Z,,2024-02-15T14:41:16.612062Z,599.0,CVPIIDEI,128,38,Male,Mixed,United States,United States,United States,English,Yes,DATA_EXPIRED,Not Applicable
5ac70920a3ba7a0001b4ba8c,<b>I can usually find something to agree with in most people?s beliefs.,Highly disagree,64/94,Highly agree,4,1708007877984,1708007884308,\Somewhat agree\,\Highly agree\,\3\,1708007880984,1708007883162,3000,5178,6324,buq,qns-item-noham,64,385053,0.0-1.0-0.63,65ce202c5c88af7bddb963ca,AWAITING REVIEW,2024-02-15T14:31:17.765000Z,2024-02-15T14:41:16.023000Z,,2024-02-15T14:41:16.612062Z,599.0,CVPIIDEI,128,38,Male,Mixed,United States,United States,United States,English,Yes,DATA_EXPIRED,Not Applicable
5ac70920a3ba7a0001b4ba8c,<b>I only form my views of people once I get to know them very well.,Highly disagree,65/94,Somewhat agree,3,1708007884309,1708007889772,\Somewhat agree\,\Somewhat agree\,\3\,1708007889187,1708007889187,4878,4878,5463,buq,qns-item-noham,65,390517,0.0-1.0-0.64,65ce202c5c88af7bddb963ca,AWAITING REVIEW,2024-02-15T14:31:17.765000Z,2024-02-15T14:41:16.023000Z,,2024-02-15T14:41:16.612062Z,599.0,CVPIIDEI,128,38,Male,Mixed,United States,United States,United States,English,Yes,DATA_EXPIRED,Not Applicable
5ac70920a3ba7a0001b4ba8c,"<b>When people tell me important things about the world, I usually believe them.",Highly disagree,66/94,Somewhat agree,3,1708007889773,1708007893517,\Somewhat agree\,\Somewhat agree\,\3\,1708007892749,1708007892749,2976,2976,3744,buq,qns-item-noham,66,394262,0.0-1.0-0.65,65ce202c5c88af7bddb963ca,AWAITING REVIEW,2024-02-15T14:31:17.765000Z,2024-02-15T14:41:16.023000Z,,2024-02-15T14:41:16.612062Z,599.0,CVPIIDEI,128,38,Male,Mixed,United States,United States,United States,English,Yes,DATA_EXPIRED,Not Applicable
5ac70920a3ba7a0001b4ba8c,"<b>If a friend does something that upsets me, it reminds me what an unpredictable place the world is.",Highly disagree,67/94,Somewhat agree,3,1708007893517,1708007898289,\Somewhat agree\,\Somewhat agree\,\3\,1708007897612,1708007897612,4095,4095,4772,buq,qns-item-noham,67,399034,0.0-1.0-0.66,65ce202c5c88af7bddb963ca,AWAITING REVIEW,2024-02-15T14:31:17.765000Z,2024-02-15T14:41:16.023000Z,,2024-02-15T14:41:16.612062Z,599.0,CVPIIDEI,128,38,Male,Mixed,United States,United States,United States,English,Yes,DATA_EXPIRED,Not Applicable
5ac70920a3ba7a0001b4ba8c,<b>People tend to believe whatever is good for their friends.,Highly disagree,68/94,Somewhat disagree,2,1708007898290,1708007901737,\Somewhat disagree\,\Somewhat disagree\,\2\,1708007901013,1708007901013,2723,2723,3447,buq,qns-item-noham,68,402482,0.0-1.0-0.67,65ce202c5c88af7bddb963ca,AWAITING REVIEW,2024-02-15T14:31:17.765000Z,2024-02-15T14:41:16.023000Z,,2024-02-15T14:41:16.612062Z,599.0,CVPIIDEI,128,38,Male,Mixed,United States,United States,United States,English,Yes,DATA_EXPIRED,Not Applicable
5ac70920a3ba7a0001b4ba8c,<b>I used to be more certain my beliefs were true.,Highly disagree,69/94,Highly agree,4,1708007901738,1708007905456,\Highly agree\,\Highly agree\,\4\,1708007904855,1708007904855,3117,3117,3718,buq,qns-item-noham,69,406201,0.0-1.0-0.68,65ce202c5c88af7bddb963ca,AWAITING REVIEW,2024-02-15T14:31:17.765000Z,2024-02-15T14:41:16.023000Z,,2024-02-15T14:41:16.612062Z,599.0,CVPIIDEI,128,38,Male,Mixed,United States,United States,United States,English,Yes,DATA_EXPIRED,Not Applicable
5ac70920a3ba7a0001b4ba8c,<b>It?s often pretty easy to figure out whether something is true based on who said it.,Highly disagree,70/94,Highly disagree,1,1708007905457,1708007912545,\Highly disagree\,\Highly disagree\,\1\,1708007911748,1708007911748,6291,6291,7088,buq,qns-item-noham,70,413290,0.0-1.0-0.69,65ce202c5c88af7bddb963ca,AWAITING REVIEW,2024-02-15T14:31:17.765000Z,2024-02-15T14:41:16.023000Z,,2024-02-15T14:41:16.612062Z,599.0,CVPIIDEI,128,38,Male,Mixed,United States,United States,United States,English,Yes,DATA_EXPIRED,Not Applicable
5ac70920a3ba7a0001b4ba8c,<b>I transform into a hummingbird every day.,Highly disagree,71/94,Highly disagree,1,1708007912546,1708007916501,\Highly disagree\,\Highly disagree\,\1\,1708007914960,1708007914960,2414,2414,3955,buq,qns-item-noham,71,417246,0.0-1.0-0.70,65ce202c5c88af7bddb963ca,AWAITING REVIEW,2024-02-15T14:31:17.765000Z,2024-02-15T14:41:16.023000Z,,2024-02-15T14:41:16.612062Z,599.0,CVPIIDEI,128,38,Male,Mixed,United States,United States,United States,English,Yes,DATA_EXPIRED,Not Applicable
5ac70920a3ba7a0001b4ba8c,<b>I think a lot about arguments against my views.,Highly disagree,72/94,Somewhat agree,3,1708007916502,1708007923535,\Somewhat agree\,\Somewhat agree\,\3\,1708007922857,1708007922857,6355,6355,7033,buq,qns-item-noham,72,424280,0.0-1.0-0.71,65ce202c5c88af7bddb963ca,AWAITING REVIEW,2024-02-15T14:31:17.765000Z,2024-02-15T14:41:16.023000Z,,2024-02-15T14:41:16.612062Z,599.0,CVPIIDEI,128,38,Male,Mixed,United States,United States,United States,English,Yes,DATA_EXPIRED,Not Applicable
5ac70920a3ba7a0001b4ba8c,<b>Personal experience is usually more important than facts and figures.,Highly disagree,73/94,Highly agree,4,1708007923536,1708007928112,\Highly agree\,\Highly agree\,\4\,1708007927293,1708007927293,3757,3757,4576,buq,qns-item-noham,73,428857,0.0-1.0-0.72,65ce202c5c88af7bddb963ca,AWAITING REVIEW,2024-02-15T14:31:17.765000Z,2024-02-15T14:41:16.023000Z,,2024-02-15T14:41:16.612062Z,599.0,CVPIIDEI,128,38,Male,Mixed,United States,United States,United States,English,Yes,DATA_EXPIRED,Not Applicable
5ac70920a3ba7a0001b4ba8c,<b>I?ve been tricked before about important matters.,Highly disagree,74/94,Somewhat agree,3,1708007928113,1708007932261,\Somewhat agree\,\Somewhat agree\,\3\,1708007931186,1708007931186,3073,3073,4148,buq,qns-item-noham,74,433006,0.0-1.0-0.73,65ce202c5c88af7bddb963ca,AWAITING REVIEW,2024-02-15T14:31:17.765000Z,2024-02-15T14:41:16.023000Z,,2024-02-15T14:41:16.612062Z,599.0,CVPIIDEI,128,38,Male,Mixed,United States,United States,United States,English,Yes,DATA_EXPIRED,Not Applicable
5ac70920a3ba7a0001b4ba8c,<b>I would need to be totally wowed if I were to change my opinion of a restaurant I don?t like.,Highly disagree,75/94,Highly agree,4,1708007932262,1708007942975,\Highly agree\,\Highly agree\,\4\,1708007942067,1708007942067,9805,9805,10713,buq,qns-item-noham,75,443720,0.0-1.0-0.74,65ce202c5c88af7bddb963ca,AWAITING REVIEW,2024-02-15T14:31:17.765000Z,2024-02-15T14:41:16.023000Z,,2024-02-15T14:41:16.612062Z,599.0,CVPIIDEI,128,38,Male,Mixed,United States,United States,United States,English,Yes,DATA_EXPIRED,Not Applicable
5ac70920a3ba7a0001b4ba8c,<b>I care a lot about politics.,Highly disagree,76/94,Somewhat agree,3,1708007942975,1708007946243,\Somewhat agree\,\Somewhat agree\,\3\,1708007944954,1708007944954,1979,1979,3268,buq,qns-item-noham,76,446988,0.0-1.0-0.75,65ce202c5c88af7bddb963ca,AWAITING REVIEW,2024-02-15T14:31:17.765000Z,2024-02-15T14:41:16.023000Z,,2024-02-15T14:41:16.612062Z,599.0,CVPIIDEI,128,38,Male,Mixed,United States,United States,United States,English,Yes,DATA_EXPIRED,Not Applicable
5ac70920a3ba7a0001b4ba8c,<b>There are some topics I?ve been really wrong about.,Highly disagree,77/94,Highly agree,4,1708007946244,1708007949499,\Highly agree\,\Highly agree\,\4\,1708007948953,1708007948953,2709,2709,3255,buq,qns-item-noham,77,450244,0.0-1.0-0.76,65ce202c5c88af7bddb963ca,AWAITING REVIEW,2024-02-15T14:31:17.765000Z,2024-02-15T14:41:16.023000Z,,2024-02-15T14:41:16.612062Z,599.0,CVPIIDEI,128,38,Male,Mixed,United States,United States,United States,English,Yes,DATA_EXPIRED,Not Applicable
5ac70920a3ba7a0001b4ba8c,<b>Most beliefs can be supported with at least some evidence.,Highly disagree,78/94,Somewhat agree,3,1708007949499,1708007953155,\Somewhat agree\,\Somewhat agree\,\3\,1708007952664,1708007952664,3165,3165,3656,buq,qns-item-noham,78,453900,0.0-1.0-0.77,65ce202c5c88af7bddb963ca,AWAITING REVIEW,2024-02-15T14:31:17.765000Z,2024-02-15T14:41:16.023000Z,,2024-02-15T14:41:16.612062Z,599.0,CVPIIDEI,128,38,Male,Mixed,United States,United States,United States,English,Yes,DATA_EXPIRED,Not Applicable
5ac70920a3ba7a0001b4ba8c,<b>Other people make life out to be more complicated than it really is.,Highly disagree,79/94,Highly agree,4,1708007953156,1708007958256,\Highly agree\,\Highly agree\,\4\,1708007957532,1708007957532,4376,4376,5100,buq,qns-item-noham,79,459001,0.0-1.0-0.78,65ce202c5c88af7bddb963ca,AWAITING REVIEW,2024-02-15T14:31:17.765000Z,2024-02-15T14:41:16.023000Z,,2024-02-15T14:41:16.612062Z,599.0,CVPIIDEI,128,38,Male,Mixed,United States,United States,United States,English,Yes,DATA_EXPIRED,Not Applicable
5ac70920a3ba7a0001b4ba8c,"<b>Policy details don?t matter much, just the big picture.",Highly disagree,80/94,Highly disagree,1,1708007958257,1708007963978,\Highly disagree\,\Highly disagree\,\1\,1708007963295,1708007963295,5038,5038,5721,buq,qns-item-noham,80,464723,0.0-1.0-0.79,65ce202c5c88af7bddb963ca,AWAITING REVIEW,2024-02-15T14:31:17.765000Z,2024-02-15T14:41:16.023000Z,,2024-02-15T14:41:16.612062Z,599.0,CVPIIDEI,128,38,Male,Mixed,United States,United States,United States,English,Yes,DATA_EXPIRED,Not Applicable
5ac70920a3ba7a0001b4ba8c,<b>I know my friends so well they can hardly ever surprise me.,Highly disagree,81/94,Highly disagree,1,1708007963979,1708007969578,\Highly disagree\,\Highly disagree\,\1\,1708007968986,1708007968986,5007,5007,5599,buq,qns-item-noham,81,470323,0.0-1.0-0.80,65ce202c5c88af7bddb963ca,AWAITING REVIEW,2024-02-15T14:31:17.765000Z,2024-02-15T14:41:16.023000Z,,2024-02-15T14:41:16.612062Z,599.0,CVPIIDEI,128,38,Male,Mixed,United States,United States,United States,English,Yes,DATA_EXPIRED,Not Applicable
5ac70920a3ba7a0001b4ba8c,<b>I do not often change my views on people.,Highly disagree,82/94,Highly disagree,1,1708007969579,1708007973329,\Highly disagree\,\Highly disagree\,\1\,1708007972422,1708007972422,2843,2843,3750,buq,qns-item-noham,82,474074,0.0-1.0-0.81,65ce202c5c88af7bddb963ca,AWAITING REVIEW,2024-02-15T14:31:17.765000Z,2024-02-15T14:41:16.023000Z,,2024-02-15T14:41:16.612062Z,599.0,CVPIIDEI,128,38,Male,Mixed,United States,United States,United States,English,Yes,DATA_EXPIRED,Not Applicable
5ac70920a3ba7a0001b4ba8c,<b>I?m more certain about my beliefs than I used to be.,Highly disagree,83/94,Somewhat agree,3,1708007973330,1708007977995,\Somewhat agree\,\Somewhat agree\,\3\,1708007977416,1708007977416,4086,4086,4665,buq,qns-item-noham,83,478740,0.0-1.0-0.82,65ce202c5c88af7bddb963ca,AWAITING REVIEW,2024-02-15T14:31:17.765000Z,2024-02-15T14:41:16.023000Z,,2024-02-15T14:41:16.612062Z,599.0,CVPIIDEI,128,38,Male,Mixed,United States,United States,United States,English,Yes,DATA_EXPIRED,Not Applicable
5ac70920a3ba7a0001b4ba8c,<b>People often tell falsehoods unintentionally.,Highly disagree,84/94,Somewhat agree,3,1708007977995,1708007981258,\Somewhat agree\,\Somewhat agree\,\3\,1708007980657,1708007980657,2662,2662,3263,buq,qns-item-noham,84,482003,0.0-1.0-0.83,65ce202c5c88af7bddb963ca,AWAITING REVIEW,2024-02-15T14:31:17.765000Z,2024-02-15T14:41:16.023000Z,,2024-02-15T14:41:16.612062Z,599.0,CVPIIDEI,128,38,Male,Mixed,United States,United States,United States,English,Yes,DATA_EXPIRED,Not Applicable
5ac70920a3ba7a0001b4ba8c,<b>Most people don?t know much about most things.,Highly disagree,85/94,Highly disagree,1,1708007981259,1708007986468,\Somewhat disagree\,\Highly disagree\,\2\,1708007983949,1708007985648,2690,4389,5209,buq,qns-item-noham,85,487213,0.0-1.0-0.84,65ce202c5c88af7bddb963ca,AWAITING REVIEW,2024-02-15T14:31:17.765000Z,2024-02-15T14:41:16.023000Z,,2024-02-15T14:41:16.612062Z,599.0,CVPIIDEI,128,38,Male,Mixed,United States,United States,United States,English,Yes,DATA_EXPIRED,Not Applicable
5ac70920a3ba7a0001b4ba8c,"<b>If I find out something new about someone, I easily change my views about them.",Highly disagree,86/94,Somewhat agree,3,1708007986468,1708007992044,\Somewhat agree\,\Somewhat agree\,\3\,1708007991039,1708007991039,4571,4571,5576,buq,qns-item-noham,86,492789,0.0-1.0-0.85,65ce202c5c88af7bddb963ca,AWAITING REVIEW,2024-02-15T14:31:17.765000Z,2024-02-15T14:41:16.023000Z,,2024-02-15T14:41:16.612062Z,599.0,CVPIIDEI,128,38,Male,Mixed,United States,United States,United States,English,Yes,DATA_EXPIRED,Not Applicable
5ac70920a3ba7a0001b4ba8c,<b>Having true beliefs is difficult.,Highly disagree,87/94,Highly agree,4,1708007992045,1708007994731,\Highly agree\,\Highly agree\,\4\,1708007994048,1708007994048,2003,2003,2686,buq,qns-item-noham,87,495476,0.0-1.0-0.86,65ce202c5c88af7bddb963ca,AWAITING REVIEW,2024-02-15T14:31:17.765000Z,2024-02-15T14:41:16.023000Z,,2024-02-15T14:41:16.612062Z,599.0,CVPIIDEI,128,38,Male,Mixed,United States,United States,United States,English,Yes,DATA_EXPIRED,Not Applicable
5ac70920a3ba7a0001b4ba8c,<b>I don?t try new foods since I know I won?t like them.,Highly disagree,88/94,Highly disagree,1,1708007994732,1708007998182,\Highly disagree\,\Highly disagree\,\1\,1708007997676,1708007997676,2944,2944,3450,buq,qns-item-noham,88,498927,0.0-1.0-0.87,65ce202c5c88af7bddb963ca,AWAITING REVIEW,2024-02-15T14:31:17.765000Z,2024-02-15T14:41:16.023000Z,,2024-02-15T14:41:16.612062Z,599.0,CVPIIDEI,128,38,Male,Mixed,United States,United States,United States,English,Yes,DATA_EXPIRED,Not Applicable
5ac70920a3ba7a0001b4ba8c,<b>Other people trick each other a lot.,Highly disagree,89/94,Somewhat agree,3,1708007998183,1708008004127,\Somewhat agree\,\Somewhat agree\,\3\,1708008003583,1708008003583,5400,5400,5944,buq,qns-item-noham,89,504872,0.0-1.0-0.88,65ce202c5c88af7bddb963ca,AWAITING REVIEW,2024-02-15T14:31:17.765000Z,2024-02-15T14:41:16.023000Z,,2024-02-15T14:41:16.612062Z,599.0,CVPIIDEI,128,38,Male,Mixed,United States,United States,United States,English,Yes,DATA_EXPIRED,Not Applicable
5ac70920a3ba7a0001b4ba8c,<b>I would need to learn a lot about a person for my opinion of them to be swayed.,Highly disagree,90/94,Highly agree,4,1708008004128,1708008017318,\Highly agree\,\Highly agree\,\4\,1708008015390,1708008015390,11262,11262,13190,buq,qns-item-noham,90,518063,0.0-1.0-0.89,65ce202c5c88af7bddb963ca,AWAITING REVIEW,2024-02-15T14:31:17.765000Z,2024-02-15T14:41:16.023000Z,,2024-02-15T14:41:16.612062Z,599.0,CVPIIDEI,128,38,Male,Mixed,United States,United States,United States,English,Yes,DATA_EXPIRED,Not Applicable
5ac70920a3ba7a0001b4ba8c,<b>People can?t usually trick me when it comes to topics I care about.,Highly disagree,91/94,Somewhat disagree,2,1708008017319,1708008021251,\Somewhat disagree\,\Somewhat disagree\,\2\,1708008020685,1708008020685,3366,3366,3932,buq,qns-item-noham,91,521996,0.0-1.0-0.90,65ce202c5c88af7bddb963ca,AWAITING REVIEW,2024-02-15T14:31:17.765000Z,2024-02-15T14:41:16.023000Z,,2024-02-15T14:41:16.612062Z,599.0,CVPIIDEI,128,38,Male,Mixed,United States,United States,United States,English,Yes,DATA_EXPIRED,Not Applicable
5ac70920a3ba7a0001b4ba8c,<b>I do not often change my views on food.,Highly disagree,92/94,Highly disagree,1,1708008021252,1708008025816,\Highly disagree\,\Highly disagree\,\1\,1708008024850,1708008024850,3598,3598,4564,buq,qns-item-noham,92,526561,0.0-1.0-0.91,65ce202c5c88af7bddb963ca,AWAITING REVIEW,2024-02-15T14:31:17.765000Z,2024-02-15T14:41:16.023000Z,,2024-02-15T14:41:16.612062Z,599.0,CVPIIDEI,128,38,Male,Mixed,United States,United States,United States,English,Yes,DATA_EXPIRED,Not Applicable
5ac70920a3ba7a0001b4ba8c,<b>Specific policies are often very important to me.,Highly disagree,93/94,Somewhat agree,3,1708008025817,1708008029692,\Somewhat agree\,\Somewhat agree\,\3\,1708008029186,1708008029186,3369,3369,3875,buq,qns-item-noham,93,530437,0.0-1.0-0.92,65ce202c5c88af7bddb963ca,AWAITING REVIEW,2024-02-15T14:31:17.765000Z,2024-02-15T14:41:16.023000Z,,2024-02-15T14:41:16.612062Z,599.0,CVPIIDEI,128,38,Male,Mixed,United States,United States,United States,English,Yes,DATA_EXPIRED,Not Applicable
5ac70920a3ba7a0001b4ba8c,<b>Most people are woefully under-informed.,Highly disagree,94/94,Highly agree,4,1708008029693,1708008032940,\Highly agree\,\Highly agree\,\4\,1708008032057,1708008032057,2364,2364,3247,buq,qns-item-noham,94,533685,0.0-1.0-0.93,65ce202c5c88af7bddb963ca,AWAITING REVIEW,2024-02-15T14:31:17.765000Z,2024-02-15T14:41:16.023000Z,,2024-02-15T14:41:16.612062Z,599.0,CVPIIDEI,128,38,Male,Mixed,United States,United States,United States,English,Yes,DATA_EXPIRED,Not Applicable
5ac70920a3ba7a0001b4ba8c,,,,,,,,,,,,,,,,,,,,,65ce202c5c88af7bddb963ca,AWAITING REVIEW,2024-02-15T14:31:17.765000Z,2024-02-15T14:41:16.023000Z,,2024-02-15T14:41:16.612062Z,599.0,CVPIIDEI,128,38,Male,Mixed,United States,United States,United States,English,Yes,DATA_EXPIRED,Not Applicable
