PROLIFIC_PID,Question,qns_options,quest_num,answer,answer_num,question_load_timestamp,next_btn_timestamp,text_selected,final_text_selected,option_num_selected,preview_timestamps,final_text_selected_time_stamp,rt_first_option_click,rt_final_option_click,rt_submit_click,questionnaire,trial_type,trial_index,time_elapsed,internal_node_id,Demographic_Submission id,Demographic_Status,Demographic_Started at,Demographic_Completed at,Demographic_Reviewed at,Demographic_Archived at,Demographic_Time taken,Demographic_Completion code,Demographic_Total approvals,Demographic_Age,Demographic_Sex,Demographic_Ethnicity simplified,Demographic_Country of birth,Demographic_Country of residence,Demographic_Nationality,Demographic_Language,Demographic_Student status,Demographic_Employment status,Demographic_Custom study tncs accepted at
5dd31760fb7d41000c6610e3,<b>Knowing what?s true and knowing what to do about it are usually basically the same.,Highly disagree,1/94,Somewhat agree,3,1708007604294,1708007614373,\Somewhat agree\,\Somewhat agree\,\3\,1708007613130,1708007613130,8836,8836,10079,buq,qns-item-noham,1,34534,0.0-1.0-0.0,65ce1fff833f57efd0d46f7f,AWAITING REVIEW,2024-02-15T14:30:33.555000Z,2024-02-15T14:42:23.035000Z,,2024-02-15T14:42:23.658273Z,710.0,CVPIIDEI,1816,34,Female,White,United States,United States,United States,English,No,Part-Time,Not Applicable
5dd31760fb7d41000c6610e3,<b>Most people just believe whatever is convenient for them.,Highly disagree,2/94,Somewhat agree,3,1708007614376,1708007618955,\Somewhat agree\,\Somewhat agree\,\3\,1708007617096,1708007617096,2720,2720,4579,buq,qns-item-noham,2,39116,0.0-1.0-0.1,65ce1fff833f57efd0d46f7f,AWAITING REVIEW,2024-02-15T14:30:33.555000Z,2024-02-15T14:42:23.035000Z,,2024-02-15T14:42:23.658273Z,710.0,CVPIIDEI,1816,34,Female,White,United States,United States,United States,English,No,Part-Time,Not Applicable
5dd31760fb7d41000c6610e3,<b>Having some big beliefs helps me sort out minor ones.,Highly disagree,3/94,Highly agree,4,1708007618962,1708007622751,\Highly agree\,\Highly agree\,\4\,1708007622114,1708007622114,3152,3152,3789,buq,qns-item-noham,3,42912,0.0-1.0-0.2,65ce1fff833f57efd0d46f7f,AWAITING REVIEW,2024-02-15T14:30:33.555000Z,2024-02-15T14:42:23.035000Z,,2024-02-15T14:42:23.658273Z,710.0,CVPIIDEI,1816,34,Female,White,United States,United States,United States,English,No,Part-Time,Not Applicable
5dd31760fb7d41000c6610e3,<b>Political questions are usually pretty complicated.,Highly disagree,4/94,Somewhat agree,3,1708007622755,1708007626389,\Somewhat agree\,\Somewhat agree\,\3\,1708007625819,1708007625819,3064,3064,3634,buq,qns-item-noham,4,46550,0.0-1.0-0.3,65ce1fff833f57efd0d46f7f,AWAITING REVIEW,2024-02-15T14:30:33.555000Z,2024-02-15T14:42:23.035000Z,,2024-02-15T14:42:23.658273Z,710.0,CVPIIDEI,1816,34,Female,White,United States,United States,United States,English,No,Part-Time,Not Applicable
5dd31760fb7d41000c6610e3,<b>Figuring out what?s important in life requires learning a lot of facts.,Highly disagree,5/94,Highly agree,4,1708007626391,1708007629800,\Highly agree\,\Highly agree\,\4\,1708007629253,1708007629253,2862,2862,3409,buq,qns-item-noham,5,49961,0.0-1.0-0.4,65ce1fff833f57efd0d46f7f,AWAITING REVIEW,2024-02-15T14:30:33.555000Z,2024-02-15T14:42:23.035000Z,,2024-02-15T14:42:23.658273Z,710.0,CVPIIDEI,1816,34,Female,White,United States,United States,United States,English,No,Part-Time,Not Applicable
5dd31760fb7d41000c6610e3,<b>It is difficult for me to remember the last time I was surprised by politics.,Highly disagree,6/94,Somewhat disagree,2,1708007629803,1708007634107,\Somewhat disagree\,\Somewhat disagree\,\2\,1708007633522,1708007633522,3719,3719,4304,buq,qns-item-noham,6,54268,0.0-1.0-0.5,65ce1fff833f57efd0d46f7f,AWAITING REVIEW,2024-02-15T14:30:33.555000Z,2024-02-15T14:42:23.035000Z,,2024-02-15T14:42:23.658273Z,710.0,CVPIIDEI,1816,34,Female,White,United States,United States,United States,English,No,Part-Time,Not Applicable
5dd31760fb7d41000c6610e3,<b>People?s false beliefs are understandable.,Highly disagree,7/94,Somewhat disagree,2,1708007634110,1708007638286,\Somewhat disagree\,\Somewhat disagree\,\2\,1708007637324,1708007637324,3214,3214,4176,buq,qns-item-noham,7,58447,0.0-1.0-0.6,65ce1fff833f57efd0d46f7f,AWAITING REVIEW,2024-02-15T14:30:33.555000Z,2024-02-15T14:42:23.035000Z,,2024-02-15T14:42:23.658273Z,710.0,CVPIIDEI,1816,34,Female,White,United States,United States,United States,English,No,Part-Time,Not Applicable
5dd31760fb7d41000c6610e3,<b>I spend a lot of time trying to be informed about politics.,Highly disagree,8/94,Somewhat agree,3,1708007638289,1708007641577,\Somewhat agree\,\Somewhat agree\,\3\,1708007641083,1708007641083,2794,2794,3288,buq,qns-item-noham,8,61738,0.0-1.0-0.7,65ce1fff833f57efd0d46f7f,AWAITING REVIEW,2024-02-15T14:30:33.555000Z,2024-02-15T14:42:23.035000Z,,2024-02-15T14:42:23.658273Z,710.0,CVPIIDEI,1816,34,Female,White,United States,United States,United States,English,No,Part-Time,Not Applicable
5dd31760fb7d41000c6610e3,<b>I think a lot about whether my beliefs are right.,Highly disagree,9/94,Somewhat disagree,2,1708007641580,1708007646248,\Somewhat disagree\,\Somewhat disagree\,\2\,1708007645525,1708007645525,3945,3945,4668,buq,qns-item-noham,9,66409,0.0-1.0-0.8,65ce1fff833f57efd0d46f7f,AWAITING REVIEW,2024-02-15T14:30:33.555000Z,2024-02-15T14:42:23.035000Z,,2024-02-15T14:42:23.658273Z,710.0,CVPIIDEI,1816,34,Female,White,United States,United States,United States,English,No,Part-Time,Not Applicable
5dd31760fb7d41000c6610e3,<b>Statistics can be pretty misleading sometimes.,Highly disagree,10/94,Somewhat disagree,2,1708007646250,1708007649745,\Somewhat disagree\,\Somewhat disagree\,\2\,1708007649130,1708007649130,2880,2880,3495,buq,qns-item-noham,10,69906,0.0-1.0-0.9,65ce1fff833f57efd0d46f7f,AWAITING REVIEW,2024-02-15T14:30:33.555000Z,2024-02-15T14:42:23.035000Z,,2024-02-15T14:42:23.658273Z,710.0,CVPIIDEI,1816,34,Female,White,United States,United States,United States,English,No,Part-Time,Not Applicable
5dd31760fb7d41000c6610e3,<b>I have lots of beliefs that I?m only sort of sure about.,Highly disagree,11/94,Somewhat disagree,2,1708007649747,1708007656867,\Somewhat disagree\,\Somewhat disagree\,\2\,1708007656342,1708007656342,6595,6595,7120,buq,qns-item-noham,11,77028,0.0-1.0-0.10,65ce1fff833f57efd0d46f7f,AWAITING REVIEW,2024-02-15T14:30:33.555000Z,2024-02-15T14:42:23.035000Z,,2024-02-15T14:42:23.658273Z,710.0,CVPIIDEI,1816,34,Female,White,United States,United States,United States,English,No,Part-Time,Not Applicable
5dd31760fb7d41000c6610e3,"<b>If I go to my favorite restaurant and the food is surprisingly bad, it reminds me there are many disappointments in life.",Highly disagree,12/94,Highly disagree,1,1708007656870,1708007663030,\Highly disagree\,\Highly disagree\,\1\,1708007662414,1708007662414,5544,5544,6160,buq,qns-item-noham,12,83191,0.0-1.0-0.11,65ce1fff833f57efd0d46f7f,AWAITING REVIEW,2024-02-15T14:30:33.555000Z,2024-02-15T14:42:23.035000Z,,2024-02-15T14:42:23.658273Z,710.0,CVPIIDEI,1816,34,Female,White,United States,United States,United States,English,No,Part-Time,Not Applicable
5dd31760fb7d41000c6610e3,"<b>If you are paying attention, please select ?Somewhat agree?",Highly disagree,13/94,Somewhat agree,3,1708007663032,1708007666780,\Somewhat agree\,\Somewhat agree\,\3\,1708007665505,1708007665505,2473,2473,3748,buq,qns-item-noham,13,86941,0.0-1.0-0.12,65ce1fff833f57efd0d46f7f,AWAITING REVIEW,2024-02-15T14:30:33.555000Z,2024-02-15T14:42:23.035000Z,,2024-02-15T14:42:23.658273Z,710.0,CVPIIDEI,1816,34,Female,White,United States,United States,United States,English,No,Part-Time,Not Applicable
5dd31760fb7d41000c6610e3,"<b>When I talk to others, I often worry I?ll convince them of something I didn?t mean to.",Highly disagree,14/94,Highly disagree,1,1708007666782,1708007684852,\Highly disagree\,\Highly disagree\,\1\,1708007684259,1708007684259,17477,17477,18070,buq,qns-item-noham,14,105013,0.0-1.0-0.13,65ce1fff833f57efd0d46f7f,AWAITING REVIEW,2024-02-15T14:30:33.555000Z,2024-02-15T14:42:23.035000Z,,2024-02-15T14:42:23.658273Z,710.0,CVPIIDEI,1816,34,Female,White,United States,United States,United States,English,No,Part-Time,Not Applicable
5dd31760fb7d41000c6610e3,<b>I would need to learn something utterly shocking about my party in order to change my political views.,Highly disagree,15/94,Somewhat agree,3,1708007684855,1708007694009,\Somewhat agree\,\Somewhat agree\,\3\,1708007691192,1708007693484,6337,8629,9154,buq,qns-item-noham,15,114170,0.0-1.0-0.14,65ce1fff833f57efd0d46f7f,AWAITING REVIEW,2024-02-15T14:30:33.555000Z,2024-02-15T14:42:23.035000Z,,2024-02-15T14:42:23.658273Z,710.0,CVPIIDEI,1816,34,Female,White,United States,United States,United States,English,No,Part-Time,Not Applicable
5dd31760fb7d41000c6610e3,"<b>When I have new experiences, I tend to think of them as unique.",Highly disagree,16/94,Somewhat agree,3,1708007694012,1708007697732,\Somewhat agree\,\Somewhat agree\,\3\,1708007697137,1708007697137,3125,3125,3720,buq,qns-item-noham,16,117893,0.0-1.0-0.15,65ce1fff833f57efd0d46f7f,AWAITING REVIEW,2024-02-15T14:30:33.555000Z,2024-02-15T14:42:23.035000Z,,2024-02-15T14:42:23.658273Z,710.0,CVPIIDEI,1816,34,Female,White,United States,United States,United States,English,No,Part-Time,Not Applicable
5dd31760fb7d41000c6610e3,<b>I change my mind about specific policies pretty frequently.,Highly disagree,17/94,Highly disagree,1,1708007697734,1708007702765,\Highly disagree\,\Highly disagree\,\1\,1708007702217,1708007702217,4483,4483,5031,buq,qns-item-noham,17,122926,0.0-1.0-0.16,65ce1fff833f57efd0d46f7f,AWAITING REVIEW,2024-02-15T14:30:33.555000Z,2024-02-15T14:42:23.035000Z,,2024-02-15T14:42:23.658273Z,710.0,CVPIIDEI,1816,34,Female,White,United States,United States,United States,English,No,Part-Time,Not Applicable
5dd31760fb7d41000c6610e3,"<b>If a politician in my political party supports something I disagree with, I give them the benefit of the doubt, as such issues often involve hidden complexities that aren?t obvious.   ",Highly disagree,18/94,Somewhat agree,3,1708007702767,1708007709811,\Somewhat agree\,\Somewhat agree\,\3\,1708007709249,1708007709249,6482,6482,7044,buq,qns-item-noham,18,129973,0.0-1.0-0.17,65ce1fff833f57efd0d46f7f,AWAITING REVIEW,2024-02-15T14:30:33.555000Z,2024-02-15T14:42:23.035000Z,,2024-02-15T14:42:23.658273Z,710.0,CVPIIDEI,1816,34,Female,White,United States,United States,United States,English,No,Part-Time,Not Applicable
5dd31760fb7d41000c6610e3,<b>People?s bad politics are usually motivated by hatefulness.,Highly disagree,19/94,Somewhat agree,3,1708007709814,1708007714243,\Somewhat agree\,\Somewhat agree\,\3\,1708007713709,1708007713709,3895,3895,4429,buq,qns-item-noham,19,134404,0.0-1.0-0.18,65ce1fff833f57efd0d46f7f,AWAITING REVIEW,2024-02-15T14:30:33.555000Z,2024-02-15T14:42:23.035000Z,,2024-02-15T14:42:23.658273Z,710.0,CVPIIDEI,1816,34,Female,White,United States,United States,United States,English,No,Part-Time,Not Applicable
5dd31760fb7d41000c6610e3,<b>I think a lot about how to reconcile my beliefs with one another.,Highly disagree,20/94,Somewhat disagree,2,1708007714245,1708007717448,\Somewhat disagree\,\Somewhat disagree\,\2\,1708007716953,1708007716953,2708,2708,3203,buq,qns-item-noham,20,137609,0.0-1.0-0.19,65ce1fff833f57efd0d46f7f,AWAITING REVIEW,2024-02-15T14:30:33.555000Z,2024-02-15T14:42:23.035000Z,,2024-02-15T14:42:23.658273Z,710.0,CVPIIDEI,1816,34,Female,White,United States,United States,United States,English,No,Part-Time,Not Applicable
5dd31760fb7d41000c6610e3,<b>I might have false beliefs about important topics.,Highly disagree,21/94,Somewhat disagree,2,1708007717450,1708007720865,\Somewhat disagree\,\Somewhat disagree\,\2\,1708007719883,1708007719883,2433,2433,3415,buq,qns-item-noham,21,141026,0.0-1.0-0.20,65ce1fff833f57efd0d46f7f,AWAITING REVIEW,2024-02-15T14:30:33.555000Z,2024-02-15T14:42:23.035000Z,,2024-02-15T14:42:23.658273Z,710.0,CVPIIDEI,1816,34,Female,White,United States,United States,United States,English,No,Part-Time,Not Applicable
5dd31760fb7d41000c6610e3,"<b>If a good friend of mine does something unexpected that upsets me, I feel like I don?t know them anymore.",Highly disagree,22/94,Somewhat agree,3,1708007720868,1708007725760,\Somewhat agree\,\Somewhat agree\,\3\,1708007725266,1708007725266,4398,4398,4892,buq,qns-item-noham,22,145922,0.0-1.0-0.21,65ce1fff833f57efd0d46f7f,AWAITING REVIEW,2024-02-15T14:30:33.555000Z,2024-02-15T14:42:23.035000Z,,2024-02-15T14:42:23.658273Z,710.0,CVPIIDEI,1816,34,Female,White,United States,United States,United States,English,No,Part-Time,Not Applicable
5dd31760fb7d41000c6610e3,<b>Other people?s beliefs are often incoherent.,Highly disagree,23/94,Somewhat disagree,2,1708007725763,1708007729225,\Somewhat disagree\,\Somewhat disagree\,\2\,1708007728272,1708007728272,2509,2509,3462,buq,qns-item-noham,23,149386,0.0-1.0-0.22,65ce1fff833f57efd0d46f7f,AWAITING REVIEW,2024-02-15T14:30:33.555000Z,2024-02-15T14:42:23.035000Z,,2024-02-15T14:42:23.658273Z,710.0,CVPIIDEI,1816,34,Female,White,United States,United States,United States,English,No,Part-Time,Not Applicable
5dd31760fb7d41000c6610e3,"<b>Every now and then, a new experience will unsettle beliefs I?ve had for a while.",Highly disagree,24/94,Somewhat disagree,2,1708007729228,1708007734497,\Somewhat disagree\,\Somewhat disagree\,\2\,1708007732270,1708007733912,3042,4684,5269,buq,qns-item-noham,24,154658,0.0-1.0-0.23,65ce1fff833f57efd0d46f7f,AWAITING REVIEW,2024-02-15T14:30:33.555000Z,2024-02-15T14:42:23.035000Z,,2024-02-15T14:42:23.658273Z,710.0,CVPIIDEI,1816,34,Female,White,United States,United States,United States,English,No,Part-Time,Not Applicable
5dd31760fb7d41000c6610e3,<b>Some policies I agree with in principle are so bad I don?t support them. ,Highly disagree,25/94,Somewhat disagree,2,1708007734500,1708007742593,\Somewhat disagree\,\Somewhat disagree\,\2\,1708007741536,1708007741536,7036,7036,8093,buq,qns-item-noham,25,162754,0.0-1.0-0.24,65ce1fff833f57efd0d46f7f,AWAITING REVIEW,2024-02-15T14:30:33.555000Z,2024-02-15T14:42:23.035000Z,,2024-02-15T14:42:23.658273Z,710.0,CVPIIDEI,1816,34,Female,White,United States,United States,United States,English,No,Part-Time,Not Applicable
5dd31760fb7d41000c6610e3,<b>I?m pretty sure I?ve accidentally spread false information.,Highly disagree,26/94,Somewhat disagree,2,1708007742595,1708007746730,\Somewhat disagree\,\Somewhat disagree\,\2\,1708007745605,1708007745605,3010,3010,4135,buq,qns-item-noham,26,166891,0.0-1.0-0.25,65ce1fff833f57efd0d46f7f,AWAITING REVIEW,2024-02-15T14:30:33.555000Z,2024-02-15T14:42:23.035000Z,,2024-02-15T14:42:23.658273Z,710.0,CVPIIDEI,1816,34,Female,White,United States,United States,United States,English,No,Part-Time,Not Applicable
5dd31760fb7d41000c6610e3,"<b>If I go to my favorite restaurant and the food is unexpectedly bad, then they have changed owners.",Highly disagree,27/94,Somewhat disagree,2,1708007746732,1708007751566,\Somewhat disagree\,\Somewhat disagree\,\2\,1708007751042,1708007751042,4310,4310,4834,buq,qns-item-noham,27,171727,0.0-1.0-0.26,65ce1fff833f57efd0d46f7f,AWAITING REVIEW,2024-02-15T14:30:33.555000Z,2024-02-15T14:42:23.035000Z,,2024-02-15T14:42:23.658273Z,710.0,CVPIIDEI,1816,34,Female,White,United States,United States,United States,English,No,Part-Time,Not Applicable
5dd31760fb7d41000c6610e3,"<b>In politics, it?s important to trust your friends and family.",Highly disagree,28/94,Somewhat disagree,2,1708007751568,1708007754890,\Somewhat disagree\,\Somewhat disagree\,\2\,1708007754380,1708007754380,2812,2812,3322,buq,qns-item-noham,28,175051,0.0-1.0-0.27,65ce1fff833f57efd0d46f7f,AWAITING REVIEW,2024-02-15T14:30:33.555000Z,2024-02-15T14:42:23.035000Z,,2024-02-15T14:42:23.658273Z,710.0,CVPIIDEI,1816,34,Female,White,United States,United States,United States,English,No,Part-Time,Not Applicable
5dd31760fb7d41000c6610e3,<b>It?s OK to have some conflicting beliefs.,Highly disagree,29/94,Highly agree,4,1708007754893,1708007757967,\Highly agree\,\Highly agree\,\4\,1708007756908,1708007756908,2015,2015,3074,buq,qns-item-noham,29,178128,0.0-1.0-0.28,65ce1fff833f57efd0d46f7f,AWAITING REVIEW,2024-02-15T14:30:33.555000Z,2024-02-15T14:42:23.035000Z,,2024-02-15T14:42:23.658273Z,710.0,CVPIIDEI,1816,34,Female,White,United States,United States,United States,English,No,Part-Time,Not Applicable
5dd31760fb7d41000c6610e3,<b>Listening to people I disagree with makes my opinions better.,Highly disagree,30/94,Somewhat agree,3,1708007757969,1708007761755,\Somewhat agree\,\Somewhat agree\,\3\,1708007761218,1708007761218,3249,3249,3786,buq,qns-item-noham,30,181916,0.0-1.0-0.29,65ce1fff833f57efd0d46f7f,AWAITING REVIEW,2024-02-15T14:30:33.555000Z,2024-02-15T14:42:23.035000Z,,2024-02-15T14:42:23.658273Z,710.0,CVPIIDEI,1816,34,Female,White,United States,United States,United States,English,No,Part-Time,Not Applicable
5dd31760fb7d41000c6610e3,<b>My moral compass sometimes makes it harder to determine what?s true.,Highly disagree,31/94,Somewhat disagree,2,1708007761757,1708007765468,\Somewhat disagree\,\Somewhat disagree\,\2\,1708007764898,1708007764898,3141,3141,3711,buq,qns-item-noham,31,185629,0.0-1.0-0.30,65ce1fff833f57efd0d46f7f,AWAITING REVIEW,2024-02-15T14:30:33.555000Z,2024-02-15T14:42:23.035000Z,,2024-02-15T14:42:23.658273Z,710.0,CVPIIDEI,1816,34,Female,White,United States,United States,United States,English,No,Part-Time,Not Applicable
5dd31760fb7d41000c6610e3,<b>Evidence pointing in the wrong direction isn?t really evidence at all.,Highly disagree,32/94,Somewhat agree,3,1708007765470,1708007769691,\Somewhat agree\,\Somewhat agree\,\3\,1708007769221,1708007769221,3751,3751,4221,buq,qns-item-noham,32,189852,0.0-1.0-0.31,65ce1fff833f57efd0d46f7f,AWAITING REVIEW,2024-02-15T14:30:33.555000Z,2024-02-15T14:42:23.035000Z,,2024-02-15T14:42:23.658273Z,710.0,CVPIIDEI,1816,34,Female,White,United States,United States,United States,English,No,Part-Time,Not Applicable
5dd31760fb7d41000c6610e3,"<b>If the political party I support messes up, it makes me think politics is rotten.",Highly disagree,33/94,Somewhat agree,3,1708007769693,1708007773924,\Somewhat agree\,\Somewhat agree\,\3\,1708007773461,1708007773461,3768,3768,4231,buq,qns-item-noham,33,194085,0.0-1.0-0.32,65ce1fff833f57efd0d46f7f,AWAITING REVIEW,2024-02-15T14:30:33.555000Z,2024-02-15T14:42:23.035000Z,,2024-02-15T14:42:23.658273Z,710.0,CVPIIDEI,1816,34,Female,White,United States,United States,United States,English,No,Part-Time,Not Applicable
5dd31760fb7d41000c6610e3,<b>Lots of important topics can only really be understood by some groups of people.,Highly disagree,34/94,Somewhat disagree,2,1708007773926,1708007777551,\Somewhat disagree\,\Somewhat disagree\,\2\,1708007777060,1708007777060,3134,3134,3625,buq,qns-item-noham,34,197712,0.0-1.0-0.33,65ce1fff833f57efd0d46f7f,AWAITING REVIEW,2024-02-15T14:30:33.555000Z,2024-02-15T14:42:23.035000Z,,2024-02-15T14:42:23.658273Z,710.0,CVPIIDEI,1816,34,Female,White,United States,United States,United States,English,No,Part-Time,Not Applicable
5dd31760fb7d41000c6610e3,<b>Having conflicting beliefs means you haven?t thought about them enough.,Highly disagree,35/94,Somewhat disagree,2,1708007777554,1708007784132,\Somewhat disagree\,\Somewhat disagree\,\2\,1708007783592,1708007783592,6038,6038,6578,buq,qns-item-noham,35,204293,0.0-1.0-0.34,65ce1fff833f57efd0d46f7f,AWAITING REVIEW,2024-02-15T14:30:33.555000Z,2024-02-15T14:42:23.035000Z,,2024-02-15T14:42:23.658273Z,710.0,CVPIIDEI,1816,34,Female,White,United States,United States,United States,English,No,Part-Time,Not Applicable
5dd31760fb7d41000c6610e3,<b>I do not often change my political opinions.,Highly disagree,36/94,Somewhat agree,3,1708007784134,1708007787960,\Somewhat agree\,\Somewhat agree\,\3\,1708007786886,1708007786886,2752,2752,3826,buq,qns-item-noham,36,208121,0.0-1.0-0.35,65ce1fff833f57efd0d46f7f,AWAITING REVIEW,2024-02-15T14:30:33.555000Z,2024-02-15T14:42:23.035000Z,,2024-02-15T14:42:23.658273Z,710.0,CVPIIDEI,1816,34,Female,White,United States,United States,United States,English,No,Part-Time,Not Applicable
5dd31760fb7d41000c6610e3,<b>It?s difficult to not have at least some conflicting beliefs.,Highly disagree,37/94,Somewhat agree,3,1708007787962,1708007792195,\Somewhat agree\,\Somewhat agree\,\3\,1708007791663,1708007791663,3701,3701,4233,buq,qns-item-noham,37,212356,0.0-1.0-0.36,65ce1fff833f57efd0d46f7f,AWAITING REVIEW,2024-02-15T14:30:33.555000Z,2024-02-15T14:42:23.035000Z,,2024-02-15T14:42:23.658273Z,710.0,CVPIIDEI,1816,34,Female,White,United States,United States,United States,English,No,Part-Time,Not Applicable
5dd31760fb7d41000c6610e3,<b>Wishful thinking causes a lot of problems.,Highly disagree,38/94,Highly disagree,1,1708007792198,1708007794910,\Highly disagree\,\Highly disagree\,\1\,1708007794325,1708007794325,2127,2127,2712,buq,qns-item-noham,38,215071,0.0-1.0-0.37,65ce1fff833f57efd0d46f7f,AWAITING REVIEW,2024-02-15T14:30:33.555000Z,2024-02-15T14:42:23.035000Z,,2024-02-15T14:42:23.658273Z,710.0,CVPIIDEI,1816,34,Female,White,United States,United States,United States,English,No,Part-Time,Not Applicable
5dd31760fb7d41000c6610e3,<b>I judge a food item only once I try it many times.,Highly disagree,39/94,Somewhat agree,3,1708007794912,1708007801032,\Somewhat agree\,\Somewhat agree\,\3\,1708007799344,1708007799998,4432,5086,6120,buq,qns-item-noham,39,221193,0.0-1.0-0.38,65ce1fff833f57efd0d46f7f,AWAITING REVIEW,2024-02-15T14:30:33.555000Z,2024-02-15T14:42:23.035000Z,,2024-02-15T14:42:23.658273Z,710.0,CVPIIDEI,1816,34,Female,White,United States,United States,United States,English,No,Part-Time,Not Applicable
5dd31760fb7d41000c6610e3,"<b>When a person holds conflicting beliefs, they should really try to figure out what?s wrong.",Highly disagree,40/94,Somewhat agree,3,1708007801036,1708007817460,\Somewhat agree\,\Somewhat agree\,\3\,1708007810352,1708007810352,9316,9316,16424,buq,qns-item-noham,40,237621,0.0-1.0-0.39,65ce1fff833f57efd0d46f7f,AWAITING REVIEW,2024-02-15T14:30:33.555000Z,2024-02-15T14:42:23.035000Z,,2024-02-15T14:42:23.658273Z,710.0,CVPIIDEI,1816,34,Female,White,United States,United States,United States,English,No,Part-Time,Not Applicable
5dd31760fb7d41000c6610e3,<b>Knowing what?s important in life is easy.,Highly disagree,41/94,Somewhat disagree,2,1708007817464,1708007820423,\Somewhat disagree\,\Somewhat disagree\,\2\,1708007819845,1708007819845,2381,2381,2959,buq,qns-item-noham,41,240584,0.0-1.0-0.40,65ce1fff833f57efd0d46f7f,AWAITING REVIEW,2024-02-15T14:30:33.555000Z,2024-02-15T14:42:23.035000Z,,2024-02-15T14:42:23.658273Z,710.0,CVPIIDEI,1816,34,Female,White,United States,United States,United States,English,No,Part-Time,Not Applicable
5dd31760fb7d41000c6610e3,<b>I swim across the Atlantic Ocean to get to work every day.,Highly disagree,42/94,Highly disagree,1,1708007820425,1708007824439,\Highly disagree\,\Highly disagree\,\1\,1708007823727,1708007823727,3302,3302,4014,buq,qns-item-noham,42,244600,0.0-1.0-0.41,65ce1fff833f57efd0d46f7f,AWAITING REVIEW,2024-02-15T14:30:33.555000Z,2024-02-15T14:42:23.035000Z,,2024-02-15T14:42:23.658273Z,710.0,CVPIIDEI,1816,34,Female,White,United States,United States,United States,English,No,Part-Time,Not Applicable
5dd31760fb7d41000c6610e3,"<b>Sometimes, you just have to ignore evidence that you know is wrong.",Highly disagree,43/94,Somewhat disagree,2,1708007824441,1708007828213,\Somewhat disagree\,\Somewhat disagree\,\2\,1708007827673,1708007827673,3232,3232,3772,buq,qns-item-noham,43,248374,0.0-1.0-0.42,65ce1fff833f57efd0d46f7f,AWAITING REVIEW,2024-02-15T14:30:33.555000Z,2024-02-15T14:42:23.035000Z,,2024-02-15T14:42:23.658273Z,710.0,CVPIIDEI,1816,34,Female,White,United States,United States,United States,English,No,Part-Time,Not Applicable
5dd31760fb7d41000c6610e3,<b>I have had some false beliefs.,Highly disagree,44/94,Highly agree,4,1708007828215,1708007831345,\Highly agree\,\Highly agree\,\4\,1708007830818,1708007830818,2603,2603,3130,buq,qns-item-noham,44,251506,0.0-1.0-0.43,65ce1fff833f57efd0d46f7f,AWAITING REVIEW,2024-02-15T14:30:33.555000Z,2024-02-15T14:42:23.035000Z,,2024-02-15T14:42:23.658273Z,710.0,CVPIIDEI,1816,34,Female,White,United States,United States,United States,English,No,Part-Time,Not Applicable
5dd31760fb7d41000c6610e3,"<b>If one friend does something that upsets me, I sometimes start to distrust people in general.",Highly disagree,45/94,Somewhat agree,3,1708007831348,1708007836848,\Somewhat agree\,\Somewhat agree\,\3\,1708007835364,1708007835364,4016,4016,5500,buq,qns-item-noham,45,257009,0.0-1.0-0.44,65ce1fff833f57efd0d46f7f,AWAITING REVIEW,2024-02-15T14:30:33.555000Z,2024-02-15T14:42:23.035000Z,,2024-02-15T14:42:23.658273Z,710.0,CVPIIDEI,1816,34,Female,White,United States,United States,United States,English,No,Part-Time,Not Applicable
5dd31760fb7d41000c6610e3,<b>The facts about most important matters are easy to find.,Highly disagree,46/94,Somewhat agree,3,1708007836850,1708007841851,\Somewhat agree\,\Somewhat agree\,\3\,1708007840801,1708007840801,3951,3951,5001,buq,qns-item-noham,46,262012,0.0-1.0-0.45,65ce1fff833f57efd0d46f7f,AWAITING REVIEW,2024-02-15T14:30:33.555000Z,2024-02-15T14:42:23.035000Z,,2024-02-15T14:42:23.658273Z,710.0,CVPIIDEI,1816,34,Female,White,United States,United States,United States,English,No,Part-Time,Not Applicable
5dd31760fb7d41000c6610e3,<b>It?s better to know what?s true than to know what?s moral.,Highly disagree,47/94,Somewhat disagree,2,1708007841853,1708007846597,\Somewhat disagree\,\Somewhat disagree\,\2\,1708007845655,1708007845655,3802,3802,4744,buq,qns-item-noham,47,266758,0.0-1.0-0.46,65ce1fff833f57efd0d46f7f,AWAITING REVIEW,2024-02-15T14:30:33.555000Z,2024-02-15T14:42:23.035000Z,,2024-02-15T14:42:23.658273Z,710.0,CVPIIDEI,1816,34,Female,White,United States,United States,United States,English,No,Part-Time,Not Applicable
5dd31760fb7d41000c6610e3,<b>I used to think the world was less complicated than I do now.,Highly disagree,48/94,Highly agree,4,1708007846599,1708007850395,\Highly agree\,\Highly agree\,\4\,1708007849855,1708007849855,3256,3256,3796,buq,qns-item-noham,48,270556,0.0-1.0-0.47,65ce1fff833f57efd0d46f7f,AWAITING REVIEW,2024-02-15T14:30:33.555000Z,2024-02-15T14:42:23.035000Z,,2024-02-15T14:42:23.658273Z,710.0,CVPIIDEI,1816,34,Female,White,United States,United States,United States,English,No,Part-Time,Not Applicable
5dd31760fb7d41000c6610e3,<b>People are usually completely right or completely wrong.,Highly disagree,49/94,Somewhat agree,3,1708007850397,1708007853501,\Somewhat agree\,\Somewhat agree\,\3\,1708007853006,1708007853006,2609,2609,3104,buq,qns-item-noham,49,273662,0.0-1.0-0.48,65ce1fff833f57efd0d46f7f,AWAITING REVIEW,2024-02-15T14:30:33.555000Z,2024-02-15T14:42:23.035000Z,,2024-02-15T14:42:23.658273Z,710.0,CVPIIDEI,1816,34,Female,White,United States,United States,United States,English,No,Part-Time,Not Applicable
5dd31760fb7d41000c6610e3,<b>I spend a lot of time considering alternatives to my beliefs.,Highly disagree,50/94,Highly disagree,1,1708007853503,1708007857273,\Highly disagree\,\Highly disagree\,\1\,1708007856155,1708007856155,2652,2652,3770,buq,qns-item-noham,50,277434,0.0-1.0-0.49,65ce1fff833f57efd0d46f7f,AWAITING REVIEW,2024-02-15T14:30:33.555000Z,2024-02-15T14:42:23.035000Z,,2024-02-15T14:42:23.658273Z,710.0,CVPIIDEI,1816,34,Female,White,United States,United States,United States,English,No,Part-Time,Not Applicable
5dd31760fb7d41000c6610e3,"<b>Political enemies need to be defeated, not convinced.",Highly disagree,51/94,Somewhat disagree,2,1708007857275,1708007862380,\Somewhat disagree\,\Somewhat disagree\,\2\,1708007861360,1708007861360,4085,4085,5105,buq,qns-item-noham,51,282541,0.0-1.0-0.50,65ce1fff833f57efd0d46f7f,AWAITING REVIEW,2024-02-15T14:30:33.555000Z,2024-02-15T14:42:23.035000Z,,2024-02-15T14:42:23.658273Z,710.0,CVPIIDEI,1816,34,Female,White,United States,United States,United States,English,No,Part-Time,Not Applicable
5dd31760fb7d41000c6610e3,<b>I form my political views only after meticulously gathering historical and present information about their policies.,Highly disagree,52/94,Somewhat agree,3,1708007862383,1708007866419,\Somewhat agree\,\Somewhat agree\,\3\,1708007865587,1708007865587,3204,3204,4036,buq,qns-item-noham,52,286580,0.0-1.0-0.51,65ce1fff833f57efd0d46f7f,AWAITING REVIEW,2024-02-15T14:30:33.555000Z,2024-02-15T14:42:23.035000Z,,2024-02-15T14:42:23.658273Z,710.0,CVPIIDEI,1816,34,Female,White,United States,United States,United States,English,No,Part-Time,Not Applicable
5dd31760fb7d41000c6610e3,<b>It is difficult for me to remember the last time I was surprised by politics.,Highly disagree,53/94,Somewhat disagree,2,1708007866422,1708007871102,\Somewhat disagree\,\Somewhat disagree\,\2\,1708007869782,1708007869782,3360,3360,4680,buq,qns-item-noham,53,291263,0.0-1.0-0.52,65ce1fff833f57efd0d46f7f,AWAITING REVIEW,2024-02-15T14:30:33.555000Z,2024-02-15T14:42:23.035000Z,,2024-02-15T14:42:23.658273Z,710.0,CVPIIDEI,1816,34,Female,White,United States,United States,United States,English,No,Part-Time,Not Applicable
5dd31760fb7d41000c6610e3,"<b>When I find out I?m wrong, I think a lot about my related beliefs.",Highly disagree,54/94,Somewhat agree,3,1708007871104,1708007874420,\Somewhat agree\,\Somewhat agree\,\3\,1708007873773,1708007873773,2669,2669,3316,buq,qns-item-noham,54,294581,0.0-1.0-0.53,65ce1fff833f57efd0d46f7f,AWAITING REVIEW,2024-02-15T14:30:33.555000Z,2024-02-15T14:42:23.035000Z,,2024-02-15T14:42:23.658273Z,710.0,CVPIIDEI,1816,34,Female,White,United States,United States,United States,English,No,Part-Time,Not Applicable
5dd31760fb7d41000c6610e3,"<b>If the political party I support messes up, it makes me think you can?t trust anyone these days",Highly disagree,55/94,Somewhat agree,3,1708007874422,1708007878981,\Somewhat agree\,\Somewhat agree\,\3\,1708007877984,1708007877984,3562,3562,4559,buq,qns-item-noham,55,299142,0.0-1.0-0.54,65ce1fff833f57efd0d46f7f,AWAITING REVIEW,2024-02-15T14:30:33.555000Z,2024-02-15T14:42:23.035000Z,,2024-02-15T14:42:23.658273Z,710.0,CVPIIDEI,1816,34,Female,White,United States,United States,United States,English,No,Part-Time,Not Applicable
5dd31760fb7d41000c6610e3,<b>People?s brains turn off when they talk about politics.,Highly disagree,56/94,Somewhat disagree,2,1708007878983,1708007882578,\Somewhat disagree\,\Somewhat disagree\,\2\,1708007881529,1708007881529,2546,2546,3595,buq,qns-item-noham,56,302739,0.0-1.0-0.55,65ce1fff833f57efd0d46f7f,AWAITING REVIEW,2024-02-15T14:30:33.555000Z,2024-02-15T14:42:23.035000Z,,2024-02-15T14:42:23.658273Z,710.0,CVPIIDEI,1816,34,Female,White,United States,United States,United States,English,No,Part-Time,Not Applicable
5dd31760fb7d41000c6610e3,<b>People who are wrong are usually just ignoring the obvious.,Highly disagree,57/94,Somewhat agree,3,1708007882580,1708007886707,\Somewhat agree\,\Somewhat agree\,\3\,1708007885643,1708007885643,3063,3063,4127,buq,qns-item-noham,57,306868,0.0-1.0-0.56,65ce1fff833f57efd0d46f7f,AWAITING REVIEW,2024-02-15T14:30:33.555000Z,2024-02-15T14:42:23.035000Z,,2024-02-15T14:42:23.658273Z,710.0,CVPIIDEI,1816,34,Female,White,United States,United States,United States,English,No,Part-Time,Not Applicable
5dd31760fb7d41000c6610e3,"<b>When forming my views on people, I rely more on what they are like now rather than rely on my past experience with them.",Highly disagree,58/94,Somewhat disagree,2,1708007886709,1708007892995,\Somewhat disagree\,\Somewhat disagree\,\2\,1708007892340,1708007892340,5631,5631,6286,buq,qns-item-noham,58,313156,0.0-1.0-0.57,65ce1fff833f57efd0d46f7f,AWAITING REVIEW,2024-02-15T14:30:33.555000Z,2024-02-15T14:42:23.035000Z,,2024-02-15T14:42:23.658273Z,710.0,CVPIIDEI,1816,34,Female,White,United States,United States,United States,English,No,Part-Time,Not Applicable
5dd31760fb7d41000c6610e3,"<b>When people contradict my beliefs, I usually know about their evidence already.",Highly disagree,59/94,Somewhat agree,3,1708007892997,1708007897303,\Somewhat agree\,\Somewhat agree\,\3\,1708007896705,1708007896705,3708,3708,4306,buq,qns-item-noham,59,317464,0.0-1.0-0.58,65ce1fff833f57efd0d46f7f,AWAITING REVIEW,2024-02-15T14:30:33.555000Z,2024-02-15T14:42:23.035000Z,,2024-02-15T14:42:23.658273Z,710.0,CVPIIDEI,1816,34,Female,White,United States,United States,United States,English,No,Part-Time,Not Applicable
5dd31760fb7d41000c6610e3,<b>Figuring out what?s true and what?s false mainly requires a strong moral compass.,Highly disagree,60/94,Somewhat agree,3,1708007897306,1708007901374,\Somewhat agree\,\Somewhat agree\,\3\,1708007900271,1708007900271,2965,2965,4068,buq,qns-item-noham,60,321535,0.0-1.0-0.59,65ce1fff833f57efd0d46f7f,AWAITING REVIEW,2024-02-15T14:30:33.555000Z,2024-02-15T14:42:23.035000Z,,2024-02-15T14:42:23.658273Z,710.0,CVPIIDEI,1816,34,Female,White,United States,United States,United States,English,No,Part-Time,Not Applicable
5dd31760fb7d41000c6610e3,"<b>Usually I?m wrong about simple things, not complicated ones.",Highly disagree,61/94,Somewhat disagree,2,1708007901376,1708007904935,\Somewhat disagree\,\Somewhat disagree\,\2\,1708007904347,1708007904347,2971,2971,3559,buq,qns-item-noham,61,325096,0.0-1.0-0.60,65ce1fff833f57efd0d46f7f,AWAITING REVIEW,2024-02-15T14:30:33.555000Z,2024-02-15T14:42:23.035000Z,,2024-02-15T14:42:23.658273Z,710.0,CVPIIDEI,1816,34,Female,White,United States,United States,United States,English,No,Part-Time,Not Applicable
5dd31760fb7d41000c6610e3,<b>Getting all the information I want about important things is hard.,Highly disagree,62/94,Somewhat agree,3,1708007904937,1708007909250,\Somewhat agree\,\Somewhat agree\,\3\,1708007907930,1708007907930,2993,2993,4313,buq,qns-item-noham,62,329411,0.0-1.0-0.61,65ce1fff833f57efd0d46f7f,AWAITING REVIEW,2024-02-15T14:30:33.555000Z,2024-02-15T14:42:23.035000Z,,2024-02-15T14:42:23.658273Z,710.0,CVPIIDEI,1816,34,Female,White,United States,United States,United States,English,No,Part-Time,Not Applicable
5dd31760fb7d41000c6610e3,<b>Most false beliefs spread because people try to deceive one another.,Highly disagree,63/94,Highly agree,4,1708007909252,1708007914016,\Highly agree\,\Highly agree\,\4\,1708007913469,1708007913469,4217,4217,4764,buq,qns-item-noham,63,334177,0.0-1.0-0.62,65ce1fff833f57efd0d46f7f,AWAITING REVIEW,2024-02-15T14:30:33.555000Z,2024-02-15T14:42:23.035000Z,,2024-02-15T14:42:23.658273Z,710.0,CVPIIDEI,1816,34,Female,White,United States,United States,United States,English,No,Part-Time,Not Applicable
5dd31760fb7d41000c6610e3,<b>I can usually find something to agree with in most people?s beliefs.,Highly disagree,64/94,Somewhat agree,3,1708007914020,1708007918323,\Somewhat agree\,\Somewhat agree\,\3\,1708007917356,1708007917356,3336,3336,4303,buq,qns-item-noham,64,338484,0.0-1.0-0.63,65ce1fff833f57efd0d46f7f,AWAITING REVIEW,2024-02-15T14:30:33.555000Z,2024-02-15T14:42:23.035000Z,,2024-02-15T14:42:23.658273Z,710.0,CVPIIDEI,1816,34,Female,White,United States,United States,United States,English,No,Part-Time,Not Applicable
5dd31760fb7d41000c6610e3,<b>I only form my views of people once I get to know them very well.,Highly disagree,65/94,Highly agree,4,1708007918325,1708007921400,\Highly agree\,\Highly agree\,\4\,1708007920799,1708007920799,2474,2474,3075,buq,qns-item-noham,65,341561,0.0-1.0-0.64,65ce1fff833f57efd0d46f7f,AWAITING REVIEW,2024-02-15T14:30:33.555000Z,2024-02-15T14:42:23.035000Z,,2024-02-15T14:42:23.658273Z,710.0,CVPIIDEI,1816,34,Female,White,United States,United States,United States,English,No,Part-Time,Not Applicable
5dd31760fb7d41000c6610e3,"<b>When people tell me important things about the world, I usually believe them.",Highly disagree,66/94,Somewhat disagree,2,1708007921403,1708007925154,\Somewhat disagree\,\Somewhat disagree\,\2\,1708007924562,1708007924562,3159,3159,3751,buq,qns-item-noham,66,345315,0.0-1.0-0.65,65ce1fff833f57efd0d46f7f,AWAITING REVIEW,2024-02-15T14:30:33.555000Z,2024-02-15T14:42:23.035000Z,,2024-02-15T14:42:23.658273Z,710.0,CVPIIDEI,1816,34,Female,White,United States,United States,United States,English,No,Part-Time,Not Applicable
5dd31760fb7d41000c6610e3,"<b>If a friend does something that upsets me, it reminds me what an unpredictable place the world is.",Highly disagree,67/94,Somewhat agree,3,1708007925156,1708007928671,\Somewhat agree\,\Somewhat agree\,\3\,1708007928011,1708007928011,2855,2855,3515,buq,qns-item-noham,67,348832,0.0-1.0-0.66,65ce1fff833f57efd0d46f7f,AWAITING REVIEW,2024-02-15T14:30:33.555000Z,2024-02-15T14:42:23.035000Z,,2024-02-15T14:42:23.658273Z,710.0,CVPIIDEI,1816,34,Female,White,United States,United States,United States,English,No,Part-Time,Not Applicable
5dd31760fb7d41000c6610e3,<b>People tend to believe whatever is good for their friends.,Highly disagree,68/94,Somewhat agree,3,1708007928673,1708007931735,\Somewhat agree\,\Somewhat agree\,\3\,1708007931142,1708007931142,2469,2469,3062,buq,qns-item-noham,68,351896,0.0-1.0-0.67,65ce1fff833f57efd0d46f7f,AWAITING REVIEW,2024-02-15T14:30:33.555000Z,2024-02-15T14:42:23.035000Z,,2024-02-15T14:42:23.658273Z,710.0,CVPIIDEI,1816,34,Female,White,United States,United States,United States,English,No,Part-Time,Not Applicable
5dd31760fb7d41000c6610e3,<b>I used to be more certain my beliefs were true.,Highly disagree,69/94,Somewhat disagree,2,1708007931737,1708007939344,\Somewhat disagree\,\Somewhat disagree\,\2\,1708007938067,1708007938067,6330,6330,7607,buq,qns-item-noham,69,359505,0.0-1.0-0.68,65ce1fff833f57efd0d46f7f,AWAITING REVIEW,2024-02-15T14:30:33.555000Z,2024-02-15T14:42:23.035000Z,,2024-02-15T14:42:23.658273Z,710.0,CVPIIDEI,1816,34,Female,White,United States,United States,United States,English,No,Part-Time,Not Applicable
5dd31760fb7d41000c6610e3,<b>It?s often pretty easy to figure out whether something is true based on who said it.,Highly disagree,70/94,Somewhat agree,3,1708007939347,1708007944500,\Somewhat agree\,\Somewhat agree\,\3\,1708007943945,1708007943945,4598,4598,5153,buq,qns-item-noham,70,364661,0.0-1.0-0.69,65ce1fff833f57efd0d46f7f,AWAITING REVIEW,2024-02-15T14:30:33.555000Z,2024-02-15T14:42:23.035000Z,,2024-02-15T14:42:23.658273Z,710.0,CVPIIDEI,1816,34,Female,White,United States,United States,United States,English,No,Part-Time,Not Applicable
5dd31760fb7d41000c6610e3,<b>I transform into a hummingbird every day.,Highly disagree,71/94,Highly disagree,1,1708007944502,1708007947549,\Highly disagree\,\Highly disagree\,\1\,1708007946627,1708007946627,2125,2125,3047,buq,qns-item-noham,71,367711,0.0-1.0-0.70,65ce1fff833f57efd0d46f7f,AWAITING REVIEW,2024-02-15T14:30:33.555000Z,2024-02-15T14:42:23.035000Z,,2024-02-15T14:42:23.658273Z,710.0,CVPIIDEI,1816,34,Female,White,United States,United States,United States,English,No,Part-Time,Not Applicable
5dd31760fb7d41000c6610e3,<b>I think a lot about arguments against my views.,Highly disagree,72/94,Somewhat disagree,2,1708007947552,1708007953081,\Somewhat disagree\,\Somewhat disagree\,\2\,1708007952482,1708007952482,4930,4930,5529,buq,qns-item-noham,72,373242,0.0-1.0-0.71,65ce1fff833f57efd0d46f7f,AWAITING REVIEW,2024-02-15T14:30:33.555000Z,2024-02-15T14:42:23.035000Z,,2024-02-15T14:42:23.658273Z,710.0,CVPIIDEI,1816,34,Female,White,United States,United States,United States,English,No,Part-Time,Not Applicable
5dd31760fb7d41000c6610e3,<b>Personal experience is usually more important than facts and figures.,Highly disagree,73/94,Somewhat disagree,2,1708007953083,1708007957355,\Somewhat disagree\,\Somewhat disagree\,\2\,1708007956763,1708007956763,3680,3680,4272,buq,qns-item-noham,73,377517,0.0-1.0-0.72,65ce1fff833f57efd0d46f7f,AWAITING REVIEW,2024-02-15T14:30:33.555000Z,2024-02-15T14:42:23.035000Z,,2024-02-15T14:42:23.658273Z,710.0,CVPIIDEI,1816,34,Female,White,United States,United States,United States,English,No,Part-Time,Not Applicable
5dd31760fb7d41000c6610e3,<b>I?ve been tricked before about important matters.,Highly disagree,74/94,Somewhat agree,3,1708007957357,1708007959981,\Somewhat agree\,\Somewhat agree\,\3\,1708007959434,1708007959434,2077,2077,2624,buq,qns-item-noham,74,380142,0.0-1.0-0.73,65ce1fff833f57efd0d46f7f,AWAITING REVIEW,2024-02-15T14:30:33.555000Z,2024-02-15T14:42:23.035000Z,,2024-02-15T14:42:23.658273Z,710.0,CVPIIDEI,1816,34,Female,White,United States,United States,United States,English,No,Part-Time,Not Applicable
5dd31760fb7d41000c6610e3,<b>I would need to be totally wowed if I were to change my opinion of a restaurant I don?t like.,Highly disagree,75/94,Highly agree,4,1708007959983,1708007964667,\Highly agree\,\Highly agree\,\4\,1708007964022,1708007964022,4039,4039,4684,buq,qns-item-noham,75,384828,0.0-1.0-0.74,65ce1fff833f57efd0d46f7f,AWAITING REVIEW,2024-02-15T14:30:33.555000Z,2024-02-15T14:42:23.035000Z,,2024-02-15T14:42:23.658273Z,710.0,CVPIIDEI,1816,34,Female,White,United States,United States,United States,English,No,Part-Time,Not Applicable
5dd31760fb7d41000c6610e3,<b>I care a lot about politics.,Highly disagree,76/94,Somewhat agree,3,1708007964669,1708007966815,\Somewhat agree\,\Somewhat agree\,\3\,1708007966282,1708007966282,1613,1613,2146,buq,qns-item-noham,76,386976,0.0-1.0-0.75,65ce1fff833f57efd0d46f7f,AWAITING REVIEW,2024-02-15T14:30:33.555000Z,2024-02-15T14:42:23.035000Z,,2024-02-15T14:42:23.658273Z,710.0,CVPIIDEI,1816,34,Female,White,United States,United States,United States,English,No,Part-Time,Not Applicable
5dd31760fb7d41000c6610e3,<b>There are some topics I?ve been really wrong about.,Highly disagree,77/94,Highly agree,4,1708007966817,1708007971435,\Highly agree\,\Highly agree\,\4\,1708007970385,1708007970385,3568,3568,4618,buq,qns-item-noham,77,391596,0.0-1.0-0.76,65ce1fff833f57efd0d46f7f,AWAITING REVIEW,2024-02-15T14:30:33.555000Z,2024-02-15T14:42:23.035000Z,,2024-02-15T14:42:23.658273Z,710.0,CVPIIDEI,1816,34,Female,White,United States,United States,United States,English,No,Part-Time,Not Applicable
5dd31760fb7d41000c6610e3,<b>Most beliefs can be supported with at least some evidence.,Highly disagree,78/94,Highly agree,4,1708007971437,1708007974991,\Highly agree\,\Highly agree\,\4\,1708007973950,1708007973950,2513,2513,3554,buq,qns-item-noham,78,395152,0.0-1.0-0.77,65ce1fff833f57efd0d46f7f,AWAITING REVIEW,2024-02-15T14:30:33.555000Z,2024-02-15T14:42:23.035000Z,,2024-02-15T14:42:23.658273Z,710.0,CVPIIDEI,1816,34,Female,White,United States,United States,United States,English,No,Part-Time,Not Applicable
5dd31760fb7d41000c6610e3,<b>Other people make life out to be more complicated than it really is.,Highly disagree,79/94,Somewhat agree,3,1708007974993,1708007979173,\Somewhat agree\,\Somewhat agree\,\3\,1708007978518,1708007978518,3525,3525,4180,buq,qns-item-noham,79,399334,0.0-1.0-0.78,65ce1fff833f57efd0d46f7f,AWAITING REVIEW,2024-02-15T14:30:33.555000Z,2024-02-15T14:42:23.035000Z,,2024-02-15T14:42:23.658273Z,710.0,CVPIIDEI,1816,34,Female,White,United States,United States,United States,English,No,Part-Time,Not Applicable
5dd31760fb7d41000c6610e3,"<b>Policy details don?t matter much, just the big picture.",Highly disagree,80/94,Somewhat disagree,2,1708007979175,1708007984143,\Somewhat disagree\,\Somewhat disagree\,\2\,1708007982981,1708007982981,3806,3806,4968,buq,qns-item-noham,80,404304,0.0-1.0-0.79,65ce1fff833f57efd0d46f7f,AWAITING REVIEW,2024-02-15T14:30:33.555000Z,2024-02-15T14:42:23.035000Z,,2024-02-15T14:42:23.658273Z,710.0,CVPIIDEI,1816,34,Female,White,United States,United States,United States,English,No,Part-Time,Not Applicable
5dd31760fb7d41000c6610e3,<b>I know my friends so well they can hardly ever surprise me.,Highly disagree,81/94,Somewhat agree,3,1708007984145,1708007988115,\Somewhat agree\,\Somewhat agree\,\3\,1708007987478,1708007987478,3333,3333,3970,buq,qns-item-noham,81,408276,0.0-1.0-0.80,65ce1fff833f57efd0d46f7f,AWAITING REVIEW,2024-02-15T14:30:33.555000Z,2024-02-15T14:42:23.035000Z,,2024-02-15T14:42:23.658273Z,710.0,CVPIIDEI,1816,34,Female,White,United States,United States,United States,English,No,Part-Time,Not Applicable
5dd31760fb7d41000c6610e3,<b>I do not often change my views on people.,Highly disagree,82/94,Somewhat agree,3,1708007988117,1708007993266,\Highly agree\,\Somewhat agree\,\4\,1708007990739,1708007992208,2622,4091,5149,buq,qns-item-noham,82,413427,0.0-1.0-0.81,65ce1fff833f57efd0d46f7f,AWAITING REVIEW,2024-02-15T14:30:33.555000Z,2024-02-15T14:42:23.035000Z,,2024-02-15T14:42:23.658273Z,710.0,CVPIIDEI,1816,34,Female,White,United States,United States,United States,English,No,Part-Time,Not Applicable
5dd31760fb7d41000c6610e3,<b>I?m more certain about my beliefs than I used to be.,Highly disagree,83/94,Highly agree,4,1708007993268,1708007998533,\Highly agree\,\Highly agree\,\4\,1708007997982,1708007997982,4714,4714,5265,buq,qns-item-noham,83,418694,0.0-1.0-0.82,65ce1fff833f57efd0d46f7f,AWAITING REVIEW,2024-02-15T14:30:33.555000Z,2024-02-15T14:42:23.035000Z,,2024-02-15T14:42:23.658273Z,710.0,CVPIIDEI,1816,34,Female,White,United States,United States,United States,English,No,Part-Time,Not Applicable
5dd31760fb7d41000c6610e3,<b>People often tell falsehoods unintentionally.,Highly disagree,84/94,Highly agree,4,1708007998534,1708008002765,\Highly agree\,\Highly agree\,\4\,1708008001689,1708008001689,3155,3155,4231,buq,qns-item-noham,84,422926,0.0-1.0-0.83,65ce1fff833f57efd0d46f7f,AWAITING REVIEW,2024-02-15T14:30:33.555000Z,2024-02-15T14:42:23.035000Z,,2024-02-15T14:42:23.658273Z,710.0,CVPIIDEI,1816,34,Female,White,United States,United States,United States,English,No,Part-Time,Not Applicable
5dd31760fb7d41000c6610e3,<b>Most people don?t know much about most things.,Highly disagree,85/94,Somewhat agree,3,1708008002767,1708008005861,\Somewhat agree\,\Somewhat agree\,\3\,1708008005396,1708008005396,2629,2629,3094,buq,qns-item-noham,85,426022,0.0-1.0-0.84,65ce1fff833f57efd0d46f7f,AWAITING REVIEW,2024-02-15T14:30:33.555000Z,2024-02-15T14:42:23.035000Z,,2024-02-15T14:42:23.658273Z,710.0,CVPIIDEI,1816,34,Female,White,United States,United States,United States,English,No,Part-Time,Not Applicable
5dd31760fb7d41000c6610e3,"<b>If I find out something new about someone, I easily change my views about them.",Highly disagree,86/94,Somewhat disagree,2,1708008005863,1708008010241,\Somewhat disagree\,\Somewhat disagree\,\2\,1708008009342,1708008009342,3479,3479,4378,buq,qns-item-noham,86,430403,0.0-1.0-0.85,65ce1fff833f57efd0d46f7f,AWAITING REVIEW,2024-02-15T14:30:33.555000Z,2024-02-15T14:42:23.035000Z,,2024-02-15T14:42:23.658273Z,710.0,CVPIIDEI,1816,34,Female,White,United States,United States,United States,English,No,Part-Time,Not Applicable
5dd31760fb7d41000c6610e3,<b>Having true beliefs is difficult.,Highly disagree,87/94,Somewhat disagree,2,1708008010245,1708008013387,\Somewhat disagree\,\Somewhat disagree\,\2\,1708008012731,1708008012731,2486,2486,3142,buq,qns-item-noham,87,433548,0.0-1.0-0.86,65ce1fff833f57efd0d46f7f,AWAITING REVIEW,2024-02-15T14:30:33.555000Z,2024-02-15T14:42:23.035000Z,,2024-02-15T14:42:23.658273Z,710.0,CVPIIDEI,1816,34,Female,White,United States,United States,United States,English,No,Part-Time,Not Applicable
5dd31760fb7d41000c6610e3,<b>I don?t try new foods since I know I won?t like them.,Highly disagree,88/94,Somewhat disagree,2,1708008013389,1708008017606,\Somewhat disagree\,\Somewhat disagree\,\2\,1708008017035,1708008017035,3646,3646,4217,buq,qns-item-noham,88,437767,0.0-1.0-0.87,65ce1fff833f57efd0d46f7f,AWAITING REVIEW,2024-02-15T14:30:33.555000Z,2024-02-15T14:42:23.035000Z,,2024-02-15T14:42:23.658273Z,710.0,CVPIIDEI,1816,34,Female,White,United States,United States,United States,English,No,Part-Time,Not Applicable
5dd31760fb7d41000c6610e3,<b>Other people trick each other a lot.,Highly disagree,89/94,Somewhat agree,3,1708008017608,1708008021264,\Somewhat agree\,\Somewhat agree\,\3\,1708008019922,1708008019922,2314,2314,3656,buq,qns-item-noham,89,441425,0.0-1.0-0.88,65ce1fff833f57efd0d46f7f,AWAITING REVIEW,2024-02-15T14:30:33.555000Z,2024-02-15T14:42:23.035000Z,,2024-02-15T14:42:23.658273Z,710.0,CVPIIDEI,1816,34,Female,White,United States,United States,United States,English,No,Part-Time,Not Applicable
5dd31760fb7d41000c6610e3,<b>I would need to learn a lot about a person for my opinion of them to be swayed.,Highly disagree,90/94,Highly agree,4,1708008021266,1708008034101,\Highly agree\,\Highly agree\,\4\,1708008032703,1708008032703,11437,11437,12835,buq,qns-item-noham,90,454262,0.0-1.0-0.89,65ce1fff833f57efd0d46f7f,AWAITING REVIEW,2024-02-15T14:30:33.555000Z,2024-02-15T14:42:23.035000Z,,2024-02-15T14:42:23.658273Z,710.0,CVPIIDEI,1816,34,Female,White,United States,United States,United States,English,No,Part-Time,Not Applicable
5dd31760fb7d41000c6610e3,<b>People can?t usually trick me when it comes to topics I care about.,Highly disagree,91/94,Somewhat agree,3,1708008034103,1708008040188,\Somewhat agree\,\Somewhat agree\,\3\,1708008039010,1708008039010,4907,4907,6085,buq,qns-item-noham,91,460349,0.0-1.0-0.90,65ce1fff833f57efd0d46f7f,AWAITING REVIEW,2024-02-15T14:30:33.555000Z,2024-02-15T14:42:23.035000Z,,2024-02-15T14:42:23.658273Z,710.0,CVPIIDEI,1816,34,Female,White,United States,United States,United States,English,No,Part-Time,Not Applicable
5dd31760fb7d41000c6610e3,<b>I do not often change my views on food.,Highly disagree,92/94,Somewhat agree,3,1708008040190,1708008044264,\Somewhat agree\,\Somewhat agree\,\3\,1708008043192,1708008043192,3002,3002,4074,buq,qns-item-noham,92,464425,0.0-1.0-0.91,65ce1fff833f57efd0d46f7f,AWAITING REVIEW,2024-02-15T14:30:33.555000Z,2024-02-15T14:42:23.035000Z,,2024-02-15T14:42:23.658273Z,710.0,CVPIIDEI,1816,34,Female,White,United States,United States,United States,English,No,Part-Time,Not Applicable
5dd31760fb7d41000c6610e3,<b>Specific policies are often very important to me.,Highly disagree,93/94,Highly agree,4,1708008044266,1708008054163,\Somewhat agree\,\Highly agree\,\3\,1708008047731,1708008053484,3465,9218,9897,buq,qns-item-noham,93,474324,0.0-1.0-0.92,65ce1fff833f57efd0d46f7f,AWAITING REVIEW,2024-02-15T14:30:33.555000Z,2024-02-15T14:42:23.035000Z,,2024-02-15T14:42:23.658273Z,710.0,CVPIIDEI,1816,34,Female,White,United States,United States,United States,English,No,Part-Time,Not Applicable
5dd31760fb7d41000c6610e3,<b>Most people are woefully under-informed.,Highly disagree,94/94,Somewhat agree,3,1708008054165,1708008057811,\Somewhat agree\,\Somewhat agree\,\3\,1708008057196,1708008057196,3031,3031,3646,buq,qns-item-noham,94,477972,0.0-1.0-0.93,65ce1fff833f57efd0d46f7f,AWAITING REVIEW,2024-02-15T14:30:33.555000Z,2024-02-15T14:42:23.035000Z,,2024-02-15T14:42:23.658273Z,710.0,CVPIIDEI,1816,34,Female,White,United States,United States,United States,English,No,Part-Time,Not Applicable
5dd31760fb7d41000c6610e3,,,,,,,,,,,,,,,,,,,,,65ce1fff833f57efd0d46f7f,AWAITING REVIEW,2024-02-15T14:30:33.555000Z,2024-02-15T14:42:23.035000Z,,2024-02-15T14:42:23.658273Z,710.0,CVPIIDEI,1816,34,Female,White,United States,United States,United States,English,No,Part-Time,Not Applicable
