PROLIFIC_PID,Question,qns_options,quest_num,answer,answer_num,question_load_timestamp,next_btn_timestamp,text_selected,final_text_selected,option_num_selected,preview_timestamps,final_text_selected_time_stamp,rt_first_option_click,rt_final_option_click,rt_submit_click,questionnaire,trial_type,trial_index,time_elapsed,internal_node_id,Demographic_Submission id,Demographic_Status,Demographic_Started at,Demographic_Completed at,Demographic_Reviewed at,Demographic_Archived at,Demographic_Time taken,Demographic_Completion code,Demographic_Total approvals,Demographic_Age,Demographic_Sex,Demographic_Ethnicity simplified,Demographic_Country of birth,Demographic_Country of residence,Demographic_Nationality,Demographic_Language,Demographic_Student status,Demographic_Employment status,Demographic_Custom study tncs accepted at
5e9f01c2517b95026e74c12d,<b>Knowing what?s true and knowing what to do about it are usually basically the same.,Highly disagree,1/94,Somewhat agree,3,1708007421101,1708007428678,\Somewhat agree\,\Somewhat agree\,\3\,1708007427452,1708007427452,6351,6351,7577,buq,qns-item-noham,1,14043,0.0-1.0-0.0,65ce1fdbc205f2634fb5dbb8,AWAITING REVIEW,2024-02-15T14:29:51.925000Z,2024-02-15T14:40:03.106000Z,,2024-02-15T14:40:03.662427Z,612.0,CVPIIDEI,712,22,Female,White,United States,United States,United States,English,DATA_EXPIRED,DATA_EXPIRED,Not Applicable
5e9f01c2517b95026e74c12d,<b>Most people just believe whatever is convenient for them.,Highly disagree,2/94,Highly disagree,1,1708007428688,1708007433690,\Highly disagree\,\Highly disagree\,\1\,1708007432654,1708007432654,3966,3966,5002,buq,qns-item-noham,2,19055,0.0-1.0-0.1,65ce1fdbc205f2634fb5dbb8,AWAITING REVIEW,2024-02-15T14:29:51.925000Z,2024-02-15T14:40:03.106000Z,,2024-02-15T14:40:03.662427Z,612.0,CVPIIDEI,712,22,Female,White,United States,United States,United States,English,DATA_EXPIRED,DATA_EXPIRED,Not Applicable
5e9f01c2517b95026e74c12d,<b>Having some big beliefs helps me sort out minor ones.,Highly disagree,3/94,Highly agree,4,1708007433693,1708007437622,\Highly agree\,\Highly agree\,\4\,1708007436220,1708007436220,2527,2527,3929,buq,qns-item-noham,3,22987,0.0-1.0-0.2,65ce1fdbc205f2634fb5dbb8,AWAITING REVIEW,2024-02-15T14:29:51.925000Z,2024-02-15T14:40:03.106000Z,,2024-02-15T14:40:03.662427Z,612.0,CVPIIDEI,712,22,Female,White,United States,United States,United States,English,DATA_EXPIRED,DATA_EXPIRED,Not Applicable
5e9f01c2517b95026e74c12d,<b>Political questions are usually pretty complicated.,Highly disagree,4/94,Somewhat agree,3,1708007437625,1708007440534,\Somewhat agree\,\Somewhat agree\,\3\,1708007439636,1708007439636,2011,2011,2909,buq,qns-item-noham,4,25899,0.0-1.0-0.3,65ce1fdbc205f2634fb5dbb8,AWAITING REVIEW,2024-02-15T14:29:51.925000Z,2024-02-15T14:40:03.106000Z,,2024-02-15T14:40:03.662427Z,612.0,CVPIIDEI,712,22,Female,White,United States,United States,United States,English,DATA_EXPIRED,DATA_EXPIRED,Not Applicable
5e9f01c2517b95026e74c12d,<b>Figuring out what?s important in life requires learning a lot of facts.,Highly disagree,5/94,Somewhat agree,3,1708007440537,1708007445080,\Somewhat agree\,\Somewhat agree\,\3\,1708007444361,1708007444361,3824,3824,4543,buq,qns-item-noham,5,30445,0.0-1.0-0.4,65ce1fdbc205f2634fb5dbb8,AWAITING REVIEW,2024-02-15T14:29:51.925000Z,2024-02-15T14:40:03.106000Z,,2024-02-15T14:40:03.662427Z,612.0,CVPIIDEI,712,22,Female,White,United States,United States,United States,English,DATA_EXPIRED,DATA_EXPIRED,Not Applicable
5e9f01c2517b95026e74c12d,<b>It is difficult for me to remember the last time I was surprised by politics.,Highly disagree,6/94,Somewhat disagree,2,1708007445084,1708007449324,\Somewhat disagree\,\Somewhat disagree\,\2\,1708007448602,1708007448602,3518,3518,4240,buq,qns-item-noham,6,34689,0.0-1.0-0.5,65ce1fdbc205f2634fb5dbb8,AWAITING REVIEW,2024-02-15T14:29:51.925000Z,2024-02-15T14:40:03.106000Z,,2024-02-15T14:40:03.662427Z,612.0,CVPIIDEI,712,22,Female,White,United States,United States,United States,English,DATA_EXPIRED,DATA_EXPIRED,Not Applicable
5e9f01c2517b95026e74c12d,<b>People?s false beliefs are understandable.,Highly disagree,7/94,Highly agree,4,1708007449326,1708007455430,\Somewhat agree\,\Highly agree\,\3\,1708007451861,1708007454724,2535,5398,6104,buq,qns-item-noham,7,40795,0.0-1.0-0.6,65ce1fdbc205f2634fb5dbb8,AWAITING REVIEW,2024-02-15T14:29:51.925000Z,2024-02-15T14:40:03.106000Z,,2024-02-15T14:40:03.662427Z,612.0,CVPIIDEI,712,22,Female,White,United States,United States,United States,English,DATA_EXPIRED,DATA_EXPIRED,Not Applicable
5e9f01c2517b95026e74c12d,<b>I spend a lot of time trying to be informed about politics.,Highly disagree,8/94,Somewhat agree,3,1708007455432,1708007458196,\Somewhat agree\,\Somewhat agree\,\3\,1708007457553,1708007457553,2121,2121,2764,buq,qns-item-noham,8,43561,0.0-1.0-0.7,65ce1fdbc205f2634fb5dbb8,AWAITING REVIEW,2024-02-15T14:29:51.925000Z,2024-02-15T14:40:03.106000Z,,2024-02-15T14:40:03.662427Z,612.0,CVPIIDEI,712,22,Female,White,United States,United States,United States,English,DATA_EXPIRED,DATA_EXPIRED,Not Applicable
5e9f01c2517b95026e74c12d,<b>I think a lot about whether my beliefs are right.,Highly disagree,9/94,Highly agree,4,1708007458199,1708007460265,\Highly agree\,\Highly agree\,\4\,1708007459577,1708007459577,1378,1378,2066,buq,qns-item-noham,9,45631,0.0-1.0-0.8,65ce1fdbc205f2634fb5dbb8,AWAITING REVIEW,2024-02-15T14:29:51.925000Z,2024-02-15T14:40:03.106000Z,,2024-02-15T14:40:03.662427Z,612.0,CVPIIDEI,712,22,Female,White,United States,United States,United States,English,DATA_EXPIRED,DATA_EXPIRED,Not Applicable
5e9f01c2517b95026e74c12d,<b>Statistics can be pretty misleading sometimes.,Highly disagree,10/94,Highly agree,4,1708007460268,1708007463720,\Highly agree\,\Highly agree\,\4\,1708007462940,1708007462940,2672,2672,3452,buq,qns-item-noham,10,49085,0.0-1.0-0.9,65ce1fdbc205f2634fb5dbb8,AWAITING REVIEW,2024-02-15T14:29:51.925000Z,2024-02-15T14:40:03.106000Z,,2024-02-15T14:40:03.662427Z,612.0,CVPIIDEI,712,22,Female,White,United States,United States,United States,English,DATA_EXPIRED,DATA_EXPIRED,Not Applicable
5e9f01c2517b95026e74c12d,<b>I have lots of beliefs that I?m only sort of sure about.,Highly disagree,11/94,Somewhat agree,3,1708007463722,1708007470756,\Somewhat agree\,\Somewhat agree\,\3\,1708007466835,1708007469759,3113,6037,7034,buq,qns-item-noham,11,56121,0.0-1.0-0.10,65ce1fdbc205f2634fb5dbb8,AWAITING REVIEW,2024-02-15T14:29:51.925000Z,2024-02-15T14:40:03.106000Z,,2024-02-15T14:40:03.662427Z,612.0,CVPIIDEI,712,22,Female,White,United States,United States,United States,English,DATA_EXPIRED,DATA_EXPIRED,Not Applicable
5e9f01c2517b95026e74c12d,"<b>If I go to my favorite restaurant and the food is surprisingly bad, it reminds me there are many disappointments in life.",Highly disagree,12/94,Somewhat disagree,2,1708007470763,1708007475883,\Somewhat disagree\,\Somewhat disagree\,\2\,1708007475116,1708007475116,4353,4353,5120,buq,qns-item-noham,12,61248,0.0-1.0-0.11,65ce1fdbc205f2634fb5dbb8,AWAITING REVIEW,2024-02-15T14:29:51.925000Z,2024-02-15T14:40:03.106000Z,,2024-02-15T14:40:03.662427Z,612.0,CVPIIDEI,712,22,Female,White,United States,United States,United States,English,DATA_EXPIRED,DATA_EXPIRED,Not Applicable
5e9f01c2517b95026e74c12d,"<b>If you are paying attention, please select ?Somewhat agree?",Highly disagree,13/94,Somewhat agree,3,1708007475885,1708007478909,\Somewhat agree\,\Somewhat agree\,\3\,1708007478064,1708007478064,2179,2179,3024,buq,qns-item-noham,13,64274,0.0-1.0-0.12,65ce1fdbc205f2634fb5dbb8,AWAITING REVIEW,2024-02-15T14:29:51.925000Z,2024-02-15T14:40:03.106000Z,,2024-02-15T14:40:03.662427Z,612.0,CVPIIDEI,712,22,Female,White,United States,United States,United States,English,DATA_EXPIRED,DATA_EXPIRED,Not Applicable
5e9f01c2517b95026e74c12d,"<b>When I talk to others, I often worry I?ll convince them of something I didn?t mean to.",Highly disagree,14/94,Somewhat agree,3,1708007478912,1708007487556,\Highly agree\,\Somewhat agree\,\4\,1708007482958,1708007486586,4046,7674,8644,buq,qns-item-noham,14,72921,0.0-1.0-0.13,65ce1fdbc205f2634fb5dbb8,AWAITING REVIEW,2024-02-15T14:29:51.925000Z,2024-02-15T14:40:03.106000Z,,2024-02-15T14:40:03.662427Z,612.0,CVPIIDEI,712,22,Female,White,United States,United States,United States,English,DATA_EXPIRED,DATA_EXPIRED,Not Applicable
5e9f01c2517b95026e74c12d,<b>I would need to learn something utterly shocking about my party in order to change my political views.,Highly disagree,15/94,Highly disagree,1,1708007487561,1708007492237,\Highly disagree\,\Highly disagree\,\1\,1708007491581,1708007491581,4020,4020,4676,buq,qns-item-noham,15,77602,0.0-1.0-0.14,65ce1fdbc205f2634fb5dbb8,AWAITING REVIEW,2024-02-15T14:29:51.925000Z,2024-02-15T14:40:03.106000Z,,2024-02-15T14:40:03.662427Z,612.0,CVPIIDEI,712,22,Female,White,United States,United States,United States,English,DATA_EXPIRED,DATA_EXPIRED,Not Applicable
5e9f01c2517b95026e74c12d,"<b>When I have new experiences, I tend to think of them as unique.",Highly disagree,16/94,Highly agree,4,1708007492240,1708007495707,\Highly agree\,\Highly agree\,\4\,1708007494941,1708007494941,2701,2701,3467,buq,qns-item-noham,16,81072,0.0-1.0-0.15,65ce1fdbc205f2634fb5dbb8,AWAITING REVIEW,2024-02-15T14:29:51.925000Z,2024-02-15T14:40:03.106000Z,,2024-02-15T14:40:03.662427Z,612.0,CVPIIDEI,712,22,Female,White,United States,United States,United States,English,DATA_EXPIRED,DATA_EXPIRED,Not Applicable
5e9f01c2517b95026e74c12d,<b>I change my mind about specific policies pretty frequently.,Highly disagree,17/94,Somewhat disagree,2,1708007495709,1708007499684,\Somewhat disagree\,\Somewhat disagree\,\2\,1708007498543,1708007498543,2834,2834,3975,buq,qns-item-noham,17,85049,0.0-1.0-0.16,65ce1fdbc205f2634fb5dbb8,AWAITING REVIEW,2024-02-15T14:29:51.925000Z,2024-02-15T14:40:03.106000Z,,2024-02-15T14:40:03.662427Z,612.0,CVPIIDEI,712,22,Female,White,United States,United States,United States,English,DATA_EXPIRED,DATA_EXPIRED,Not Applicable
5e9f01c2517b95026e74c12d,"<b>If a politician in my political party supports something I disagree with, I give them the benefit of the doubt, as such issues often involve hidden complexities that aren?t obvious.   ",Highly disagree,18/94,Somewhat disagree,2,1708007499687,1708007505654,\Somewhat disagree\,\Somewhat disagree\,\2\,1708007504950,1708007504950,5263,5263,5967,buq,qns-item-noham,18,91019,0.0-1.0-0.17,65ce1fdbc205f2634fb5dbb8,AWAITING REVIEW,2024-02-15T14:29:51.925000Z,2024-02-15T14:40:03.106000Z,,2024-02-15T14:40:03.662427Z,612.0,CVPIIDEI,712,22,Female,White,United States,United States,United States,English,DATA_EXPIRED,DATA_EXPIRED,Not Applicable
5e9f01c2517b95026e74c12d,<b>People?s bad politics are usually motivated by hatefulness.,Highly disagree,19/94,Somewhat disagree,2,1708007505656,1708007511178,\Somewhat agree\,\Somewhat disagree\,\3\,1708007509093,1708007510441,3437,4785,5522,buq,qns-item-noham,19,96543,0.0-1.0-0.18,65ce1fdbc205f2634fb5dbb8,AWAITING REVIEW,2024-02-15T14:29:51.925000Z,2024-02-15T14:40:03.106000Z,,2024-02-15T14:40:03.662427Z,612.0,CVPIIDEI,712,22,Female,White,United States,United States,United States,English,DATA_EXPIRED,DATA_EXPIRED,Not Applicable
5e9f01c2517b95026e74c12d,<b>I think a lot about how to reconcile my beliefs with one another.,Highly disagree,20/94,Highly agree,4,1708007511183,1708007514447,\Highly agree\,\Highly agree\,\4\,1708007513035,1708007513035,1852,1852,3264,buq,qns-item-noham,20,99812,0.0-1.0-0.19,65ce1fdbc205f2634fb5dbb8,AWAITING REVIEW,2024-02-15T14:29:51.925000Z,2024-02-15T14:40:03.106000Z,,2024-02-15T14:40:03.662427Z,612.0,CVPIIDEI,712,22,Female,White,United States,United States,United States,English,DATA_EXPIRED,DATA_EXPIRED,Not Applicable
5e9f01c2517b95026e74c12d,<b>I might have false beliefs about important topics.,Highly disagree,21/94,Somewhat disagree,2,1708007514452,1708007518402,\Somewhat disagree\,\Somewhat disagree\,\2\,1708007517337,1708007517337,2885,2885,3950,buq,qns-item-noham,21,103768,0.0-1.0-0.20,65ce1fdbc205f2634fb5dbb8,AWAITING REVIEW,2024-02-15T14:29:51.925000Z,2024-02-15T14:40:03.106000Z,,2024-02-15T14:40:03.662427Z,612.0,CVPIIDEI,712,22,Female,White,United States,United States,United States,English,DATA_EXPIRED,DATA_EXPIRED,Not Applicable
5e9f01c2517b95026e74c12d,"<b>If a good friend of mine does something unexpected that upsets me, I feel like I don?t know them anymore.",Highly disagree,22/94,Somewhat disagree,2,1708007518404,1708007524092,\Somewhat disagree\,\Somewhat disagree\,\2\,1708007523296,1708007523296,4892,4892,5688,buq,qns-item-noham,22,109457,0.0-1.0-0.21,65ce1fdbc205f2634fb5dbb8,AWAITING REVIEW,2024-02-15T14:29:51.925000Z,2024-02-15T14:40:03.106000Z,,2024-02-15T14:40:03.662427Z,612.0,CVPIIDEI,712,22,Female,White,United States,United States,United States,English,DATA_EXPIRED,DATA_EXPIRED,Not Applicable
5e9f01c2517b95026e74c12d,<b>Other people?s beliefs are often incoherent.,Highly disagree,23/94,Highly disagree,1,1708007524094,1708007527144,\Highly disagree\,\Highly disagree\,\1\,1708007526348,1708007526348,2254,2254,3050,buq,qns-item-noham,23,112509,0.0-1.0-0.22,65ce1fdbc205f2634fb5dbb8,AWAITING REVIEW,2024-02-15T14:29:51.925000Z,2024-02-15T14:40:03.106000Z,,2024-02-15T14:40:03.662427Z,612.0,CVPIIDEI,712,22,Female,White,United States,United States,United States,English,DATA_EXPIRED,DATA_EXPIRED,Not Applicable
5e9f01c2517b95026e74c12d,"<b>Every now and then, a new experience will unsettle beliefs I?ve had for a while.",Highly disagree,24/94,Somewhat agree,3,1708007527147,1708007614580,\Somewhat agree\,\Somewhat agree\,\3\,1708007613580,1708007613580,86433,86433,87433,buq,qns-item-noham,24,199945,0.0-1.0-0.23,65ce1fdbc205f2634fb5dbb8,AWAITING REVIEW,2024-02-15T14:29:51.925000Z,2024-02-15T14:40:03.106000Z,,2024-02-15T14:40:03.662427Z,612.0,CVPIIDEI,712,22,Female,White,United States,United States,United States,English,DATA_EXPIRED,DATA_EXPIRED,Not Applicable
5e9f01c2517b95026e74c12d,<b>Some policies I agree with in principle are so bad I don?t support them. ,Highly disagree,25/94,Somewhat disagree,2,1708007614582,1708007620550,\Somewhat disagree\,\Somewhat disagree\,\2\,1708007619800,1708007619800,5218,5218,5968,buq,qns-item-noham,25,205915,0.0-1.0-0.24,65ce1fdbc205f2634fb5dbb8,AWAITING REVIEW,2024-02-15T14:29:51.925000Z,2024-02-15T14:40:03.106000Z,,2024-02-15T14:40:03.662427Z,612.0,CVPIIDEI,712,22,Female,White,United States,United States,United States,English,DATA_EXPIRED,DATA_EXPIRED,Not Applicable
5e9f01c2517b95026e74c12d,<b>I?m pretty sure I?ve accidentally spread false information.,Highly disagree,26/94,Somewhat agree,3,1708007620552,1708007623426,\Somewhat agree\,\Somewhat agree\,\3\,1708007622676,1708007622676,2124,2124,2874,buq,qns-item-noham,26,208791,0.0-1.0-0.25,65ce1fdbc205f2634fb5dbb8,AWAITING REVIEW,2024-02-15T14:29:51.925000Z,2024-02-15T14:40:03.106000Z,,2024-02-15T14:40:03.662427Z,612.0,CVPIIDEI,712,22,Female,White,United States,United States,United States,English,DATA_EXPIRED,DATA_EXPIRED,Not Applicable
5e9f01c2517b95026e74c12d,"<b>If I go to my favorite restaurant and the food is unexpectedly bad, then they have changed owners.",Highly disagree,27/94,Highly disagree,1,1708007623428,1708007627022,\Highly disagree\,\Highly disagree\,\1\,1708007626130,1708007626130,2702,2702,3594,buq,qns-item-noham,27,212387,0.0-1.0-0.26,65ce1fdbc205f2634fb5dbb8,AWAITING REVIEW,2024-02-15T14:29:51.925000Z,2024-02-15T14:40:03.106000Z,,2024-02-15T14:40:03.662427Z,612.0,CVPIIDEI,712,22,Female,White,United States,United States,United States,English,DATA_EXPIRED,DATA_EXPIRED,Not Applicable
5e9f01c2517b95026e74c12d,"<b>In politics, it?s important to trust your friends and family.",Highly disagree,28/94,Somewhat agree,3,1708007627024,1708007630197,\Highly agree\,\Somewhat agree\,\4\,1708007628870,1708007629445,1846,2421,3173,buq,qns-item-noham,28,215562,0.0-1.0-0.27,65ce1fdbc205f2634fb5dbb8,AWAITING REVIEW,2024-02-15T14:29:51.925000Z,2024-02-15T14:40:03.106000Z,,2024-02-15T14:40:03.662427Z,612.0,CVPIIDEI,712,22,Female,White,United States,United States,United States,English,DATA_EXPIRED,DATA_EXPIRED,Not Applicable
5e9f01c2517b95026e74c12d,<b>It?s OK to have some conflicting beliefs.,Highly disagree,29/94,Highly agree,4,1708007630203,1708007632857,\Highly agree\,\Highly agree\,\4\,1708007631698,1708007631698,1495,1495,2654,buq,qns-item-noham,29,218222,0.0-1.0-0.28,65ce1fdbc205f2634fb5dbb8,AWAITING REVIEW,2024-02-15T14:29:51.925000Z,2024-02-15T14:40:03.106000Z,,2024-02-15T14:40:03.662427Z,612.0,CVPIIDEI,712,22,Female,White,United States,United States,United States,English,DATA_EXPIRED,DATA_EXPIRED,Not Applicable
5e9f01c2517b95026e74c12d,<b>Listening to people I disagree with makes my opinions better.,Highly disagree,30/94,Highly agree,4,1708007632863,1708007635199,\Highly agree\,\Highly agree\,\4\,1708007634496,1708007634496,1633,1633,2336,buq,qns-item-noham,30,220564,0.0-1.0-0.29,65ce1fdbc205f2634fb5dbb8,AWAITING REVIEW,2024-02-15T14:29:51.925000Z,2024-02-15T14:40:03.106000Z,,2024-02-15T14:40:03.662427Z,612.0,CVPIIDEI,712,22,Female,White,United States,United States,United States,English,DATA_EXPIRED,DATA_EXPIRED,Not Applicable
5e9f01c2517b95026e74c12d,<b>My moral compass sometimes makes it harder to determine what?s true.,Highly disagree,31/94,Highly disagree,1,1708007635202,1708007639420,\Highly disagree\,\Highly disagree\,\1\,1708007638749,1708007638749,3547,3547,4218,buq,qns-item-noham,31,224785,0.0-1.0-0.30,65ce1fdbc205f2634fb5dbb8,AWAITING REVIEW,2024-02-15T14:29:51.925000Z,2024-02-15T14:40:03.106000Z,,2024-02-15T14:40:03.662427Z,612.0,CVPIIDEI,712,22,Female,White,United States,United States,United States,English,DATA_EXPIRED,DATA_EXPIRED,Not Applicable
5e9f01c2517b95026e74c12d,<b>Evidence pointing in the wrong direction isn?t really evidence at all.,Highly disagree,32/94,Highly agree,4,1708007639423,1708007643418,\Highly agree\,\Highly agree\,\4\,1708007642600,1708007642600,3177,3177,3995,buq,qns-item-noham,32,228783,0.0-1.0-0.31,65ce1fdbc205f2634fb5dbb8,AWAITING REVIEW,2024-02-15T14:29:51.925000Z,2024-02-15T14:40:03.106000Z,,2024-02-15T14:40:03.662427Z,612.0,CVPIIDEI,712,22,Female,White,United States,United States,United States,English,DATA_EXPIRED,DATA_EXPIRED,Not Applicable
5e9f01c2517b95026e74c12d,"<b>If the political party I support messes up, it makes me think politics is rotten.",Highly disagree,33/94,Somewhat agree,3,1708007643422,1708007646875,\Somewhat agree\,\Somewhat agree\,\3\,1708007646187,1708007646187,2765,2765,3453,buq,qns-item-noham,33,232240,0.0-1.0-0.32,65ce1fdbc205f2634fb5dbb8,AWAITING REVIEW,2024-02-15T14:29:51.925000Z,2024-02-15T14:40:03.106000Z,,2024-02-15T14:40:03.662427Z,612.0,CVPIIDEI,712,22,Female,White,United States,United States,United States,English,DATA_EXPIRED,DATA_EXPIRED,Not Applicable
5e9f01c2517b95026e74c12d,<b>Lots of important topics can only really be understood by some groups of people.,Highly disagree,34/94,Somewhat agree,3,1708007646877,1708007651896,\Somewhat disagree\,\Somewhat agree\,\2\,1708007650270,1708007650787,3393,3910,5019,buq,qns-item-noham,34,237261,0.0-1.0-0.33,65ce1fdbc205f2634fb5dbb8,AWAITING REVIEW,2024-02-15T14:29:51.925000Z,2024-02-15T14:40:03.106000Z,,2024-02-15T14:40:03.662427Z,612.0,CVPIIDEI,712,22,Female,White,United States,United States,United States,English,DATA_EXPIRED,DATA_EXPIRED,Not Applicable
5e9f01c2517b95026e74c12d,<b>Having conflicting beliefs means you haven?t thought about them enough.,Highly disagree,35/94,Somewhat disagree,2,1708007651898,1708007656140,\Somewhat disagree\,\Somewhat disagree\,\2\,1708007655093,1708007655093,3195,3195,4242,buq,qns-item-noham,35,241506,0.0-1.0-0.34,65ce1fdbc205f2634fb5dbb8,AWAITING REVIEW,2024-02-15T14:29:51.925000Z,2024-02-15T14:40:03.106000Z,,2024-02-15T14:40:03.662427Z,612.0,CVPIIDEI,712,22,Female,White,United States,United States,United States,English,DATA_EXPIRED,DATA_EXPIRED,Not Applicable
5e9f01c2517b95026e74c12d,<b>I do not often change my political opinions.,Highly disagree,36/94,Somewhat disagree,2,1708007656143,1708007659504,\Somewhat disagree\,\Somewhat disagree\,\2\,1708007658785,1708007658785,2642,2642,3361,buq,qns-item-noham,36,244869,0.0-1.0-0.35,65ce1fdbc205f2634fb5dbb8,AWAITING REVIEW,2024-02-15T14:29:51.925000Z,2024-02-15T14:40:03.106000Z,,2024-02-15T14:40:03.662427Z,612.0,CVPIIDEI,712,22,Female,White,United States,United States,United States,English,DATA_EXPIRED,DATA_EXPIRED,Not Applicable
5e9f01c2517b95026e74c12d,<b>It?s difficult to not have at least some conflicting beliefs.,Highly disagree,37/94,Highly agree,4,1708007659507,1708007663803,\Somewhat agree\,\Highly agree\,\3\,1708007661879,1708007663055,2372,3548,4296,buq,qns-item-noham,37,249168,0.0-1.0-0.36,65ce1fdbc205f2634fb5dbb8,AWAITING REVIEW,2024-02-15T14:29:51.925000Z,2024-02-15T14:40:03.106000Z,,2024-02-15T14:40:03.662427Z,612.0,CVPIIDEI,712,22,Female,White,United States,United States,United States,English,DATA_EXPIRED,DATA_EXPIRED,Not Applicable
5e9f01c2517b95026e74c12d,<b>Wishful thinking causes a lot of problems.,Highly disagree,38/94,Somewhat disagree,2,1708007663809,1708007667458,\Somewhat disagree\,\Somewhat disagree\,\2\,1708007666460,1708007666460,2651,2651,3649,buq,qns-item-noham,38,252823,0.0-1.0-0.37,65ce1fdbc205f2634fb5dbb8,AWAITING REVIEW,2024-02-15T14:29:51.925000Z,2024-02-15T14:40:03.106000Z,,2024-02-15T14:40:03.662427Z,612.0,CVPIIDEI,712,22,Female,White,United States,United States,United States,English,DATA_EXPIRED,DATA_EXPIRED,Not Applicable
5e9f01c2517b95026e74c12d,<b>I judge a food item only once I try it many times.,Highly disagree,39/94,Somewhat agree,3,1708007667460,1708007671946,\Somewhat agree\,\Somewhat agree\,\3\,1708007670915,1708007670915,3455,3455,4486,buq,qns-item-noham,39,257311,0.0-1.0-0.38,65ce1fdbc205f2634fb5dbb8,AWAITING REVIEW,2024-02-15T14:29:51.925000Z,2024-02-15T14:40:03.106000Z,,2024-02-15T14:40:03.662427Z,612.0,CVPIIDEI,712,22,Female,White,United States,United States,United States,English,DATA_EXPIRED,DATA_EXPIRED,Not Applicable
5e9f01c2517b95026e74c12d,"<b>When a person holds conflicting beliefs, they should really try to figure out what?s wrong.",Highly disagree,40/94,Somewhat agree,3,1708007671949,1708007677799,\Somewhat agree\,\Somewhat agree\,\3\,1708007677065,1708007677065,5116,5116,5850,buq,qns-item-noham,40,263164,0.0-1.0-0.39,65ce1fdbc205f2634fb5dbb8,AWAITING REVIEW,2024-02-15T14:29:51.925000Z,2024-02-15T14:40:03.106000Z,,2024-02-15T14:40:03.662427Z,612.0,CVPIIDEI,712,22,Female,White,United States,United States,United States,English,DATA_EXPIRED,DATA_EXPIRED,Not Applicable
5e9f01c2517b95026e74c12d,<b>Knowing what?s important in life is easy.,Highly disagree,41/94,Highly disagree,1,1708007677801,1708007681146,\Highly disagree\,\Highly disagree\,\1\,1708007680253,1708007680253,2452,2452,3345,buq,qns-item-noham,41,266511,0.0-1.0-0.40,65ce1fdbc205f2634fb5dbb8,AWAITING REVIEW,2024-02-15T14:29:51.925000Z,2024-02-15T14:40:03.106000Z,,2024-02-15T14:40:03.662427Z,612.0,CVPIIDEI,712,22,Female,White,United States,United States,United States,English,DATA_EXPIRED,DATA_EXPIRED,Not Applicable
5e9f01c2517b95026e74c12d,<b>I swim across the Atlantic Ocean to get to work every day.,Highly disagree,42/94,Highly disagree,1,1708007681148,1708007684612,\Highly disagree\,\Highly disagree\,\1\,1708007683754,1708007683754,2606,2606,3464,buq,qns-item-noham,42,269977,0.0-1.0-0.41,65ce1fdbc205f2634fb5dbb8,AWAITING REVIEW,2024-02-15T14:29:51.925000Z,2024-02-15T14:40:03.106000Z,,2024-02-15T14:40:03.662427Z,612.0,CVPIIDEI,712,22,Female,White,United States,United States,United States,English,DATA_EXPIRED,DATA_EXPIRED,Not Applicable
5e9f01c2517b95026e74c12d,"<b>Sometimes, you just have to ignore evidence that you know is wrong.",Highly disagree,43/94,Highly agree,4,1708007684615,1708007688868,\Somewhat agree\,\Highly agree\,\3\,1708007687386,1708007688008,2771,3393,4253,buq,qns-item-noham,43,274233,0.0-1.0-0.42,65ce1fdbc205f2634fb5dbb8,AWAITING REVIEW,2024-02-15T14:29:51.925000Z,2024-02-15T14:40:03.106000Z,,2024-02-15T14:40:03.662427Z,612.0,CVPIIDEI,712,22,Female,White,United States,United States,United States,English,DATA_EXPIRED,DATA_EXPIRED,Not Applicable
5e9f01c2517b95026e74c12d,<b>I have had some false beliefs.,Highly disagree,44/94,Somewhat agree,3,1708007688874,1708007691766,\Somewhat agree\,\Somewhat agree\,\3\,1708007690799,1708007690799,1925,1925,2892,buq,qns-item-noham,44,277131,0.0-1.0-0.43,65ce1fdbc205f2634fb5dbb8,AWAITING REVIEW,2024-02-15T14:29:51.925000Z,2024-02-15T14:40:03.106000Z,,2024-02-15T14:40:03.662427Z,612.0,CVPIIDEI,712,22,Female,White,United States,United States,United States,English,DATA_EXPIRED,DATA_EXPIRED,Not Applicable
5e9f01c2517b95026e74c12d,"<b>If one friend does something that upsets me, I sometimes start to distrust people in general.",Highly disagree,45/94,Somewhat agree,3,1708007691768,1708007696944,\Somewhat disagree\,\Somewhat agree\,\2\,1708007695424,1708007696267,3656,4499,5176,buq,qns-item-noham,45,282309,0.0-1.0-0.44,65ce1fdbc205f2634fb5dbb8,AWAITING REVIEW,2024-02-15T14:29:51.925000Z,2024-02-15T14:40:03.106000Z,,2024-02-15T14:40:03.662427Z,612.0,CVPIIDEI,712,22,Female,White,United States,United States,United States,English,DATA_EXPIRED,DATA_EXPIRED,Not Applicable
5e9f01c2517b95026e74c12d,<b>The facts about most important matters are easy to find.,Highly disagree,46/94,Somewhat disagree,2,1708007696949,1708007701976,\Somewhat agree\,\Somewhat disagree\,\3\,1708007699944,1708007701054,2995,4105,5027,buq,qns-item-noham,46,287341,0.0-1.0-0.45,65ce1fdbc205f2634fb5dbb8,AWAITING REVIEW,2024-02-15T14:29:51.925000Z,2024-02-15T14:40:03.106000Z,,2024-02-15T14:40:03.662427Z,612.0,CVPIIDEI,712,22,Female,White,United States,United States,United States,English,DATA_EXPIRED,DATA_EXPIRED,Not Applicable
5e9f01c2517b95026e74c12d,<b>It?s better to know what?s true than to know what?s moral.,Highly disagree,47/94,Somewhat disagree,2,1708007701978,1708007705849,\Somewhat disagree\,\Somewhat disagree\,\2\,1708007705179,1708007705179,3201,3201,3871,buq,qns-item-noham,47,291214,0.0-1.0-0.46,65ce1fdbc205f2634fb5dbb8,AWAITING REVIEW,2024-02-15T14:29:51.925000Z,2024-02-15T14:40:03.106000Z,,2024-02-15T14:40:03.662427Z,612.0,CVPIIDEI,712,22,Female,White,United States,United States,United States,English,DATA_EXPIRED,DATA_EXPIRED,Not Applicable
5e9f01c2517b95026e74c12d,<b>I used to think the world was less complicated than I do now.,Highly disagree,48/94,Highly agree,4,1708007705852,1708007709038,\Highly agree\,\Highly agree\,\4\,1708007708288,1708007708288,2436,2436,3186,buq,qns-item-noham,48,294403,0.0-1.0-0.47,65ce1fdbc205f2634fb5dbb8,AWAITING REVIEW,2024-02-15T14:29:51.925000Z,2024-02-15T14:40:03.106000Z,,2024-02-15T14:40:03.662427Z,612.0,CVPIIDEI,712,22,Female,White,United States,United States,United States,English,DATA_EXPIRED,DATA_EXPIRED,Not Applicable
5e9f01c2517b95026e74c12d,<b>People are usually completely right or completely wrong.,Highly disagree,49/94,Highly disagree,1,1708007709039,1708007712320,\Highly disagree\,\Highly disagree\,\1\,1708007711492,1708007711492,2453,2453,3281,buq,qns-item-noham,49,297685,0.0-1.0-0.48,65ce1fdbc205f2634fb5dbb8,AWAITING REVIEW,2024-02-15T14:29:51.925000Z,2024-02-15T14:40:03.106000Z,,2024-02-15T14:40:03.662427Z,612.0,CVPIIDEI,712,22,Female,White,United States,United States,United States,English,DATA_EXPIRED,DATA_EXPIRED,Not Applicable
5e9f01c2517b95026e74c12d,<b>I spend a lot of time considering alternatives to my beliefs.,Highly disagree,50/94,Somewhat agree,3,1708007712322,1708007717966,\Somewhat agree\,\Somewhat agree\,\3\,1708007716982,1708007716982,4660,4660,5644,buq,qns-item-noham,50,303331,0.0-1.0-0.49,65ce1fdbc205f2634fb5dbb8,AWAITING REVIEW,2024-02-15T14:29:51.925000Z,2024-02-15T14:40:03.106000Z,,2024-02-15T14:40:03.662427Z,612.0,CVPIIDEI,712,22,Female,White,United States,United States,United States,English,DATA_EXPIRED,DATA_EXPIRED,Not Applicable
5e9f01c2517b95026e74c12d,"<b>Political enemies need to be defeated, not convinced.",Highly disagree,51/94,Highly disagree,1,1708007717968,1708007721374,\Highly disagree\,\Highly disagree\,\1\,1708007720358,1708007720358,2390,2390,3406,buq,qns-item-noham,51,306739,0.0-1.0-0.50,65ce1fdbc205f2634fb5dbb8,AWAITING REVIEW,2024-02-15T14:29:51.925000Z,2024-02-15T14:40:03.106000Z,,2024-02-15T14:40:03.662427Z,612.0,CVPIIDEI,712,22,Female,White,United States,United States,United States,English,DATA_EXPIRED,DATA_EXPIRED,Not Applicable
5e9f01c2517b95026e74c12d,<b>I form my political views only after meticulously gathering historical and present information about their policies.,Highly disagree,52/94,Somewhat agree,3,1708007721376,1708007725939,\Somewhat agree\,\Somewhat agree\,\3\,1708007724955,1708007724955,3579,3579,4563,buq,qns-item-noham,52,311304,0.0-1.0-0.51,65ce1fdbc205f2634fb5dbb8,AWAITING REVIEW,2024-02-15T14:29:51.925000Z,2024-02-15T14:40:03.106000Z,,2024-02-15T14:40:03.662427Z,612.0,CVPIIDEI,712,22,Female,White,United States,United States,United States,English,DATA_EXPIRED,DATA_EXPIRED,Not Applicable
5e9f01c2517b95026e74c12d,<b>It is difficult for me to remember the last time I was surprised by politics.,Highly disagree,53/94,Highly disagree,1,1708007725941,1708007731054,\Highly disagree\,\Highly disagree\,\1\,1708007730223,1708007730223,4282,4282,5113,buq,qns-item-noham,53,316419,0.0-1.0-0.52,65ce1fdbc205f2634fb5dbb8,AWAITING REVIEW,2024-02-15T14:29:51.925000Z,2024-02-15T14:40:03.106000Z,,2024-02-15T14:40:03.662427Z,612.0,CVPIIDEI,712,22,Female,White,United States,United States,United States,English,DATA_EXPIRED,DATA_EXPIRED,Not Applicable
5e9f01c2517b95026e74c12d,"<b>When I find out I?m wrong, I think a lot about my related beliefs.",Highly disagree,54/94,Highly agree,4,1708007731056,1708007739322,\Highly agree\,\Highly agree\,\4\,1708007738586,1708007738586,7530,7530,8266,buq,qns-item-noham,54,324687,0.0-1.0-0.53,65ce1fdbc205f2634fb5dbb8,AWAITING REVIEW,2024-02-15T14:29:51.925000Z,2024-02-15T14:40:03.106000Z,,2024-02-15T14:40:03.662427Z,612.0,CVPIIDEI,712,22,Female,White,United States,United States,United States,English,DATA_EXPIRED,DATA_EXPIRED,Not Applicable
5e9f01c2517b95026e74c12d,"<b>If the political party I support messes up, it makes me think you can?t trust anyone these days",Highly disagree,55/94,Somewhat agree,3,1708007739324,1708007742833,\Somewhat agree\,\Somewhat agree\,\3\,1708007742114,1708007742114,2790,2790,3509,buq,qns-item-noham,55,328198,0.0-1.0-0.54,65ce1fdbc205f2634fb5dbb8,AWAITING REVIEW,2024-02-15T14:29:51.925000Z,2024-02-15T14:40:03.106000Z,,2024-02-15T14:40:03.662427Z,612.0,CVPIIDEI,712,22,Female,White,United States,United States,United States,English,DATA_EXPIRED,DATA_EXPIRED,Not Applicable
5e9f01c2517b95026e74c12d,<b>People?s brains turn off when they talk about politics.,Highly disagree,56/94,Highly disagree,1,1708007742836,1708007746286,\Highly disagree\,\Highly disagree\,\1\,1708007745287,1708007745287,2451,2451,3450,buq,qns-item-noham,56,331651,0.0-1.0-0.55,65ce1fdbc205f2634fb5dbb8,AWAITING REVIEW,2024-02-15T14:29:51.925000Z,2024-02-15T14:40:03.106000Z,,2024-02-15T14:40:03.662427Z,612.0,CVPIIDEI,712,22,Female,White,United States,United States,United States,English,DATA_EXPIRED,DATA_EXPIRED,Not Applicable
5e9f01c2517b95026e74c12d,<b>People who are wrong are usually just ignoring the obvious.,Highly disagree,57/94,Somewhat disagree,2,1708007746289,1708007750148,\Somewhat disagree\,\Somewhat disagree\,\2\,1708007749289,1708007749289,3000,3000,3859,buq,qns-item-noham,57,335513,0.0-1.0-0.56,65ce1fdbc205f2634fb5dbb8,AWAITING REVIEW,2024-02-15T14:29:51.925000Z,2024-02-15T14:40:03.106000Z,,2024-02-15T14:40:03.662427Z,612.0,CVPIIDEI,712,22,Female,White,United States,United States,United States,English,DATA_EXPIRED,DATA_EXPIRED,Not Applicable
5e9f01c2517b95026e74c12d,"<b>When forming my views on people, I rely more on what they are like now rather than rely on my past experience with them.",Highly disagree,58/94,Somewhat disagree,2,1708007750150,1708007756633,\Somewhat disagree\,\Somewhat disagree\,\2\,1708007755885,1708007755885,5735,5735,6483,buq,qns-item-noham,58,341998,0.0-1.0-0.57,65ce1fdbc205f2634fb5dbb8,AWAITING REVIEW,2024-02-15T14:29:51.925000Z,2024-02-15T14:40:03.106000Z,,2024-02-15T14:40:03.662427Z,612.0,CVPIIDEI,712,22,Female,White,United States,United States,United States,English,DATA_EXPIRED,DATA_EXPIRED,Not Applicable
5e9f01c2517b95026e74c12d,"<b>When people contradict my beliefs, I usually know about their evidence already.",Highly disagree,59/94,Highly disagree,1,1708007756636,1708007761151,\Highly disagree\,\Highly disagree\,\1\,1708007760512,1708007760512,3876,3876,4515,buq,qns-item-noham,59,346516,0.0-1.0-0.58,65ce1fdbc205f2634fb5dbb8,AWAITING REVIEW,2024-02-15T14:29:51.925000Z,2024-02-15T14:40:03.106000Z,,2024-02-15T14:40:03.662427Z,612.0,CVPIIDEI,712,22,Female,White,United States,United States,United States,English,DATA_EXPIRED,DATA_EXPIRED,Not Applicable
5e9f01c2517b95026e74c12d,<b>Figuring out what?s true and what?s false mainly requires a strong moral compass.,Highly disagree,60/94,Somewhat agree,3,1708007761153,1708007764978,\Somewhat agree\,\Somewhat agree\,\3\,1708007763654,1708007763654,2501,2501,3825,buq,qns-item-noham,60,350343,0.0-1.0-0.59,65ce1fdbc205f2634fb5dbb8,AWAITING REVIEW,2024-02-15T14:29:51.925000Z,2024-02-15T14:40:03.106000Z,,2024-02-15T14:40:03.662427Z,612.0,CVPIIDEI,712,22,Female,White,United States,United States,United States,English,DATA_EXPIRED,DATA_EXPIRED,Not Applicable
5e9f01c2517b95026e74c12d,"<b>Usually I?m wrong about simple things, not complicated ones.",Highly disagree,61/94,Somewhat agree,3,1708007764983,1708007769496,\Somewhat agree\,\Somewhat agree\,\3\,1708007768481,1708007768481,3498,3498,4513,buq,qns-item-noham,61,354861,0.0-1.0-0.60,65ce1fdbc205f2634fb5dbb8,AWAITING REVIEW,2024-02-15T14:29:51.925000Z,2024-02-15T14:40:03.106000Z,,2024-02-15T14:40:03.662427Z,612.0,CVPIIDEI,712,22,Female,White,United States,United States,United States,English,DATA_EXPIRED,DATA_EXPIRED,Not Applicable
5e9f01c2517b95026e74c12d,<b>Getting all the information I want about important things is hard.,Highly disagree,62/94,Highly agree,4,1708007769498,1708007774972,\Highly agree\,\Highly agree\,\4\,1708007773954,1708007773954,4456,4456,5474,buq,qns-item-noham,62,360337,0.0-1.0-0.61,65ce1fdbc205f2634fb5dbb8,AWAITING REVIEW,2024-02-15T14:29:51.925000Z,2024-02-15T14:40:03.106000Z,,2024-02-15T14:40:03.662427Z,612.0,CVPIIDEI,712,22,Female,White,United States,United States,United States,English,DATA_EXPIRED,DATA_EXPIRED,Not Applicable
5e9f01c2517b95026e74c12d,<b>Most false beliefs spread because people try to deceive one another.,Highly disagree,63/94,Highly disagree,1,1708007774975,1708007779817,\Somewhat disagree\,\Highly disagree\,\2\,1708007777407,1708007777971,2432,2996,4842,buq,qns-item-noham,63,365182,0.0-1.0-0.62,65ce1fdbc205f2634fb5dbb8,AWAITING REVIEW,2024-02-15T14:29:51.925000Z,2024-02-15T14:40:03.106000Z,,2024-02-15T14:40:03.662427Z,612.0,CVPIIDEI,712,22,Female,White,United States,United States,United States,English,DATA_EXPIRED,DATA_EXPIRED,Not Applicable
5e9f01c2517b95026e74c12d,<b>I can usually find something to agree with in most people?s beliefs.,Highly disagree,64/94,Highly agree,4,1708007779822,1708007783802,\Highly agree\,\Highly agree\,\4\,1708007782770,1708007782770,2948,2948,3980,buq,qns-item-noham,64,369167,0.0-1.0-0.63,65ce1fdbc205f2634fb5dbb8,AWAITING REVIEW,2024-02-15T14:29:51.925000Z,2024-02-15T14:40:03.106000Z,,2024-02-15T14:40:03.662427Z,612.0,CVPIIDEI,712,22,Female,White,United States,United States,United States,English,DATA_EXPIRED,DATA_EXPIRED,Not Applicable
5e9f01c2517b95026e74c12d,<b>I only form my views of people once I get to know them very well.,Highly disagree,65/94,Somewhat disagree,2,1708007783804,1708007787976,\Somewhat disagree\,\Somewhat disagree\,\2\,1708007786930,1708007786930,3126,3126,4172,buq,qns-item-noham,65,373342,0.0-1.0-0.64,65ce1fdbc205f2634fb5dbb8,AWAITING REVIEW,2024-02-15T14:29:51.925000Z,2024-02-15T14:40:03.106000Z,,2024-02-15T14:40:03.662427Z,612.0,CVPIIDEI,712,22,Female,White,United States,United States,United States,English,DATA_EXPIRED,DATA_EXPIRED,Not Applicable
5e9f01c2517b95026e74c12d,"<b>When people tell me important things about the world, I usually believe them.",Highly disagree,66/94,Highly agree,4,1708007787979,1708007793104,\Highly agree\,\Highly agree\,\4\,1708007792104,1708007792104,4125,4125,5125,buq,qns-item-noham,66,378469,0.0-1.0-0.65,65ce1fdbc205f2634fb5dbb8,AWAITING REVIEW,2024-02-15T14:29:51.925000Z,2024-02-15T14:40:03.106000Z,,2024-02-15T14:40:03.662427Z,612.0,CVPIIDEI,712,22,Female,White,United States,United States,United States,English,DATA_EXPIRED,DATA_EXPIRED,Not Applicable
5e9f01c2517b95026e74c12d,"<b>If a friend does something that upsets me, it reminds me what an unpredictable place the world is.",Highly disagree,67/94,Somewhat agree,3,1708007793106,1708007797871,\Somewhat agree\,\Somewhat agree\,\3\,1708007797153,1708007797153,4047,4047,4765,buq,qns-item-noham,67,383236,0.0-1.0-0.66,65ce1fdbc205f2634fb5dbb8,AWAITING REVIEW,2024-02-15T14:29:51.925000Z,2024-02-15T14:40:03.106000Z,,2024-02-15T14:40:03.662427Z,612.0,CVPIIDEI,712,22,Female,White,United States,United States,United States,English,DATA_EXPIRED,DATA_EXPIRED,Not Applicable
5e9f01c2517b95026e74c12d,<b>People tend to believe whatever is good for their friends.,Highly disagree,68/94,Somewhat disagree,2,1708007797873,1708007802591,\Highly disagree\,\Somewhat disagree\,\1\,1708007800294,1708007801936,2421,4063,4718,buq,qns-item-noham,68,387956,0.0-1.0-0.67,65ce1fdbc205f2634fb5dbb8,AWAITING REVIEW,2024-02-15T14:29:51.925000Z,2024-02-15T14:40:03.106000Z,,2024-02-15T14:40:03.662427Z,612.0,CVPIIDEI,712,22,Female,White,United States,United States,United States,English,DATA_EXPIRED,DATA_EXPIRED,Not Applicable
5e9f01c2517b95026e74c12d,<b>I used to be more certain my beliefs were true.,Highly disagree,69/94,Somewhat agree,3,1708007802593,1708007807764,\Somewhat agree\,\Somewhat agree\,\3\,1708007806170,1708007806170,3577,3577,5171,buq,qns-item-noham,69,393129,0.0-1.0-0.68,65ce1fdbc205f2634fb5dbb8,AWAITING REVIEW,2024-02-15T14:29:51.925000Z,2024-02-15T14:40:03.106000Z,,2024-02-15T14:40:03.662427Z,612.0,CVPIIDEI,712,22,Female,White,United States,United States,United States,English,DATA_EXPIRED,DATA_EXPIRED,Not Applicable
5e9f01c2517b95026e74c12d,<b>It?s often pretty easy to figure out whether something is true based on who said it.,Highly disagree,70/94,Somewhat disagree,2,1708007807770,1708007811544,\Somewhat disagree\,\Somewhat disagree\,\2\,1708007810476,1708007810476,2706,2706,3774,buq,qns-item-noham,70,396909,0.0-1.0-0.69,65ce1fdbc205f2634fb5dbb8,AWAITING REVIEW,2024-02-15T14:29:51.925000Z,2024-02-15T14:40:03.106000Z,,2024-02-15T14:40:03.662427Z,612.0,CVPIIDEI,712,22,Female,White,United States,United States,United States,English,DATA_EXPIRED,DATA_EXPIRED,Not Applicable
5e9f01c2517b95026e74c12d,<b>I transform into a hummingbird every day.,Highly disagree,71/94,Highly disagree,1,1708007811550,1708007813985,\Highly disagree\,\Highly disagree\,\1\,1708007813145,1708007813145,1595,1595,2435,buq,qns-item-noham,71,399350,0.0-1.0-0.70,65ce1fdbc205f2634fb5dbb8,AWAITING REVIEW,2024-02-15T14:29:51.925000Z,2024-02-15T14:40:03.106000Z,,2024-02-15T14:40:03.662427Z,612.0,CVPIIDEI,712,22,Female,White,United States,United States,United States,English,DATA_EXPIRED,DATA_EXPIRED,Not Applicable
5e9f01c2517b95026e74c12d,<b>I think a lot about arguments against my views.,Highly disagree,72/94,Highly agree,4,1708007813987,1708007816625,\Highly agree\,\Highly agree\,\4\,1708007815658,1708007815658,1671,1671,2638,buq,qns-item-noham,72,401991,0.0-1.0-0.71,65ce1fdbc205f2634fb5dbb8,AWAITING REVIEW,2024-02-15T14:29:51.925000Z,2024-02-15T14:40:03.106000Z,,2024-02-15T14:40:03.662427Z,612.0,CVPIIDEI,712,22,Female,White,United States,United States,United States,English,DATA_EXPIRED,DATA_EXPIRED,Not Applicable
5e9f01c2517b95026e74c12d,<b>Personal experience is usually more important than facts and figures.,Highly disagree,73/94,Somewhat disagree,2,1708007816628,1708007824464,\Somewhat disagree\,\Somewhat disagree\,\2\,1708007819679,1708007822070,3051,5442,7836,buq,qns-item-noham,73,409829,0.0-1.0-0.72,65ce1fdbc205f2634fb5dbb8,AWAITING REVIEW,2024-02-15T14:29:51.925000Z,2024-02-15T14:40:03.106000Z,,2024-02-15T14:40:03.662427Z,612.0,CVPIIDEI,712,22,Female,White,United States,United States,United States,English,DATA_EXPIRED,DATA_EXPIRED,Not Applicable
5e9f01c2517b95026e74c12d,<b>I?ve been tricked before about important matters.,Highly disagree,74/94,Somewhat agree,3,1708007824470,1708007827230,\Somewhat agree\,\Somewhat agree\,\3\,1708007826294,1708007826294,1824,1824,2760,buq,qns-item-noham,74,412595,0.0-1.0-0.73,65ce1fdbc205f2634fb5dbb8,AWAITING REVIEW,2024-02-15T14:29:51.925000Z,2024-02-15T14:40:03.106000Z,,2024-02-15T14:40:03.662427Z,612.0,CVPIIDEI,712,22,Female,White,United States,United States,United States,English,DATA_EXPIRED,DATA_EXPIRED,Not Applicable
5e9f01c2517b95026e74c12d,<b>I would need to be totally wowed if I were to change my opinion of a restaurant I don?t like.,Highly disagree,75/94,Highly agree,4,1708007827232,1708007833644,\Highly agree\,\Highly agree\,\4\,1708007832597,1708007832597,5365,5365,6412,buq,qns-item-noham,75,419009,0.0-1.0-0.74,65ce1fdbc205f2634fb5dbb8,AWAITING REVIEW,2024-02-15T14:29:51.925000Z,2024-02-15T14:40:03.106000Z,,2024-02-15T14:40:03.662427Z,612.0,CVPIIDEI,712,22,Female,White,United States,United States,United States,English,DATA_EXPIRED,DATA_EXPIRED,Not Applicable
5e9f01c2517b95026e74c12d,<b>I care a lot about politics.,Highly disagree,76/94,Somewhat agree,3,1708007833646,1708007837068,\Highly agree\,\Somewhat agree\,\4\,1708007835364,1708007836100,1718,2454,3422,buq,qns-item-noham,76,422433,0.0-1.0-0.75,65ce1fdbc205f2634fb5dbb8,AWAITING REVIEW,2024-02-15T14:29:51.925000Z,2024-02-15T14:40:03.106000Z,,2024-02-15T14:40:03.662427Z,612.0,CVPIIDEI,712,22,Female,White,United States,United States,United States,English,DATA_EXPIRED,DATA_EXPIRED,Not Applicable
5e9f01c2517b95026e74c12d,<b>There are some topics I?ve been really wrong about.,Highly disagree,77/94,Highly agree,4,1708007837074,1708007839552,\Highly agree\,\Highly agree\,\4\,1708007838818,1708007838818,1744,1744,2478,buq,qns-item-noham,77,424917,0.0-1.0-0.76,65ce1fdbc205f2634fb5dbb8,AWAITING REVIEW,2024-02-15T14:29:51.925000Z,2024-02-15T14:40:03.106000Z,,2024-02-15T14:40:03.662427Z,612.0,CVPIIDEI,712,22,Female,White,United States,United States,United States,English,DATA_EXPIRED,DATA_EXPIRED,Not Applicable
5e9f01c2517b95026e74c12d,<b>Most beliefs can be supported with at least some evidence.,Highly disagree,78/94,Somewhat disagree,2,1708007839555,1708007844829,\Somewhat agree\,\Somewhat disagree\,\3\,1708007843282,1708007843859,3727,4304,5274,buq,qns-item-noham,78,430194,0.0-1.0-0.77,65ce1fdbc205f2634fb5dbb8,AWAITING REVIEW,2024-02-15T14:29:51.925000Z,2024-02-15T14:40:03.106000Z,,2024-02-15T14:40:03.662427Z,612.0,CVPIIDEI,712,22,Female,White,United States,United States,United States,English,DATA_EXPIRED,DATA_EXPIRED,Not Applicable
5e9f01c2517b95026e74c12d,<b>Other people make life out to be more complicated than it really is.,Highly disagree,79/94,Somewhat agree,3,1708007844835,1708007858728,\Highly disagree\,\Somewhat agree\,\1\,1708007857431,1708007858024,12596,13189,13893,buq,qns-item-noham,79,444093,0.0-1.0-0.78,65ce1fdbc205f2634fb5dbb8,AWAITING REVIEW,2024-02-15T14:29:51.925000Z,2024-02-15T14:40:03.106000Z,,2024-02-15T14:40:03.662427Z,612.0,CVPIIDEI,712,22,Female,White,United States,United States,United States,English,DATA_EXPIRED,DATA_EXPIRED,Not Applicable
5e9f01c2517b95026e74c12d,"<b>Policy details don?t matter much, just the big picture.",Highly disagree,80/94,Somewhat disagree,2,1708007858734,1708007861868,\Somewhat disagree\,\Somewhat disagree\,\2\,1708007861165,1708007861165,2431,2431,3134,buq,qns-item-noham,80,447233,0.0-1.0-0.79,65ce1fdbc205f2634fb5dbb8,AWAITING REVIEW,2024-02-15T14:29:51.925000Z,2024-02-15T14:40:03.106000Z,,2024-02-15T14:40:03.662427Z,612.0,CVPIIDEI,712,22,Female,White,United States,United States,United States,English,DATA_EXPIRED,DATA_EXPIRED,Not Applicable
5e9f01c2517b95026e74c12d,<b>I know my friends so well they can hardly ever surprise me.,Highly disagree,81/94,Somewhat agree,3,1708007861870,1708007864571,\Somewhat agree\,\Somewhat agree\,\3\,1708007863915,1708007863915,2045,2045,2701,buq,qns-item-noham,81,449936,0.0-1.0-0.80,65ce1fdbc205f2634fb5dbb8,AWAITING REVIEW,2024-02-15T14:29:51.925000Z,2024-02-15T14:40:03.106000Z,,2024-02-15T14:40:03.662427Z,612.0,CVPIIDEI,712,22,Female,White,United States,United States,United States,English,DATA_EXPIRED,DATA_EXPIRED,Not Applicable
5e9f01c2517b95026e74c12d,<b>I do not often change my views on people.,Highly disagree,82/94,Somewhat agree,3,1708007864574,1708007868411,\Highly disagree\,\Somewhat agree\,\1\,1708007866650,1708007867782,2076,3208,3837,buq,qns-item-noham,82,453776,0.0-1.0-0.81,65ce1fdbc205f2634fb5dbb8,AWAITING REVIEW,2024-02-15T14:29:51.925000Z,2024-02-15T14:40:03.106000Z,,2024-02-15T14:40:03.662427Z,612.0,CVPIIDEI,712,22,Female,White,United States,United States,United States,English,DATA_EXPIRED,DATA_EXPIRED,Not Applicable
5e9f01c2517b95026e74c12d,<b>I?m more certain about my beliefs than I used to be.,Highly disagree,83/94,Somewhat disagree,2,1708007868417,1708007873163,\Highly agree\,\Somewhat disagree\,\4\,1708007870428,1708007872101,2011,3684,4746,buq,qns-item-noham,83,458528,0.0-1.0-0.82,65ce1fdbc205f2634fb5dbb8,AWAITING REVIEW,2024-02-15T14:29:51.925000Z,2024-02-15T14:40:03.106000Z,,2024-02-15T14:40:03.662427Z,612.0,CVPIIDEI,712,22,Female,White,United States,United States,United States,English,DATA_EXPIRED,DATA_EXPIRED,Not Applicable
5e9f01c2517b95026e74c12d,<b>People often tell falsehoods unintentionally.,Highly disagree,84/94,Highly agree,4,1708007873169,1708007877386,\Highly agree\,\Highly agree\,\4\,1708007876667,1708007876667,3498,3498,4217,buq,qns-item-noham,84,462751,0.0-1.0-0.83,65ce1fdbc205f2634fb5dbb8,AWAITING REVIEW,2024-02-15T14:29:51.925000Z,2024-02-15T14:40:03.106000Z,,2024-02-15T14:40:03.662427Z,612.0,CVPIIDEI,712,22,Female,White,United States,United States,United States,English,DATA_EXPIRED,DATA_EXPIRED,Not Applicable
5e9f01c2517b95026e74c12d,<b>Most people don?t know much about most things.,Highly disagree,85/94,Highly disagree,1,1708007877389,1708007880046,\Highly disagree\,\Highly disagree\,\1\,1708007879329,1708007879329,1940,1940,2657,buq,qns-item-noham,85,465411,0.0-1.0-0.84,65ce1fdbc205f2634fb5dbb8,AWAITING REVIEW,2024-02-15T14:29:51.925000Z,2024-02-15T14:40:03.106000Z,,2024-02-15T14:40:03.662427Z,612.0,CVPIIDEI,712,22,Female,White,United States,United States,United States,English,DATA_EXPIRED,DATA_EXPIRED,Not Applicable
5e9f01c2517b95026e74c12d,"<b>If I find out something new about someone, I easily change my views about them.",Highly disagree,86/94,Somewhat disagree,2,1708007880048,1708007938737,\Somewhat disagree\,\Somewhat disagree\,\2\,1708007937784,1708007937784,57736,57736,58689,buq,qns-item-noham,86,524103,0.0-1.0-0.85,65ce1fdbc205f2634fb5dbb8,AWAITING REVIEW,2024-02-15T14:29:51.925000Z,2024-02-15T14:40:03.106000Z,,2024-02-15T14:40:03.662427Z,612.0,CVPIIDEI,712,22,Female,White,United States,United States,United States,English,DATA_EXPIRED,DATA_EXPIRED,Not Applicable
5e9f01c2517b95026e74c12d,<b>Having true beliefs is difficult.,Highly disagree,87/94,Highly disagree,1,1708007938740,1708007946670,\Somewhat disagree\,\Highly disagree\,\2\,1708007945186,1708007945919,6446,7179,7930,buq,qns-item-noham,87,532035,0.0-1.0-0.86,65ce1fdbc205f2634fb5dbb8,AWAITING REVIEW,2024-02-15T14:29:51.925000Z,2024-02-15T14:40:03.106000Z,,2024-02-15T14:40:03.662427Z,612.0,CVPIIDEI,712,22,Female,White,United States,United States,United States,English,DATA_EXPIRED,DATA_EXPIRED,Not Applicable
5e9f01c2517b95026e74c12d,<b>I don?t try new foods since I know I won?t like them.,Highly disagree,88/94,Highly disagree,1,1708007946676,1708007948888,\Highly disagree\,\Highly disagree\,\1\,1708007948280,1708007948280,1604,1604,2212,buq,qns-item-noham,88,534253,0.0-1.0-0.87,65ce1fdbc205f2634fb5dbb8,AWAITING REVIEW,2024-02-15T14:29:51.925000Z,2024-02-15T14:40:03.106000Z,,2024-02-15T14:40:03.662427Z,612.0,CVPIIDEI,712,22,Female,White,United States,United States,United States,English,DATA_EXPIRED,DATA_EXPIRED,Not Applicable
5e9f01c2517b95026e74c12d,<b>Other people trick each other a lot.,Highly disagree,89/94,Highly disagree,1,1708007948890,1708007951154,\Highly disagree\,\Highly disagree\,\1\,1708007950409,1708007950409,1519,1519,2264,buq,qns-item-noham,89,536519,0.0-1.0-0.88,65ce1fdbc205f2634fb5dbb8,AWAITING REVIEW,2024-02-15T14:29:51.925000Z,2024-02-15T14:40:03.106000Z,,2024-02-15T14:40:03.662427Z,612.0,CVPIIDEI,712,22,Female,White,United States,United States,United States,English,DATA_EXPIRED,DATA_EXPIRED,Not Applicable
5e9f01c2517b95026e74c12d,<b>I would need to learn a lot about a person for my opinion of them to be swayed.,Highly disagree,90/94,Somewhat agree,3,1708007951156,1708007954787,\Somewhat agree\,\Somewhat agree\,\3\,1708007953992,1708007953992,2836,2836,3631,buq,qns-item-noham,90,540152,0.0-1.0-0.89,65ce1fdbc205f2634fb5dbb8,AWAITING REVIEW,2024-02-15T14:29:51.925000Z,2024-02-15T14:40:03.106000Z,,2024-02-15T14:40:03.662427Z,612.0,CVPIIDEI,712,22,Female,White,United States,United States,United States,English,DATA_EXPIRED,DATA_EXPIRED,Not Applicable
5e9f01c2517b95026e74c12d,<b>People can?t usually trick me when it comes to topics I care about.,Highly disagree,91/94,Highly agree,4,1708007954789,1708007960850,\Somewhat agree\,\Highly agree\,\3\,1708007959207,1708007960065,4418,5276,6061,buq,qns-item-noham,91,546215,0.0-1.0-0.90,65ce1fdbc205f2634fb5dbb8,AWAITING REVIEW,2024-02-15T14:29:51.925000Z,2024-02-15T14:40:03.106000Z,,2024-02-15T14:40:03.662427Z,612.0,CVPIIDEI,712,22,Female,White,United States,United States,United States,English,DATA_EXPIRED,DATA_EXPIRED,Not Applicable
5e9f01c2517b95026e74c12d,<b>I do not often change my views on food.,Highly disagree,92/94,Highly disagree,1,1708007960862,1708007963492,\Highly disagree\,\Highly disagree\,\1\,1708007962802,1708007962802,1940,1940,2630,buq,qns-item-noham,92,548857,0.0-1.0-0.91,65ce1fdbc205f2634fb5dbb8,AWAITING REVIEW,2024-02-15T14:29:51.925000Z,2024-02-15T14:40:03.106000Z,,2024-02-15T14:40:03.662427Z,612.0,CVPIIDEI,712,22,Female,White,United States,United States,United States,English,DATA_EXPIRED,DATA_EXPIRED,Not Applicable
5e9f01c2517b95026e74c12d,<b>Specific policies are often very important to me.,Highly disagree,93/94,Somewhat agree,3,1708007963495,1708007966272,\Somewhat agree\,\Somewhat agree\,\3\,1708007965522,1708007965522,2027,2027,2777,buq,qns-item-noham,93,551637,0.0-1.0-0.92,65ce1fdbc205f2634fb5dbb8,AWAITING REVIEW,2024-02-15T14:29:51.925000Z,2024-02-15T14:40:03.106000Z,,2024-02-15T14:40:03.662427Z,612.0,CVPIIDEI,712,22,Female,White,United States,United States,United States,English,DATA_EXPIRED,DATA_EXPIRED,Not Applicable
5e9f01c2517b95026e74c12d,<b>Most people are woefully under-informed.,Highly disagree,94/94,Somewhat disagree,2,1708007966274,1708007968897,\Somewhat disagree\,\Somewhat disagree\,\2\,1708007968258,1708007968258,1984,1984,2623,buq,qns-item-noham,94,554262,0.0-1.0-0.93,65ce1fdbc205f2634fb5dbb8,AWAITING REVIEW,2024-02-15T14:29:51.925000Z,2024-02-15T14:40:03.106000Z,,2024-02-15T14:40:03.662427Z,612.0,CVPIIDEI,712,22,Female,White,United States,United States,United States,English,DATA_EXPIRED,DATA_EXPIRED,Not Applicable
5e9f01c2517b95026e74c12d,,,,,,,,,,,,,,,,,,,,,65ce1fdbc205f2634fb5dbb8,AWAITING REVIEW,2024-02-15T14:29:51.925000Z,2024-02-15T14:40:03.106000Z,,2024-02-15T14:40:03.662427Z,612.0,CVPIIDEI,712,22,Female,White,United States,United States,United States,English,DATA_EXPIRED,DATA_EXPIRED,Not Applicable
