PROLIFIC_PID,Question,qns_options,quest_num,answer,answer_num,question_load_timestamp,next_btn_timestamp,text_selected,final_text_selected,option_num_selected,preview_timestamps,final_text_selected_time_stamp,rt_first_option_click,rt_final_option_click,rt_submit_click,questionnaire,trial_type,trial_index,time_elapsed,internal_node_id,Demographic_Submission id,Demographic_Status,Demographic_Started at,Demographic_Completed at,Demographic_Reviewed at,Demographic_Archived at,Demographic_Time taken,Demographic_Completion code,Demographic_Total approvals,Demographic_Age,Demographic_Sex,Demographic_Ethnicity simplified,Demographic_Country of birth,Demographic_Country of residence,Demographic_Nationality,Demographic_Language,Demographic_Student status,Demographic_Employment status,Demographic_Custom study tncs accepted at
6313f4ebb6eb359b0650a088,<b>Knowing what?s true and knowing what to do about it are usually basically the same.,Highly disagree,1/94,Highly agree,4,1708007377644,1708007414074,\Highly agree\,\Highly agree\,\4\,1708007412493,1708007412493,34849,34849,36430,buq,qns-item-noham,1,44029,0.0-1.0-0.0,65ce1fa9393784dbe2267400,AWAITING REVIEW,2024-02-15T14:29:07.355000Z,2024-02-15T14:43:48.591000Z,,2024-02-15T14:43:49.096724Z,882.0,CVPIIDEI,991,25,Female,White,United States,United States,United States,English,No,Unemployed (and job seeking),Not Applicable
6313f4ebb6eb359b0650a088,<b>Most people just believe whatever is convenient for them.,Highly disagree,2/94,Somewhat agree,3,1708007414078,1708007418607,\Somewhat agree\,\Somewhat agree\,\3\,1708007417831,1708007417831,3753,3753,4529,buq,qns-item-noham,2,48562,0.0-1.0-0.1,65ce1fa9393784dbe2267400,AWAITING REVIEW,2024-02-15T14:29:07.355000Z,2024-02-15T14:43:48.591000Z,,2024-02-15T14:43:49.096724Z,882.0,CVPIIDEI,991,25,Female,White,United States,United States,United States,English,No,Unemployed (and job seeking),Not Applicable
6313f4ebb6eb359b0650a088,<b>Having some big beliefs helps me sort out minor ones.,Highly disagree,3/94,Somewhat agree,3,1708007418619,1708007427374,\Somewhat agree\,\Somewhat agree\,\3\,1708007425530,1708007425530,6911,6911,8755,buq,qns-item-noham,3,57328,0.0-1.0-0.2,65ce1fa9393784dbe2267400,AWAITING REVIEW,2024-02-15T14:29:07.355000Z,2024-02-15T14:43:48.591000Z,,2024-02-15T14:43:49.096724Z,882.0,CVPIIDEI,991,25,Female,White,United States,United States,United States,English,No,Unemployed (and job seeking),Not Applicable
6313f4ebb6eb359b0650a088,<b>Political questions are usually pretty complicated.,Highly disagree,4/94,Somewhat agree,3,1708007427378,1708007430499,\Somewhat agree\,\Somewhat agree\,\3\,1708007429661,1708007429661,2283,2283,3121,buq,qns-item-noham,4,60453,0.0-1.0-0.3,65ce1fa9393784dbe2267400,AWAITING REVIEW,2024-02-15T14:29:07.355000Z,2024-02-15T14:43:48.591000Z,,2024-02-15T14:43:49.096724Z,882.0,CVPIIDEI,991,25,Female,White,United States,United States,United States,English,No,Unemployed (and job seeking),Not Applicable
6313f4ebb6eb359b0650a088,<b>Figuring out what?s important in life requires learning a lot of facts.,Highly disagree,5/94,Somewhat agree,3,1708007430503,1708007438238,\Somewhat agree\,\Somewhat agree\,\3\,1708007437441,1708007437441,6938,6938,7735,buq,qns-item-noham,5,68192,0.0-1.0-0.4,65ce1fa9393784dbe2267400,AWAITING REVIEW,2024-02-15T14:29:07.355000Z,2024-02-15T14:43:48.591000Z,,2024-02-15T14:43:49.096724Z,882.0,CVPIIDEI,991,25,Female,White,United States,United States,United States,English,No,Unemployed (and job seeking),Not Applicable
6313f4ebb6eb359b0650a088,<b>It is difficult for me to remember the last time I was surprised by politics.,Highly disagree,6/94,Somewhat disagree,2,1708007438242,1708007442824,\Somewhat agree\,\Somewhat disagree\,\3\,1708007440918,1708007442046,2676,3804,4582,buq,qns-item-noham,6,72778,0.0-1.0-0.5,65ce1fa9393784dbe2267400,AWAITING REVIEW,2024-02-15T14:29:07.355000Z,2024-02-15T14:43:48.591000Z,,2024-02-15T14:43:49.096724Z,882.0,CVPIIDEI,991,25,Female,White,United States,United States,United States,English,No,Unemployed (and job seeking),Not Applicable
6313f4ebb6eb359b0650a088,<b>People?s false beliefs are understandable.,Highly disagree,7/94,Somewhat disagree,2,1708007442827,1708007449755,\Somewhat disagree\,\Somewhat disagree\,\2\,1708007447014,1708007447014,4187,4187,6928,buq,qns-item-noham,7,79710,0.0-1.0-0.6,65ce1fa9393784dbe2267400,AWAITING REVIEW,2024-02-15T14:29:07.355000Z,2024-02-15T14:43:48.591000Z,,2024-02-15T14:43:49.096724Z,882.0,CVPIIDEI,991,25,Female,White,United States,United States,United States,English,No,Unemployed (and job seeking),Not Applicable
6313f4ebb6eb359b0650a088,<b>I spend a lot of time trying to be informed about politics.,Highly disagree,8/94,Somewhat disagree,2,1708007449760,1708007456364,\Somewhat agree\,\Somewhat disagree\,\3\,1708007453189,1708007454862,3429,5102,6604,buq,qns-item-noham,8,86318,0.0-1.0-0.7,65ce1fa9393784dbe2267400,AWAITING REVIEW,2024-02-15T14:29:07.355000Z,2024-02-15T14:43:48.591000Z,,2024-02-15T14:43:49.096724Z,882.0,CVPIIDEI,991,25,Female,White,United States,United States,United States,English,No,Unemployed (and job seeking),Not Applicable
6313f4ebb6eb359b0650a088,<b>I think a lot about whether my beliefs are right.,Highly disagree,9/94,Somewhat agree,3,1708007456369,1708007647620,\Somewhat agree\,\Somewhat agree\,\3\,1708007645817,1708007645817,189448,189448,191251,buq,qns-item-noham,9,277574,0.0-1.0-0.8,65ce1fa9393784dbe2267400,AWAITING REVIEW,2024-02-15T14:29:07.355000Z,2024-02-15T14:43:48.591000Z,,2024-02-15T14:43:49.096724Z,882.0,CVPIIDEI,991,25,Female,White,United States,United States,United States,English,No,Unemployed (and job seeking),Not Applicable
6313f4ebb6eb359b0650a088,<b>Statistics can be pretty misleading sometimes.,Highly disagree,10/94,Somewhat agree,3,1708007647630,1708007663963,\Somewhat agree\,\Somewhat agree\,\3\,1708007662664,1708007662664,15034,15034,16333,buq,qns-item-noham,10,293917,0.0-1.0-0.9,65ce1fa9393784dbe2267400,AWAITING REVIEW,2024-02-15T14:29:07.355000Z,2024-02-15T14:43:48.591000Z,,2024-02-15T14:43:49.096724Z,882.0,CVPIIDEI,991,25,Female,White,United States,United States,United States,English,No,Unemployed (and job seeking),Not Applicable
6313f4ebb6eb359b0650a088,<b>I have lots of beliefs that I?m only sort of sure about.,Highly disagree,11/94,Somewhat agree,3,1708007663967,1708007676954,\Somewhat agree\,\Somewhat agree\,\3\,1708007676187,1708007676187,12220,12220,12987,buq,qns-item-noham,11,306908,0.0-1.0-0.10,65ce1fa9393784dbe2267400,AWAITING REVIEW,2024-02-15T14:29:07.355000Z,2024-02-15T14:43:48.591000Z,,2024-02-15T14:43:49.096724Z,882.0,CVPIIDEI,991,25,Female,White,United States,United States,United States,English,No,Unemployed (and job seeking),Not Applicable
6313f4ebb6eb359b0650a088,"<b>If I go to my favorite restaurant and the food is surprisingly bad, it reminds me there are many disappointments in life.",Highly disagree,12/94,Somewhat agree,3,1708007676957,1708007691504,\Somewhat agree\,\Somewhat agree\,\3\,1708007690628,1708007690628,13671,13671,14547,buq,qns-item-noham,12,321458,0.0-1.0-0.11,65ce1fa9393784dbe2267400,AWAITING REVIEW,2024-02-15T14:29:07.355000Z,2024-02-15T14:43:48.591000Z,,2024-02-15T14:43:49.096724Z,882.0,CVPIIDEI,991,25,Female,White,United States,United States,United States,English,No,Unemployed (and job seeking),Not Applicable
6313f4ebb6eb359b0650a088,"<b>If you are paying attention, please select ?Somewhat agree?",Highly disagree,13/94,Somewhat agree,3,1708007691507,1708007694695,\Somewhat agree\,\Somewhat agree\,\3\,1708007693708,1708007693708,2201,2201,3188,buq,qns-item-noham,13,324649,0.0-1.0-0.12,65ce1fa9393784dbe2267400,AWAITING REVIEW,2024-02-15T14:29:07.355000Z,2024-02-15T14:43:48.591000Z,,2024-02-15T14:43:49.096724Z,882.0,CVPIIDEI,991,25,Female,White,United States,United States,United States,English,No,Unemployed (and job seeking),Not Applicable
6313f4ebb6eb359b0650a088,"<b>When I talk to others, I often worry I?ll convince them of something I didn?t mean to.",Highly disagree,14/94,Somewhat agree,3,1708007694699,1708007698612,\Somewhat agree\,\Somewhat agree\,\3\,1708007697695,1708007697695,2996,2996,3913,buq,qns-item-noham,14,328566,0.0-1.0-0.13,65ce1fa9393784dbe2267400,AWAITING REVIEW,2024-02-15T14:29:07.355000Z,2024-02-15T14:43:48.591000Z,,2024-02-15T14:43:49.096724Z,882.0,CVPIIDEI,991,25,Female,White,United States,United States,United States,English,No,Unemployed (and job seeking),Not Applicable
6313f4ebb6eb359b0650a088,<b>I would need to learn something utterly shocking about my party in order to change my political views.,Highly disagree,15/94,Somewhat agree,3,1708007698621,1708007707424,\Somewhat agree\,\Somewhat agree\,\3\,1708007706648,1708007706648,8027,8027,8803,buq,qns-item-noham,15,337378,0.0-1.0-0.14,65ce1fa9393784dbe2267400,AWAITING REVIEW,2024-02-15T14:29:07.355000Z,2024-02-15T14:43:48.591000Z,,2024-02-15T14:43:49.096724Z,882.0,CVPIIDEI,991,25,Female,White,United States,United States,United States,English,No,Unemployed (and job seeking),Not Applicable
6313f4ebb6eb359b0650a088,"<b>When I have new experiences, I tend to think of them as unique.",Highly disagree,16/94,Somewhat agree,3,1708007707428,1708007712125,\Somewhat agree\,\Somewhat agree\,\3\,1708007710897,1708007710897,3469,3469,4697,buq,qns-item-noham,16,342079,0.0-1.0-0.15,65ce1fa9393784dbe2267400,AWAITING REVIEW,2024-02-15T14:29:07.355000Z,2024-02-15T14:43:48.591000Z,,2024-02-15T14:43:49.096724Z,882.0,CVPIIDEI,991,25,Female,White,United States,United States,United States,English,No,Unemployed (and job seeking),Not Applicable
6313f4ebb6eb359b0650a088,<b>I change my mind about specific policies pretty frequently.,Highly disagree,17/94,Somewhat agree,3,1708007712129,1708007716828,\Somewhat agree\,\Somewhat agree\,\3\,1708007715991,1708007715991,3862,3862,4699,buq,qns-item-noham,17,346782,0.0-1.0-0.16,65ce1fa9393784dbe2267400,AWAITING REVIEW,2024-02-15T14:29:07.355000Z,2024-02-15T14:43:48.591000Z,,2024-02-15T14:43:49.096724Z,882.0,CVPIIDEI,991,25,Female,White,United States,United States,United States,English,No,Unemployed (and job seeking),Not Applicable
6313f4ebb6eb359b0650a088,"<b>If a politician in my political party supports something I disagree with, I give them the benefit of the doubt, as such issues often involve hidden complexities that aren?t obvious.   ",Highly disagree,18/94,Somewhat agree,3,1708007716832,1708007733080,\Somewhat agree\,\Somewhat agree\,\3\,1708007720755,1708007720755,3923,3923,16248,buq,qns-item-noham,18,363034,0.0-1.0-0.17,65ce1fa9393784dbe2267400,AWAITING REVIEW,2024-02-15T14:29:07.355000Z,2024-02-15T14:43:48.591000Z,,2024-02-15T14:43:49.096724Z,882.0,CVPIIDEI,991,25,Female,White,United States,United States,United States,English,No,Unemployed (and job seeking),Not Applicable
6313f4ebb6eb359b0650a088,<b>People?s bad politics are usually motivated by hatefulness.,Highly disagree,19/94,Somewhat agree,3,1708007733084,1708007741727,\Somewhat agree\,\Somewhat agree\,\3\,1708007740839,1708007740839,7755,7755,8643,buq,qns-item-noham,19,371681,0.0-1.0-0.18,65ce1fa9393784dbe2267400,AWAITING REVIEW,2024-02-15T14:29:07.355000Z,2024-02-15T14:43:48.591000Z,,2024-02-15T14:43:49.096724Z,882.0,CVPIIDEI,991,25,Female,White,United States,United States,United States,English,No,Unemployed (and job seeking),Not Applicable
6313f4ebb6eb359b0650a088,<b>I think a lot about how to reconcile my beliefs with one another.,Highly disagree,20/94,Somewhat agree,3,1708007741732,1708007745746,\Somewhat agree\,\Somewhat agree\,\3\,1708007745142,1708007745142,3410,3410,4014,buq,qns-item-noham,20,375700,0.0-1.0-0.19,65ce1fa9393784dbe2267400,AWAITING REVIEW,2024-02-15T14:29:07.355000Z,2024-02-15T14:43:48.591000Z,,2024-02-15T14:43:49.096724Z,882.0,CVPIIDEI,991,25,Female,White,United States,United States,United States,English,No,Unemployed (and job seeking),Not Applicable
6313f4ebb6eb359b0650a088,<b>I might have false beliefs about important topics.,Highly disagree,21/94,Somewhat disagree,2,1708007745750,1708007750605,\Somewhat agree\,\Somewhat disagree\,\3\,1708007748004,1708007749807,2254,4057,4855,buq,qns-item-noham,21,380559,0.0-1.0-0.20,65ce1fa9393784dbe2267400,AWAITING REVIEW,2024-02-15T14:29:07.355000Z,2024-02-15T14:43:48.591000Z,,2024-02-15T14:43:49.096724Z,882.0,CVPIIDEI,991,25,Female,White,United States,United States,United States,English,No,Unemployed (and job seeking),Not Applicable
6313f4ebb6eb359b0650a088,"<b>If a good friend of mine does something unexpected that upsets me, I feel like I don?t know them anymore.",Highly disagree,22/94,Somewhat agree,3,1708007750609,1708007757398,\Somewhat agree\,\Somewhat agree\,\3\,1708007753930,1708007753930,3321,3321,6789,buq,qns-item-noham,22,387352,0.0-1.0-0.21,65ce1fa9393784dbe2267400,AWAITING REVIEW,2024-02-15T14:29:07.355000Z,2024-02-15T14:43:48.591000Z,,2024-02-15T14:43:49.096724Z,882.0,CVPIIDEI,991,25,Female,White,United States,United States,United States,English,No,Unemployed (and job seeking),Not Applicable
6313f4ebb6eb359b0650a088,<b>Other people?s beliefs are often incoherent.,Highly disagree,23/94,Somewhat agree,3,1708007757402,1708007760310,\Somewhat agree\,\Somewhat agree\,\3\,1708007759634,1708007759634,2232,2232,2908,buq,qns-item-noham,23,390264,0.0-1.0-0.22,65ce1fa9393784dbe2267400,AWAITING REVIEW,2024-02-15T14:29:07.355000Z,2024-02-15T14:43:48.591000Z,,2024-02-15T14:43:49.096724Z,882.0,CVPIIDEI,991,25,Female,White,United States,United States,United States,English,No,Unemployed (and job seeking),Not Applicable
6313f4ebb6eb359b0650a088,"<b>Every now and then, a new experience will unsettle beliefs I?ve had for a while.",Highly disagree,24/94,Somewhat agree,3,1708007760316,1708007764764,\Somewhat agree\,\Somewhat agree\,\3\,1708007763977,1708007763977,3661,3661,4448,buq,qns-item-noham,24,394719,0.0-1.0-0.23,65ce1fa9393784dbe2267400,AWAITING REVIEW,2024-02-15T14:29:07.355000Z,2024-02-15T14:43:48.591000Z,,2024-02-15T14:43:49.096724Z,882.0,CVPIIDEI,991,25,Female,White,United States,United States,United States,English,No,Unemployed (and job seeking),Not Applicable
6313f4ebb6eb359b0650a088,<b>Some policies I agree with in principle are so bad I don?t support them. ,Highly disagree,25/94,Somewhat agree,3,1708007764771,1708007769531,\Somewhat agree\,\Somewhat agree\,\3\,1708007768855,1708007768855,4084,4084,4760,buq,qns-item-noham,25,399486,0.0-1.0-0.24,65ce1fa9393784dbe2267400,AWAITING REVIEW,2024-02-15T14:29:07.355000Z,2024-02-15T14:43:48.591000Z,,2024-02-15T14:43:49.096724Z,882.0,CVPIIDEI,991,25,Female,White,United States,United States,United States,English,No,Unemployed (and job seeking),Not Applicable
6313f4ebb6eb359b0650a088,<b>I?m pretty sure I?ve accidentally spread false information.,Highly disagree,26/94,Highly disagree,1,1708007769539,1708007772928,\Highly disagree\,\Highly disagree\,\1\,1708007772201,1708007772201,2662,2662,3389,buq,qns-item-noham,26,402882,0.0-1.0-0.25,65ce1fa9393784dbe2267400,AWAITING REVIEW,2024-02-15T14:29:07.355000Z,2024-02-15T14:43:48.591000Z,,2024-02-15T14:43:49.096724Z,882.0,CVPIIDEI,991,25,Female,White,United States,United States,United States,English,No,Unemployed (and job seeking),Not Applicable
6313f4ebb6eb359b0650a088,"<b>If I go to my favorite restaurant and the food is unexpectedly bad, then they have changed owners.",Highly disagree,27/94,Highly disagree,1,1708007772931,1708007780658,\Highly disagree\,\Highly disagree\,\1\,1708007777894,1708007777894,4963,4963,7727,buq,qns-item-noham,27,410612,0.0-1.0-0.26,65ce1fa9393784dbe2267400,AWAITING REVIEW,2024-02-15T14:29:07.355000Z,2024-02-15T14:43:48.591000Z,,2024-02-15T14:43:49.096724Z,882.0,CVPIIDEI,991,25,Female,White,United States,United States,United States,English,No,Unemployed (and job seeking),Not Applicable
6313f4ebb6eb359b0650a088,"<b>In politics, it?s important to trust your friends and family.",Highly disagree,28/94,Somewhat agree,3,1708007780661,1708007785404,\Somewhat agree\,\Somewhat agree\,\3\,1708007783428,1708007783428,2767,2767,4743,buq,qns-item-noham,28,415358,0.0-1.0-0.27,65ce1fa9393784dbe2267400,AWAITING REVIEW,2024-02-15T14:29:07.355000Z,2024-02-15T14:43:48.591000Z,,2024-02-15T14:43:49.096724Z,882.0,CVPIIDEI,991,25,Female,White,United States,United States,United States,English,No,Unemployed (and job seeking),Not Applicable
6313f4ebb6eb359b0650a088,<b>It?s OK to have some conflicting beliefs.,Highly disagree,29/94,Somewhat agree,3,1708007785407,1708007789073,\Somewhat agree\,\Somewhat agree\,\3\,1708007787701,1708007787701,2294,2294,3666,buq,qns-item-noham,29,419027,0.0-1.0-0.28,65ce1fa9393784dbe2267400,AWAITING REVIEW,2024-02-15T14:29:07.355000Z,2024-02-15T14:43:48.591000Z,,2024-02-15T14:43:49.096724Z,882.0,CVPIIDEI,991,25,Female,White,United States,United States,United States,English,No,Unemployed (and job seeking),Not Applicable
6313f4ebb6eb359b0650a088,<b>Listening to people I disagree with makes my opinions better.,Highly disagree,30/94,Highly disagree,1,1708007789078,1708007803983,\Somewhat disagree\,\Highly disagree\,\2\,1708007791915,1708007798901,2837,9823,14905,buq,qns-item-noham,30,433937,0.0-1.0-0.29,65ce1fa9393784dbe2267400,AWAITING REVIEW,2024-02-15T14:29:07.355000Z,2024-02-15T14:43:48.591000Z,,2024-02-15T14:43:49.096724Z,882.0,CVPIIDEI,991,25,Female,White,United States,United States,United States,English,No,Unemployed (and job seeking),Not Applicable
6313f4ebb6eb359b0650a088,<b>My moral compass sometimes makes it harder to determine what?s true.,Highly disagree,31/94,Highly disagree,1,1708007803987,1708007810727,\Somewhat agree\,\Highly disagree\,\3\,1708007807439,1708007808911,3452,4924,6740,buq,qns-item-noham,31,440681,0.0-1.0-0.30,65ce1fa9393784dbe2267400,AWAITING REVIEW,2024-02-15T14:29:07.355000Z,2024-02-15T14:43:48.591000Z,,2024-02-15T14:43:49.096724Z,882.0,CVPIIDEI,991,25,Female,White,United States,United States,United States,English,No,Unemployed (and job seeking),Not Applicable
6313f4ebb6eb359b0650a088,<b>Evidence pointing in the wrong direction isn?t really evidence at all.,Highly disagree,32/94,Highly disagree,1,1708007810731,1708007826496,\Highly disagree\,\Highly disagree\,\1\,1708007823481,1708007823481,12750,12750,15765,buq,qns-item-noham,32,456450,0.0-1.0-0.31,65ce1fa9393784dbe2267400,AWAITING REVIEW,2024-02-15T14:29:07.355000Z,2024-02-15T14:43:48.591000Z,,2024-02-15T14:43:49.096724Z,882.0,CVPIIDEI,991,25,Female,White,United States,United States,United States,English,No,Unemployed (and job seeking),Not Applicable
6313f4ebb6eb359b0650a088,"<b>If the political party I support messes up, it makes me think politics is rotten.",Highly disagree,33/94,Somewhat disagree,2,1708007826499,1708007831488,\Somewhat disagree\,\Somewhat disagree\,\2\,1708007830810,1708007830810,4311,4311,4989,buq,qns-item-noham,33,461442,0.0-1.0-0.32,65ce1fa9393784dbe2267400,AWAITING REVIEW,2024-02-15T14:29:07.355000Z,2024-02-15T14:43:48.591000Z,,2024-02-15T14:43:49.096724Z,882.0,CVPIIDEI,991,25,Female,White,United States,United States,United States,English,No,Unemployed (and job seeking),Not Applicable
6313f4ebb6eb359b0650a088,<b>Lots of important topics can only really be understood by some groups of people.,Highly disagree,34/94,Somewhat agree,3,1708007831495,1708007835075,\Somewhat agree\,\Somewhat agree\,\3\,1708007834219,1708007834219,2724,2724,3580,buq,qns-item-noham,34,465029,0.0-1.0-0.33,65ce1fa9393784dbe2267400,AWAITING REVIEW,2024-02-15T14:29:07.355000Z,2024-02-15T14:43:48.591000Z,,2024-02-15T14:43:49.096724Z,882.0,CVPIIDEI,991,25,Female,White,United States,United States,United States,English,No,Unemployed (and job seeking),Not Applicable
6313f4ebb6eb359b0650a088,<b>Having conflicting beliefs means you haven?t thought about them enough.,Highly disagree,35/94,Somewhat agree,3,1708007835079,1708007838959,\Somewhat agree\,\Somewhat agree\,\3\,1708007838141,1708007838141,3062,3062,3880,buq,qns-item-noham,35,468913,0.0-1.0-0.34,65ce1fa9393784dbe2267400,AWAITING REVIEW,2024-02-15T14:29:07.355000Z,2024-02-15T14:43:48.591000Z,,2024-02-15T14:43:49.096724Z,882.0,CVPIIDEI,991,25,Female,White,United States,United States,United States,English,No,Unemployed (and job seeking),Not Applicable
6313f4ebb6eb359b0650a088,<b>I do not often change my political opinions.,Highly disagree,36/94,Somewhat agree,3,1708007838963,1708007842943,\Somewhat agree\,\Somewhat agree\,\3\,1708007841783,1708007841783,2820,2820,3980,buq,qns-item-noham,36,472897,0.0-1.0-0.35,65ce1fa9393784dbe2267400,AWAITING REVIEW,2024-02-15T14:29:07.355000Z,2024-02-15T14:43:48.591000Z,,2024-02-15T14:43:49.096724Z,882.0,CVPIIDEI,991,25,Female,White,United States,United States,United States,English,No,Unemployed (and job seeking),Not Applicable
6313f4ebb6eb359b0650a088,<b>It?s difficult to not have at least some conflicting beliefs.,Highly disagree,37/94,Somewhat disagree,2,1708007842946,1708007853070,\Somewhat agree\,\Somewhat disagree\,\3\,1708007847371,1708007852343,4425,9397,10124,buq,qns-item-noham,37,483024,0.0-1.0-0.36,65ce1fa9393784dbe2267400,AWAITING REVIEW,2024-02-15T14:29:07.355000Z,2024-02-15T14:43:48.591000Z,,2024-02-15T14:43:49.096724Z,882.0,CVPIIDEI,991,25,Female,White,United States,United States,United States,English,No,Unemployed (and job seeking),Not Applicable
6313f4ebb6eb359b0650a088,<b>Wishful thinking causes a lot of problems.,Highly disagree,38/94,Somewhat disagree,2,1708007853074,1708007855683,\Somewhat disagree\,\Somewhat disagree\,\2\,1708007854935,1708007854935,1861,1861,2609,buq,qns-item-noham,38,485637,0.0-1.0-0.37,65ce1fa9393784dbe2267400,AWAITING REVIEW,2024-02-15T14:29:07.355000Z,2024-02-15T14:43:48.591000Z,,2024-02-15T14:43:49.096724Z,882.0,CVPIIDEI,991,25,Female,White,United States,United States,United States,English,No,Unemployed (and job seeking),Not Applicable
6313f4ebb6eb359b0650a088,<b>I judge a food item only once I try it many times.,Highly disagree,39/94,Somewhat agree,3,1708007855685,1708007860251,\Somewhat agree\,\Somewhat agree\,\3\,1708007859566,1708007859566,3881,3881,4566,buq,qns-item-noham,39,490205,0.0-1.0-0.38,65ce1fa9393784dbe2267400,AWAITING REVIEW,2024-02-15T14:29:07.355000Z,2024-02-15T14:43:48.591000Z,,2024-02-15T14:43:49.096724Z,882.0,CVPIIDEI,991,25,Female,White,United States,United States,United States,English,No,Unemployed (and job seeking),Not Applicable
6313f4ebb6eb359b0650a088,"<b>When a person holds conflicting beliefs, they should really try to figure out what?s wrong.",Highly disagree,40/94,Somewhat agree,3,1708007860255,1708007864590,\Somewhat agree\,\Somewhat agree\,\3\,1708007863842,1708007863842,3587,3587,4335,buq,qns-item-noham,40,494544,0.0-1.0-0.39,65ce1fa9393784dbe2267400,AWAITING REVIEW,2024-02-15T14:29:07.355000Z,2024-02-15T14:43:48.591000Z,,2024-02-15T14:43:49.096724Z,882.0,CVPIIDEI,991,25,Female,White,United States,United States,United States,English,No,Unemployed (and job seeking),Not Applicable
6313f4ebb6eb359b0650a088,<b>Knowing what?s important in life is easy.,Highly disagree,41/94,Somewhat agree,3,1708007864594,1708007870127,\Somewhat agree\,\Somewhat agree\,\3\,1708007867090,1708007867090,2496,2496,5533,buq,qns-item-noham,41,500081,0.0-1.0-0.40,65ce1fa9393784dbe2267400,AWAITING REVIEW,2024-02-15T14:29:07.355000Z,2024-02-15T14:43:48.591000Z,,2024-02-15T14:43:49.096724Z,882.0,CVPIIDEI,991,25,Female,White,United States,United States,United States,English,No,Unemployed (and job seeking),Not Applicable
6313f4ebb6eb359b0650a088,<b>I swim across the Atlantic Ocean to get to work every day.,Highly disagree,42/94,Highly disagree,1,1708007870131,1708007873233,\Highly disagree\,\Highly disagree\,\1\,1708007872012,1708007872012,1881,1881,3102,buq,qns-item-noham,42,503187,0.0-1.0-0.41,65ce1fa9393784dbe2267400,AWAITING REVIEW,2024-02-15T14:29:07.355000Z,2024-02-15T14:43:48.591000Z,,2024-02-15T14:43:49.096724Z,882.0,CVPIIDEI,991,25,Female,White,United States,United States,United States,English,No,Unemployed (and job seeking),Not Applicable
6313f4ebb6eb359b0650a088,"<b>Sometimes, you just have to ignore evidence that you know is wrong.",Highly disagree,43/94,Somewhat agree,3,1708007873238,1708007880506,\Somewhat agree\,\Somewhat agree\,\3\,1708007877165,1708007878869,3927,5631,7268,buq,qns-item-noham,43,510460,0.0-1.0-0.42,65ce1fa9393784dbe2267400,AWAITING REVIEW,2024-02-15T14:29:07.355000Z,2024-02-15T14:43:48.591000Z,,2024-02-15T14:43:49.096724Z,882.0,CVPIIDEI,991,25,Female,White,United States,United States,United States,English,No,Unemployed (and job seeking),Not Applicable
6313f4ebb6eb359b0650a088,<b>I have had some false beliefs.,Highly disagree,44/94,Somewhat disagree,2,1708007880509,1708007883705,\Somewhat disagree\,\Somewhat disagree\,\2\,1708007882864,1708007882864,2355,2355,3196,buq,qns-item-noham,44,513659,0.0-1.0-0.43,65ce1fa9393784dbe2267400,AWAITING REVIEW,2024-02-15T14:29:07.355000Z,2024-02-15T14:43:48.591000Z,,2024-02-15T14:43:49.096724Z,882.0,CVPIIDEI,991,25,Female,White,United States,United States,United States,English,No,Unemployed (and job seeking),Not Applicable
6313f4ebb6eb359b0650a088,"<b>If one friend does something that upsets me, I sometimes start to distrust people in general.",Highly disagree,45/94,Somewhat agree,3,1708007883710,1708007901077,\Somewhat agree\,\Somewhat agree\,\3\,1708007889076,1708007889076,5366,5366,17367,buq,qns-item-noham,45,531031,0.0-1.0-0.44,65ce1fa9393784dbe2267400,AWAITING REVIEW,2024-02-15T14:29:07.355000Z,2024-02-15T14:43:48.591000Z,,2024-02-15T14:43:49.096724Z,882.0,CVPIIDEI,991,25,Female,White,United States,United States,United States,English,No,Unemployed (and job seeking),Not Applicable
6313f4ebb6eb359b0650a088,<b>The facts about most important matters are easy to find.,Highly disagree,46/94,Somewhat agree,3,1708007901082,1708007905566,\Somewhat agree\,\Somewhat agree\,\3\,1708007904766,1708007904766,3684,3684,4484,buq,qns-item-noham,46,535520,0.0-1.0-0.45,65ce1fa9393784dbe2267400,AWAITING REVIEW,2024-02-15T14:29:07.355000Z,2024-02-15T14:43:48.591000Z,,2024-02-15T14:43:49.096724Z,882.0,CVPIIDEI,991,25,Female,White,United States,United States,United States,English,No,Unemployed (and job seeking),Not Applicable
6313f4ebb6eb359b0650a088,<b>It?s better to know what?s true than to know what?s moral.,Highly disagree,47/94,Somewhat agree,3,1708007905570,1708007909548,\Somewhat agree\,\Somewhat agree\,\3\,1708007908730,1708007908730,3160,3160,3978,buq,qns-item-noham,47,539502,0.0-1.0-0.46,65ce1fa9393784dbe2267400,AWAITING REVIEW,2024-02-15T14:29:07.355000Z,2024-02-15T14:43:48.591000Z,,2024-02-15T14:43:49.096724Z,882.0,CVPIIDEI,991,25,Female,White,United States,United States,United States,English,No,Unemployed (and job seeking),Not Applicable
6313f4ebb6eb359b0650a088,<b>I used to think the world was less complicated than I do now.,Highly disagree,48/94,Somewhat agree,3,1708007909551,1708007913379,\Somewhat agree\,\Somewhat agree\,\3\,1708007912432,1708007912432,2881,2881,3828,buq,qns-item-noham,48,543333,0.0-1.0-0.47,65ce1fa9393784dbe2267400,AWAITING REVIEW,2024-02-15T14:29:07.355000Z,2024-02-15T14:43:48.591000Z,,2024-02-15T14:43:49.096724Z,882.0,CVPIIDEI,991,25,Female,White,United States,United States,United States,English,No,Unemployed (and job seeking),Not Applicable
6313f4ebb6eb359b0650a088,<b>People are usually completely right or completely wrong.,Highly disagree,49/94,Somewhat agree,3,1708007913383,1708007916770,\Somewhat agree\,\Somewhat agree\,\3\,1708007915920,1708007915920,2537,2537,3387,buq,qns-item-noham,49,546724,0.0-1.0-0.48,65ce1fa9393784dbe2267400,AWAITING REVIEW,2024-02-15T14:29:07.355000Z,2024-02-15T14:43:48.591000Z,,2024-02-15T14:43:49.096724Z,882.0,CVPIIDEI,991,25,Female,White,United States,United States,United States,English,No,Unemployed (and job seeking),Not Applicable
6313f4ebb6eb359b0650a088,<b>I spend a lot of time considering alternatives to my beliefs.,Highly disagree,50/94,Somewhat agree,3,1708007916773,1708007920067,\Somewhat agree\,\Somewhat agree\,\3\,1708007919148,1708007919148,2375,2375,3294,buq,qns-item-noham,50,550021,0.0-1.0-0.49,65ce1fa9393784dbe2267400,AWAITING REVIEW,2024-02-15T14:29:07.355000Z,2024-02-15T14:43:48.591000Z,,2024-02-15T14:43:49.096724Z,882.0,CVPIIDEI,991,25,Female,White,United States,United States,United States,English,No,Unemployed (and job seeking),Not Applicable
6313f4ebb6eb359b0650a088,"<b>Political enemies need to be defeated, not convinced.",Highly disagree,51/94,Somewhat agree,3,1708007920070,1708007923536,\Somewhat agree\,\Somewhat agree\,\3\,1708007921881,1708007921881,1811,1811,3466,buq,qns-item-noham,51,553490,0.0-1.0-0.50,65ce1fa9393784dbe2267400,AWAITING REVIEW,2024-02-15T14:29:07.355000Z,2024-02-15T14:43:48.591000Z,,2024-02-15T14:43:49.096724Z,882.0,CVPIIDEI,991,25,Female,White,United States,United States,United States,English,No,Unemployed (and job seeking),Not Applicable
6313f4ebb6eb359b0650a088,<b>I form my political views only after meticulously gathering historical and present information about their policies.,Highly disagree,52/94,Somewhat agree,3,1708007923540,1708007930311,\Somewhat agree\,\Somewhat agree\,\3\,1708007928889,1708007928889,5349,5349,6771,buq,qns-item-noham,52,560265,0.0-1.0-0.51,65ce1fa9393784dbe2267400,AWAITING REVIEW,2024-02-15T14:29:07.355000Z,2024-02-15T14:43:48.591000Z,,2024-02-15T14:43:49.096724Z,882.0,CVPIIDEI,991,25,Female,White,United States,United States,United States,English,No,Unemployed (and job seeking),Not Applicable
6313f4ebb6eb359b0650a088,<b>It is difficult for me to remember the last time I was surprised by politics.,Highly disagree,53/94,Somewhat agree,3,1708007930315,1708007934760,\Somewhat agree\,\Somewhat agree\,\3\,1708007932731,1708007932731,2416,2416,4445,buq,qns-item-noham,53,564714,0.0-1.0-0.52,65ce1fa9393784dbe2267400,AWAITING REVIEW,2024-02-15T14:29:07.355000Z,2024-02-15T14:43:48.591000Z,,2024-02-15T14:43:49.096724Z,882.0,CVPIIDEI,991,25,Female,White,United States,United States,United States,English,No,Unemployed (and job seeking),Not Applicable
6313f4ebb6eb359b0650a088,"<b>When I find out I?m wrong, I think a lot about my related beliefs.",Highly disagree,54/94,Somewhat agree,3,1708007934766,1708007938591,\Somewhat agree\,\Somewhat agree\,\3\,1708007937704,1708007937704,2938,2938,3825,buq,qns-item-noham,54,568545,0.0-1.0-0.53,65ce1fa9393784dbe2267400,AWAITING REVIEW,2024-02-15T14:29:07.355000Z,2024-02-15T14:43:48.591000Z,,2024-02-15T14:43:49.096724Z,882.0,CVPIIDEI,991,25,Female,White,United States,United States,United States,English,No,Unemployed (and job seeking),Not Applicable
6313f4ebb6eb359b0650a088,"<b>If the political party I support messes up, it makes me think you can?t trust anyone these days",Highly disagree,55/94,Somewhat agree,3,1708007938595,1708007944059,\Somewhat agree\,\Somewhat agree\,\3\,1708007941819,1708007941819,3224,3224,5464,buq,qns-item-noham,55,574013,0.0-1.0-0.54,65ce1fa9393784dbe2267400,AWAITING REVIEW,2024-02-15T14:29:07.355000Z,2024-02-15T14:43:48.591000Z,,2024-02-15T14:43:49.096724Z,882.0,CVPIIDEI,991,25,Female,White,United States,United States,United States,English,No,Unemployed (and job seeking),Not Applicable
6313f4ebb6eb359b0650a088,<b>People?s brains turn off when they talk about politics.,Highly disagree,56/94,Somewhat disagree,2,1708007944064,1708007947640,\Somewhat disagree\,\Somewhat disagree\,\2\,1708007946985,1708007946985,2921,2921,3576,buq,qns-item-noham,56,577595,0.0-1.0-0.55,65ce1fa9393784dbe2267400,AWAITING REVIEW,2024-02-15T14:29:07.355000Z,2024-02-15T14:43:48.591000Z,,2024-02-15T14:43:49.096724Z,882.0,CVPIIDEI,991,25,Female,White,United States,United States,United States,English,No,Unemployed (and job seeking),Not Applicable
6313f4ebb6eb359b0650a088,<b>People who are wrong are usually just ignoring the obvious.,Highly disagree,57/94,Somewhat disagree,2,1708007947644,1708007951513,\Somewhat disagree\,\Somewhat disagree\,\2\,1708007950635,1708007950635,2991,2991,3869,buq,qns-item-noham,57,581467,0.0-1.0-0.56,65ce1fa9393784dbe2267400,AWAITING REVIEW,2024-02-15T14:29:07.355000Z,2024-02-15T14:43:48.591000Z,,2024-02-15T14:43:49.096724Z,882.0,CVPIIDEI,991,25,Female,White,United States,United States,United States,English,No,Unemployed (and job seeking),Not Applicable
6313f4ebb6eb359b0650a088,"<b>When forming my views on people, I rely more on what they are like now rather than rely on my past experience with them.",Highly disagree,58/94,Somewhat agree,3,1708007951516,1708007955901,\Somewhat agree\,\Somewhat agree\,\3\,1708007955213,1708007955213,3697,3697,4385,buq,qns-item-noham,58,585855,0.0-1.0-0.57,65ce1fa9393784dbe2267400,AWAITING REVIEW,2024-02-15T14:29:07.355000Z,2024-02-15T14:43:48.591000Z,,2024-02-15T14:43:49.096724Z,882.0,CVPIIDEI,991,25,Female,White,United States,United States,United States,English,No,Unemployed (and job seeking),Not Applicable
6313f4ebb6eb359b0650a088,"<b>When people contradict my beliefs, I usually know about their evidence already.",Highly disagree,59/94,Somewhat agree,3,1708007955904,1708007960035,\Somewhat agree\,\Somewhat agree\,\3\,1708007958794,1708007958794,2890,2890,4131,buq,qns-item-noham,59,589989,0.0-1.0-0.58,65ce1fa9393784dbe2267400,AWAITING REVIEW,2024-02-15T14:29:07.355000Z,2024-02-15T14:43:48.591000Z,,2024-02-15T14:43:49.096724Z,882.0,CVPIIDEI,991,25,Female,White,United States,United States,United States,English,No,Unemployed (and job seeking),Not Applicable
6313f4ebb6eb359b0650a088,<b>Figuring out what?s true and what?s false mainly requires a strong moral compass.,Highly disagree,60/94,Somewhat agree,3,1708007960038,1708007966408,\Somewhat agree\,\Somewhat agree\,\3\,1708007965691,1708007965691,5653,5653,6370,buq,qns-item-noham,60,596362,0.0-1.0-0.59,65ce1fa9393784dbe2267400,AWAITING REVIEW,2024-02-15T14:29:07.355000Z,2024-02-15T14:43:48.591000Z,,2024-02-15T14:43:49.096724Z,882.0,CVPIIDEI,991,25,Female,White,United States,United States,United States,English,No,Unemployed (and job seeking),Not Applicable
6313f4ebb6eb359b0650a088,"<b>Usually I?m wrong about simple things, not complicated ones.",Highly disagree,61/94,Somewhat agree,3,1708007966411,1708007970177,\Somewhat agree\,\Somewhat agree\,\3\,1708007968918,1708007968918,2507,2507,3766,buq,qns-item-noham,61,600132,0.0-1.0-0.60,65ce1fa9393784dbe2267400,AWAITING REVIEW,2024-02-15T14:29:07.355000Z,2024-02-15T14:43:48.591000Z,,2024-02-15T14:43:49.096724Z,882.0,CVPIIDEI,991,25,Female,White,United States,United States,United States,English,No,Unemployed (and job seeking),Not Applicable
6313f4ebb6eb359b0650a088,<b>Getting all the information I want about important things is hard.,Highly disagree,62/94,Somewhat agree,3,1708007970182,1708007986868,\Somewhat agree\,\Somewhat agree\,\3\,1708007984961,1708007984961,14779,14779,16686,buq,qns-item-noham,62,616822,0.0-1.0-0.61,65ce1fa9393784dbe2267400,AWAITING REVIEW,2024-02-15T14:29:07.355000Z,2024-02-15T14:43:48.591000Z,,2024-02-15T14:43:49.096724Z,882.0,CVPIIDEI,991,25,Female,White,United States,United States,United States,English,No,Unemployed (and job seeking),Not Applicable
6313f4ebb6eb359b0650a088,<b>Most false beliefs spread because people try to deceive one another.,Highly disagree,63/94,Somewhat agree,3,1708007986873,1708007995733,\Somewhat agree\,\Somewhat agree\,\3\,1708007994199,1708007994199,7326,7326,8860,buq,qns-item-noham,63,625687,0.0-1.0-0.62,65ce1fa9393784dbe2267400,AWAITING REVIEW,2024-02-15T14:29:07.355000Z,2024-02-15T14:43:48.591000Z,,2024-02-15T14:43:49.096724Z,882.0,CVPIIDEI,991,25,Female,White,United States,United States,United States,English,No,Unemployed (and job seeking),Not Applicable
6313f4ebb6eb359b0650a088,<b>I can usually find something to agree with in most people?s beliefs.,Highly disagree,64/94,Somewhat agree,3,1708007995737,1708008004464,\Somewhat agree\,\Somewhat agree\,\3\,1708008002981,1708008002981,7244,7244,8727,buq,qns-item-noham,64,634418,0.0-1.0-0.63,65ce1fa9393784dbe2267400,AWAITING REVIEW,2024-02-15T14:29:07.355000Z,2024-02-15T14:43:48.591000Z,,2024-02-15T14:43:49.096724Z,882.0,CVPIIDEI,991,25,Female,White,United States,United States,United States,English,No,Unemployed (and job seeking),Not Applicable
6313f4ebb6eb359b0650a088,<b>I only form my views of people once I get to know them very well.,Highly disagree,65/94,Somewhat agree,3,1708008004468,1708008010180,\Somewhat agree\,\Somewhat agree\,\3\,1708008009193,1708008009193,4725,4725,5712,buq,qns-item-noham,65,640134,0.0-1.0-0.64,65ce1fa9393784dbe2267400,AWAITING REVIEW,2024-02-15T14:29:07.355000Z,2024-02-15T14:43:48.591000Z,,2024-02-15T14:43:49.096724Z,882.0,CVPIIDEI,991,25,Female,White,United States,United States,United States,English,No,Unemployed (and job seeking),Not Applicable
6313f4ebb6eb359b0650a088,"<b>When people tell me important things about the world, I usually believe them.",Highly disagree,66/94,Somewhat agree,3,1708008010183,1708008016662,\Somewhat agree\,\Somewhat agree\,\3\,1708008015332,1708008015332,5149,5149,6479,buq,qns-item-noham,66,646616,0.0-1.0-0.65,65ce1fa9393784dbe2267400,AWAITING REVIEW,2024-02-15T14:29:07.355000Z,2024-02-15T14:43:48.591000Z,,2024-02-15T14:43:49.096724Z,882.0,CVPIIDEI,991,25,Female,White,United States,United States,United States,English,No,Unemployed (and job seeking),Not Applicable
6313f4ebb6eb359b0650a088,"<b>If a friend does something that upsets me, it reminds me what an unpredictable place the world is.",Highly disagree,67/94,Somewhat agree,3,1708008016666,1708008021107,\Somewhat agree\,\Somewhat agree\,\3\,1708008020302,1708008020302,3636,3636,4441,buq,qns-item-noham,67,651061,0.0-1.0-0.66,65ce1fa9393784dbe2267400,AWAITING REVIEW,2024-02-15T14:29:07.355000Z,2024-02-15T14:43:48.591000Z,,2024-02-15T14:43:49.096724Z,882.0,CVPIIDEI,991,25,Female,White,United States,United States,United States,English,No,Unemployed (and job seeking),Not Applicable
6313f4ebb6eb359b0650a088,<b>People tend to believe whatever is good for their friends.,Highly disagree,68/94,Somewhat agree,3,1708008021110,1708008024446,\Somewhat agree\,\Somewhat agree\,\3\,1708008023648,1708008023648,2538,2538,3336,buq,qns-item-noham,68,654400,0.0-1.0-0.67,65ce1fa9393784dbe2267400,AWAITING REVIEW,2024-02-15T14:29:07.355000Z,2024-02-15T14:43:48.591000Z,,2024-02-15T14:43:49.096724Z,882.0,CVPIIDEI,991,25,Female,White,United States,United States,United States,English,No,Unemployed (and job seeking),Not Applicable
6313f4ebb6eb359b0650a088,<b>I used to be more certain my beliefs were true.,Highly disagree,69/94,Somewhat agree,3,1708008024449,1708008028993,\Somewhat agree\,\Somewhat agree\,\3\,1708008027984,1708008027984,3535,3535,4544,buq,qns-item-noham,69,658947,0.0-1.0-0.68,65ce1fa9393784dbe2267400,AWAITING REVIEW,2024-02-15T14:29:07.355000Z,2024-02-15T14:43:48.591000Z,,2024-02-15T14:43:49.096724Z,882.0,CVPIIDEI,991,25,Female,White,United States,United States,United States,English,No,Unemployed (and job seeking),Not Applicable
6313f4ebb6eb359b0650a088,<b>It?s often pretty easy to figure out whether something is true based on who said it.,Highly disagree,70/94,Somewhat agree,3,1708008028997,1708008034326,\Somewhat agree\,\Somewhat agree\,\3\,1708008033580,1708008033580,4583,4583,5329,buq,qns-item-noham,70,664280,0.0-1.0-0.69,65ce1fa9393784dbe2267400,AWAITING REVIEW,2024-02-15T14:29:07.355000Z,2024-02-15T14:43:48.591000Z,,2024-02-15T14:43:49.096724Z,882.0,CVPIIDEI,991,25,Female,White,United States,United States,United States,English,No,Unemployed (and job seeking),Not Applicable
6313f4ebb6eb359b0650a088,<b>I transform into a hummingbird every day.,Highly disagree,71/94,Highly disagree,1,1708008034329,1708008042412,\Somewhat disagree\,\Highly disagree\,\2\,1708008040264,1708008041333,5935,7004,8083,buq,qns-item-noham,71,672367,0.0-1.0-0.70,65ce1fa9393784dbe2267400,AWAITING REVIEW,2024-02-15T14:29:07.355000Z,2024-02-15T14:43:48.591000Z,,2024-02-15T14:43:49.096724Z,882.0,CVPIIDEI,991,25,Female,White,United States,United States,United States,English,No,Unemployed (and job seeking),Not Applicable
6313f4ebb6eb359b0650a088,<b>I think a lot about arguments against my views.,Highly disagree,72/94,Somewhat agree,3,1708008042416,1708008054259,\Somewhat agree\,\Somewhat agree\,\3\,1708008052565,1708008052565,10149,10149,11843,buq,qns-item-noham,72,684213,0.0-1.0-0.71,65ce1fa9393784dbe2267400,AWAITING REVIEW,2024-02-15T14:29:07.355000Z,2024-02-15T14:43:48.591000Z,,2024-02-15T14:43:49.096724Z,882.0,CVPIIDEI,991,25,Female,White,United States,United States,United States,English,No,Unemployed (and job seeking),Not Applicable
6313f4ebb6eb359b0650a088,<b>Personal experience is usually more important than facts and figures.,Highly disagree,73/94,Somewhat agree,3,1708008054262,1708008062162,\Somewhat agree\,\Somewhat agree\,\3\,1708008061436,1708008061436,7174,7174,7900,buq,qns-item-noham,73,692116,0.0-1.0-0.72,65ce1fa9393784dbe2267400,AWAITING REVIEW,2024-02-15T14:29:07.355000Z,2024-02-15T14:43:48.591000Z,,2024-02-15T14:43:49.096724Z,882.0,CVPIIDEI,991,25,Female,White,United States,United States,United States,English,No,Unemployed (and job seeking),Not Applicable
6313f4ebb6eb359b0650a088,<b>I?ve been tricked before about important matters.,Highly disagree,74/94,Somewhat agree,3,1708008062165,1708008065035,\Somewhat agree\,\Somewhat agree\,\3\,1708008064168,1708008064168,2003,2003,2870,buq,qns-item-noham,74,694989,0.0-1.0-0.73,65ce1fa9393784dbe2267400,AWAITING REVIEW,2024-02-15T14:29:07.355000Z,2024-02-15T14:43:48.591000Z,,2024-02-15T14:43:49.096724Z,882.0,CVPIIDEI,991,25,Female,White,United States,United States,United States,English,No,Unemployed (and job seeking),Not Applicable
6313f4ebb6eb359b0650a088,<b>I would need to be totally wowed if I were to change my opinion of a restaurant I don?t like.,Highly disagree,75/94,Somewhat agree,3,1708008065039,1708008072233,\Somewhat agree\,\Somewhat agree\,\3\,1708008070387,1708008070387,5348,5348,7194,buq,qns-item-noham,75,702187,0.0-1.0-0.74,65ce1fa9393784dbe2267400,AWAITING REVIEW,2024-02-15T14:29:07.355000Z,2024-02-15T14:43:48.591000Z,,2024-02-15T14:43:49.096724Z,882.0,CVPIIDEI,991,25,Female,White,United States,United States,United States,English,No,Unemployed (and job seeking),Not Applicable
6313f4ebb6eb359b0650a088,<b>I care a lot about politics.,Highly disagree,76/94,Somewhat agree,3,1708008072237,1708008075903,\Somewhat agree\,\Somewhat agree\,\3\,1708008074219,1708008074219,1982,1982,3666,buq,qns-item-noham,76,705857,0.0-1.0-0.75,65ce1fa9393784dbe2267400,AWAITING REVIEW,2024-02-15T14:29:07.355000Z,2024-02-15T14:43:48.591000Z,,2024-02-15T14:43:49.096724Z,882.0,CVPIIDEI,991,25,Female,White,United States,United States,United States,English,No,Unemployed (and job seeking),Not Applicable
6313f4ebb6eb359b0650a088,<b>There are some topics I?ve been really wrong about.,Highly disagree,77/94,Somewhat agree,3,1708008075906,1708008079594,\Somewhat agree\,\Somewhat agree\,\3\,1708008078734,1708008078734,2828,2828,3688,buq,qns-item-noham,77,709549,0.0-1.0-0.76,65ce1fa9393784dbe2267400,AWAITING REVIEW,2024-02-15T14:29:07.355000Z,2024-02-15T14:43:48.591000Z,,2024-02-15T14:43:49.096724Z,882.0,CVPIIDEI,991,25,Female,White,United States,United States,United States,English,No,Unemployed (and job seeking),Not Applicable
6313f4ebb6eb359b0650a088,<b>Most beliefs can be supported with at least some evidence.,Highly disagree,78/94,Somewhat agree,3,1708008079597,1708008085640,\Somewhat agree\,\Somewhat agree\,\3\,1708008082323,1708008082323,2726,2726,6043,buq,qns-item-noham,78,715594,0.0-1.0-0.77,65ce1fa9393784dbe2267400,AWAITING REVIEW,2024-02-15T14:29:07.355000Z,2024-02-15T14:43:48.591000Z,,2024-02-15T14:43:49.096724Z,882.0,CVPIIDEI,991,25,Female,White,United States,United States,United States,English,No,Unemployed (and job seeking),Not Applicable
6313f4ebb6eb359b0650a088,<b>Other people make life out to be more complicated than it really is.,Highly disagree,79/94,Somewhat agree,3,1708008085648,1708008090186,\Somewhat agree\,\Somewhat agree\,\3\,1708008089097,1708008089097,3449,3449,4538,buq,qns-item-noham,79,720141,0.0-1.0-0.78,65ce1fa9393784dbe2267400,AWAITING REVIEW,2024-02-15T14:29:07.355000Z,2024-02-15T14:43:48.591000Z,,2024-02-15T14:43:49.096724Z,882.0,CVPIIDEI,991,25,Female,White,United States,United States,United States,English,No,Unemployed (and job seeking),Not Applicable
6313f4ebb6eb359b0650a088,"<b>Policy details don?t matter much, just the big picture.",Highly disagree,80/94,Somewhat agree,3,1708008090190,1708008094471,\Somewhat agree\,\Somewhat agree\,\3\,1708008092644,1708008092644,2454,2454,4281,buq,qns-item-noham,80,724425,0.0-1.0-0.79,65ce1fa9393784dbe2267400,AWAITING REVIEW,2024-02-15T14:29:07.355000Z,2024-02-15T14:43:48.591000Z,,2024-02-15T14:43:49.096724Z,882.0,CVPIIDEI,991,25,Female,White,United States,United States,United States,English,No,Unemployed (and job seeking),Not Applicable
6313f4ebb6eb359b0650a088,<b>I know my friends so well they can hardly ever surprise me.,Highly disagree,81/94,Somewhat agree,3,1708008094475,1708008097878,\Somewhat agree\,\Somewhat agree\,\3\,1708008097073,1708008097073,2598,2598,3403,buq,qns-item-noham,81,727832,0.0-1.0-0.80,65ce1fa9393784dbe2267400,AWAITING REVIEW,2024-02-15T14:29:07.355000Z,2024-02-15T14:43:48.591000Z,,2024-02-15T14:43:49.096724Z,882.0,CVPIIDEI,991,25,Female,White,United States,United States,United States,English,No,Unemployed (and job seeking),Not Applicable
6313f4ebb6eb359b0650a088,<b>I do not often change my views on people.,Highly disagree,82/94,Somewhat agree,3,1708008097881,1708008103121,\Somewhat agree\,\Somewhat agree\,\3\,1708008102333,1708008102333,4452,4452,5240,buq,qns-item-noham,82,733075,0.0-1.0-0.81,65ce1fa9393784dbe2267400,AWAITING REVIEW,2024-02-15T14:29:07.355000Z,2024-02-15T14:43:48.591000Z,,2024-02-15T14:43:49.096724Z,882.0,CVPIIDEI,991,25,Female,White,United States,United States,United States,English,No,Unemployed (and job seeking),Not Applicable
6313f4ebb6eb359b0650a088,<b>I?m more certain about my beliefs than I used to be.,Highly disagree,83/94,Somewhat agree,3,1708008103124,1708008109750,\Somewhat agree\,\Somewhat agree\,\3\,1708008108048,1708008108048,4924,4924,6626,buq,qns-item-noham,83,739704,0.0-1.0-0.82,65ce1fa9393784dbe2267400,AWAITING REVIEW,2024-02-15T14:29:07.355000Z,2024-02-15T14:43:48.591000Z,,2024-02-15T14:43:49.096724Z,882.0,CVPIIDEI,991,25,Female,White,United States,United States,United States,English,No,Unemployed (and job seeking),Not Applicable
6313f4ebb6eb359b0650a088,<b>People often tell falsehoods unintentionally.,Highly disagree,84/94,Somewhat agree,3,1708008109754,1708008113589,\Somewhat agree\,\Somewhat agree\,\3\,1708008112350,1708008112350,2596,2596,3835,buq,qns-item-noham,84,743543,0.0-1.0-0.83,65ce1fa9393784dbe2267400,AWAITING REVIEW,2024-02-15T14:29:07.355000Z,2024-02-15T14:43:48.591000Z,,2024-02-15T14:43:49.096724Z,882.0,CVPIIDEI,991,25,Female,White,United States,United States,United States,English,No,Unemployed (and job seeking),Not Applicable
6313f4ebb6eb359b0650a088,<b>Most people don?t know much about most things.,Highly disagree,85/94,Somewhat agree,3,1708008113594,1708008116834,\Somewhat agree\,\Somewhat agree\,\3\,1708008115806,1708008115806,2212,2212,3240,buq,qns-item-noham,85,746788,0.0-1.0-0.84,65ce1fa9393784dbe2267400,AWAITING REVIEW,2024-02-15T14:29:07.355000Z,2024-02-15T14:43:48.591000Z,,2024-02-15T14:43:49.096724Z,882.0,CVPIIDEI,991,25,Female,White,United States,United States,United States,English,No,Unemployed (and job seeking),Not Applicable
6313f4ebb6eb359b0650a088,"<b>If I find out something new about someone, I easily change my views about them.",Highly disagree,86/94,Somewhat agree,3,1708008116838,1708008121046,\Somewhat agree\,\Somewhat agree\,\3\,1708008119968,1708008119968,3130,3130,4208,buq,qns-item-noham,86,751000,0.0-1.0-0.85,65ce1fa9393784dbe2267400,AWAITING REVIEW,2024-02-15T14:29:07.355000Z,2024-02-15T14:43:48.591000Z,,2024-02-15T14:43:49.096724Z,882.0,CVPIIDEI,991,25,Female,White,United States,United States,United States,English,No,Unemployed (and job seeking),Not Applicable
6313f4ebb6eb359b0650a088,<b>Having true beliefs is difficult.,Highly disagree,87/94,Somewhat agree,3,1708008121051,1708008124088,\Somewhat agree\,\Somewhat agree\,\3\,1708008123201,1708008123201,2150,2150,3037,buq,qns-item-noham,87,754042,0.0-1.0-0.86,65ce1fa9393784dbe2267400,AWAITING REVIEW,2024-02-15T14:29:07.355000Z,2024-02-15T14:43:48.591000Z,,2024-02-15T14:43:49.096724Z,882.0,CVPIIDEI,991,25,Female,White,United States,United States,United States,English,No,Unemployed (and job seeking),Not Applicable
6313f4ebb6eb359b0650a088,<b>I don?t try new foods since I know I won?t like them.,Highly disagree,88/94,Highly agree,4,1708008124092,1708008131083,\Highly agree\,\Highly agree\,\4\,1708008127112,1708008127112,3020,3020,6991,buq,qns-item-noham,88,761037,0.0-1.0-0.87,65ce1fa9393784dbe2267400,AWAITING REVIEW,2024-02-15T14:29:07.355000Z,2024-02-15T14:43:48.591000Z,,2024-02-15T14:43:49.096724Z,882.0,CVPIIDEI,991,25,Female,White,United States,United States,United States,English,No,Unemployed (and job seeking),Not Applicable
6313f4ebb6eb359b0650a088,<b>Other people trick each other a lot.,Highly disagree,89/94,Highly agree,4,1708008131086,1708008135414,\Highly agree\,\Highly agree\,\4\,1708008134316,1708008134316,3230,3230,4328,buq,qns-item-noham,89,765369,0.0-1.0-0.88,65ce1fa9393784dbe2267400,AWAITING REVIEW,2024-02-15T14:29:07.355000Z,2024-02-15T14:43:48.591000Z,,2024-02-15T14:43:49.096724Z,882.0,CVPIIDEI,991,25,Female,White,United States,United States,United States,English,No,Unemployed (and job seeking),Not Applicable
6313f4ebb6eb359b0650a088,<b>I would need to learn a lot about a person for my opinion of them to be swayed.,Highly disagree,90/94,Highly agree,4,1708008135419,1708008146130,\Highly agree\,\Highly agree\,\4\,1708008145321,1708008145321,9902,9902,10711,buq,qns-item-noham,90,776084,0.0-1.0-0.89,65ce1fa9393784dbe2267400,AWAITING REVIEW,2024-02-15T14:29:07.355000Z,2024-02-15T14:43:48.591000Z,,2024-02-15T14:43:49.096724Z,882.0,CVPIIDEI,991,25,Female,White,United States,United States,United States,English,No,Unemployed (and job seeking),Not Applicable
6313f4ebb6eb359b0650a088,<b>People can?t usually trick me when it comes to topics I care about.,Highly disagree,91/94,Highly agree,4,1708008146133,1708008152455,\Highly agree\,\Highly agree\,\4\,1708008150843,1708008150843,4710,4710,6322,buq,qns-item-noham,91,782410,0.0-1.0-0.90,65ce1fa9393784dbe2267400,AWAITING REVIEW,2024-02-15T14:29:07.355000Z,2024-02-15T14:43:48.591000Z,,2024-02-15T14:43:49.096724Z,882.0,CVPIIDEI,991,25,Female,White,United States,United States,United States,English,No,Unemployed (and job seeking),Not Applicable
6313f4ebb6eb359b0650a088,<b>I do not often change my views on food.,Highly disagree,92/94,Highly agree,4,1708008152461,1708008158936,\Highly agree\,\Highly agree\,\4\,1708008154823,1708008154986,2362,2525,6475,buq,qns-item-noham,92,788890,0.0-1.0-0.91,65ce1fa9393784dbe2267400,AWAITING REVIEW,2024-02-15T14:29:07.355000Z,2024-02-15T14:43:48.591000Z,,2024-02-15T14:43:49.096724Z,882.0,CVPIIDEI,991,25,Female,White,United States,United States,United States,English,No,Unemployed (and job seeking),Not Applicable
6313f4ebb6eb359b0650a088,<b>Specific policies are often very important to me.,Highly disagree,93/94,Highly agree,4,1708008158939,1708008163631,\Highly agree\,\Highly agree\,\4\,1708008161706,1708008161706,2767,2767,4692,buq,qns-item-noham,93,793585,0.0-1.0-0.92,65ce1fa9393784dbe2267400,AWAITING REVIEW,2024-02-15T14:29:07.355000Z,2024-02-15T14:43:48.591000Z,,2024-02-15T14:43:49.096724Z,882.0,CVPIIDEI,991,25,Female,White,United States,United States,United States,English,No,Unemployed (and job seeking),Not Applicable
6313f4ebb6eb359b0650a088,<b>Most people are woefully under-informed.,Highly disagree,94/94,Highly agree,4,1708008163634,1708008168356,\Highly agree\,\Highly agree\,\4\,1708008165927,1708008165927,2293,2293,4722,buq,qns-item-noham,94,798310,0.0-1.0-0.93,65ce1fa9393784dbe2267400,AWAITING REVIEW,2024-02-15T14:29:07.355000Z,2024-02-15T14:43:48.591000Z,,2024-02-15T14:43:49.096724Z,882.0,CVPIIDEI,991,25,Female,White,United States,United States,United States,English,No,Unemployed (and job seeking),Not Applicable
6313f4ebb6eb359b0650a088,,,,,,,,,,,,,,,,,,,,,65ce1fa9393784dbe2267400,AWAITING REVIEW,2024-02-15T14:29:07.355000Z,2024-02-15T14:43:48.591000Z,,2024-02-15T14:43:49.096724Z,882.0,CVPIIDEI,991,25,Female,White,United States,United States,United States,English,No,Unemployed (and job seeking),Not Applicable
