PROLIFIC_PID,Question,qns_options,quest_num,answer,answer_num,question_load_timestamp,next_btn_timestamp,text_selected,final_text_selected,option_num_selected,preview_timestamps,final_text_selected_time_stamp,rt_first_option_click,rt_final_option_click,rt_submit_click,questionnaire,trial_type,trial_index,time_elapsed,internal_node_id,Demographic_Submission id,Demographic_Status,Demographic_Started at,Demographic_Completed at,Demographic_Reviewed at,Demographic_Archived at,Demographic_Time taken,Demographic_Completion code,Demographic_Total approvals,Demographic_Age,Demographic_Sex,Demographic_Ethnicity simplified,Demographic_Country of birth,Demographic_Country of residence,Demographic_Nationality,Demographic_Language,Demographic_Student status,Demographic_Employment status,Demographic_Custom study tncs accepted at
65c12143b109e591c2192ade,<b>Knowing what?s true and knowing what to do about it are usually basically the same.,Highly disagree,1/94,Highly disagree,1,1708007613795,1708007631379,\Highly disagree\,\Highly disagree\,\1\,1708007629935,1708007629935,16140,16140,17584,buq,qns-item-noham,1,47253,0.0-1.0-0.0,65ce207a780605d135385558,AWAITING REVIEW,2024-02-15T14:32:34.776000Z,2024-02-15T14:48:43.672000Z,,2024-02-15T14:48:44.945601Z,969.0,CVPIIDEI,23,39,Female,Black,United States,United States,United States,English,No,Full-Time,Not Applicable
65c12143b109e591c2192ade,<b>Most people just believe whatever is convenient for them.,Highly disagree,2/94,Highly agree,4,1708007631383,1708007639158,\Highly agree\,\Highly agree\,\4\,1708007637338,1708007637338,5955,5955,7775,buq,qns-item-noham,2,55032,0.0-1.0-0.1,65ce207a780605d135385558,AWAITING REVIEW,2024-02-15T14:32:34.776000Z,2024-02-15T14:48:43.672000Z,,2024-02-15T14:48:44.945601Z,969.0,CVPIIDEI,23,39,Female,Black,United States,United States,United States,English,No,Full-Time,Not Applicable
65c12143b109e591c2192ade,<b>Having some big beliefs helps me sort out minor ones.,Highly disagree,3/94,Highly agree,4,1708007639164,1708007652500,\Highly agree\,\Highly agree\,\4\,1708007647688,1708007647688,8524,8524,13336,buq,qns-item-noham,3,68375,0.0-1.0-0.2,65ce207a780605d135385558,AWAITING REVIEW,2024-02-15T14:32:34.776000Z,2024-02-15T14:48:43.672000Z,,2024-02-15T14:48:44.945601Z,969.0,CVPIIDEI,23,39,Female,Black,United States,United States,United States,English,No,Full-Time,Not Applicable
65c12143b109e591c2192ade,<b>Political questions are usually pretty complicated.,Highly disagree,4/94,Highly agree,4,1708007652505,1708007660394,\Highly agree\,\Highly agree\,\4\,1708007659195,1708007659195,6690,6690,7889,buq,qns-item-noham,4,76268,0.0-1.0-0.3,65ce207a780605d135385558,AWAITING REVIEW,2024-02-15T14:32:34.776000Z,2024-02-15T14:48:43.672000Z,,2024-02-15T14:48:44.945601Z,969.0,CVPIIDEI,23,39,Female,Black,United States,United States,United States,English,No,Full-Time,Not Applicable
65c12143b109e591c2192ade,<b>Figuring out what?s important in life requires learning a lot of facts.,Highly disagree,5/94,Highly agree,4,1708007660397,1708007670017,\Highly agree\,\Highly agree\,\4\,1708007665189,1708007665189,4792,4792,9620,buq,qns-item-noham,5,85891,0.0-1.0-0.4,65ce207a780605d135385558,AWAITING REVIEW,2024-02-15T14:32:34.776000Z,2024-02-15T14:48:43.672000Z,,2024-02-15T14:48:44.945601Z,969.0,CVPIIDEI,23,39,Female,Black,United States,United States,United States,English,No,Full-Time,Not Applicable
65c12143b109e591c2192ade,<b>It is difficult for me to remember the last time I was surprised by politics.,Highly disagree,6/94,Highly disagree,1,1708007670019,1708007678515,\Highly disagree\,\Highly disagree\,\1\,1708007677184,1708007677184,7165,7165,8496,buq,qns-item-noham,6,94390,0.0-1.0-0.5,65ce207a780605d135385558,AWAITING REVIEW,2024-02-15T14:32:34.776000Z,2024-02-15T14:48:43.672000Z,,2024-02-15T14:48:44.945601Z,969.0,CVPIIDEI,23,39,Female,Black,United States,United States,United States,English,No,Full-Time,Not Applicable
65c12143b109e591c2192ade,<b>People?s false beliefs are understandable.,Highly disagree,7/94,Highly disagree,1,1708007678520,1708007686556,\Highly disagree\,\Highly disagree\,\1\,1708007685464,1708007685464,6944,6944,8036,buq,qns-item-noham,7,102430,0.0-1.0-0.6,65ce207a780605d135385558,AWAITING REVIEW,2024-02-15T14:32:34.776000Z,2024-02-15T14:48:43.672000Z,,2024-02-15T14:48:44.945601Z,969.0,CVPIIDEI,23,39,Female,Black,United States,United States,United States,English,No,Full-Time,Not Applicable
65c12143b109e591c2192ade,<b>I spend a lot of time trying to be informed about politics.,Highly disagree,8/94,Highly disagree,1,1708007686561,1708007695737,\Highly disagree\,\Highly disagree\,\1\,1708007693552,1708007693552,6991,6991,9176,buq,qns-item-noham,8,111612,0.0-1.0-0.7,65ce207a780605d135385558,AWAITING REVIEW,2024-02-15T14:32:34.776000Z,2024-02-15T14:48:43.672000Z,,2024-02-15T14:48:44.945601Z,969.0,CVPIIDEI,23,39,Female,Black,United States,United States,United States,English,No,Full-Time,Not Applicable
65c12143b109e591c2192ade,<b>I think a lot about whether my beliefs are right.,Highly disagree,9/94,Highly disagree,1,1708007695743,1708007701556,\Highly disagree\,\Highly disagree\,\1\,1708007700546,1708007700546,4803,4803,5813,buq,qns-item-noham,9,117430,0.0-1.0-0.8,65ce207a780605d135385558,AWAITING REVIEW,2024-02-15T14:32:34.776000Z,2024-02-15T14:48:43.672000Z,,2024-02-15T14:48:44.945601Z,969.0,CVPIIDEI,23,39,Female,Black,United States,United States,United States,English,No,Full-Time,Not Applicable
65c12143b109e591c2192ade,<b>Statistics can be pretty misleading sometimes.,Highly disagree,10/94,Highly agree,4,1708007701559,1708007709871,\Highly agree\,\Highly agree\,\4\,1708007708846,1708007708846,7287,7287,8312,buq,qns-item-noham,10,125746,0.0-1.0-0.9,65ce207a780605d135385558,AWAITING REVIEW,2024-02-15T14:32:34.776000Z,2024-02-15T14:48:43.672000Z,,2024-02-15T14:48:44.945601Z,969.0,CVPIIDEI,23,39,Female,Black,United States,United States,United States,English,No,Full-Time,Not Applicable
65c12143b109e591c2192ade,<b>I have lots of beliefs that I?m only sort of sure about.,Highly disagree,11/94,Highly disagree,1,1708007709875,1708007728114,\Highly disagree\,\Highly disagree\,\1\,1708007727088,1708007727088,17213,17213,18239,buq,qns-item-noham,11,143988,0.0-1.0-0.10,65ce207a780605d135385558,AWAITING REVIEW,2024-02-15T14:32:34.776000Z,2024-02-15T14:48:43.672000Z,,2024-02-15T14:48:44.945601Z,969.0,CVPIIDEI,23,39,Female,Black,United States,United States,United States,English,No,Full-Time,Not Applicable
65c12143b109e591c2192ade,"<b>If I go to my favorite restaurant and the food is surprisingly bad, it reminds me there are many disappointments in life.",Highly disagree,12/94,Highly disagree,1,1708007728117,1708007740859,\Highly disagree\,\Highly disagree\,\1\,1708007739643,1708007739643,11526,11526,12742,buq,qns-item-noham,12,156733,0.0-1.0-0.11,65ce207a780605d135385558,AWAITING REVIEW,2024-02-15T14:32:34.776000Z,2024-02-15T14:48:43.672000Z,,2024-02-15T14:48:44.945601Z,969.0,CVPIIDEI,23,39,Female,Black,United States,United States,United States,English,No,Full-Time,Not Applicable
65c12143b109e591c2192ade,"<b>If you are paying attention, please select ?Somewhat agree?",Highly disagree,13/94,Somewhat agree,3,1708007740862,1708007752478,\Somewhat agree\,\Somewhat agree\,\3\,1708007748031,1708007748031,7169,7169,11616,buq,qns-item-noham,13,168352,0.0-1.0-0.12,65ce207a780605d135385558,AWAITING REVIEW,2024-02-15T14:32:34.776000Z,2024-02-15T14:48:43.672000Z,,2024-02-15T14:48:44.945601Z,969.0,CVPIIDEI,23,39,Female,Black,United States,United States,United States,English,No,Full-Time,Not Applicable
65c12143b109e591c2192ade,"<b>When I talk to others, I often worry I?ll convince them of something I didn?t mean to.",Highly disagree,14/94,Highly disagree,1,1708007752480,1708007768933,\Highly disagree\,\Highly disagree\,\1\,1708007767745,1708007767745,15265,15265,16453,buq,qns-item-noham,14,184807,0.0-1.0-0.13,65ce207a780605d135385558,AWAITING REVIEW,2024-02-15T14:32:34.776000Z,2024-02-15T14:48:43.672000Z,,2024-02-15T14:48:44.945601Z,969.0,CVPIIDEI,23,39,Female,Black,United States,United States,United States,English,No,Full-Time,Not Applicable
65c12143b109e591c2192ade,<b>I would need to learn something utterly shocking about my party in order to change my political views.,Highly disagree,15/94,Highly disagree,1,1708007768937,1708007774828,\Highly disagree\,\Highly disagree\,\1\,1708007773726,1708007773726,4789,4789,5891,buq,qns-item-noham,15,190702,0.0-1.0-0.14,65ce207a780605d135385558,AWAITING REVIEW,2024-02-15T14:32:34.776000Z,2024-02-15T14:48:43.672000Z,,2024-02-15T14:48:44.945601Z,969.0,CVPIIDEI,23,39,Female,Black,United States,United States,United States,English,No,Full-Time,Not Applicable
65c12143b109e591c2192ade,"<b>When I have new experiences, I tend to think of them as unique.",Highly disagree,16/94,Somewhat agree,3,1708007774829,1708007785032,\Somewhat agree\,\Somewhat agree\,\3\,1708007783725,1708007783725,8896,8896,10203,buq,qns-item-noham,16,200906,0.0-1.0-0.15,65ce207a780605d135385558,AWAITING REVIEW,2024-02-15T14:32:34.776000Z,2024-02-15T14:48:43.672000Z,,2024-02-15T14:48:44.945601Z,969.0,CVPIIDEI,23,39,Female,Black,United States,United States,United States,English,No,Full-Time,Not Applicable
65c12143b109e591c2192ade,<b>I change my mind about specific policies pretty frequently.,Highly disagree,17/94,Highly disagree,1,1708007785034,1708007790406,\Highly disagree\,\Highly disagree\,\1\,1708007789324,1708007789324,4290,4290,5372,buq,qns-item-noham,17,206280,0.0-1.0-0.16,65ce207a780605d135385558,AWAITING REVIEW,2024-02-15T14:32:34.776000Z,2024-02-15T14:48:43.672000Z,,2024-02-15T14:48:44.945601Z,969.0,CVPIIDEI,23,39,Female,Black,United States,United States,United States,English,No,Full-Time,Not Applicable
65c12143b109e591c2192ade,"<b>If a politician in my political party supports something I disagree with, I give them the benefit of the doubt, as such issues often involve hidden complexities that aren?t obvious.   ",Highly disagree,18/94,Highly disagree,1,1708007790407,1708007797224,\Highly disagree\,\Highly disagree\,\1\,1708007796154,1708007796154,5747,5747,6817,buq,qns-item-noham,18,213098,0.0-1.0-0.17,65ce207a780605d135385558,AWAITING REVIEW,2024-02-15T14:32:34.776000Z,2024-02-15T14:48:43.672000Z,,2024-02-15T14:48:44.945601Z,969.0,CVPIIDEI,23,39,Female,Black,United States,United States,United States,English,No,Full-Time,Not Applicable
65c12143b109e591c2192ade,<b>People?s bad politics are usually motivated by hatefulness.,Highly disagree,19/94,Highly agree,4,1708007797226,1708007812184,\Highly agree\,\Highly agree\,\4\,1708007811044,1708007811044,13818,13818,14958,buq,qns-item-noham,19,228058,0.0-1.0-0.18,65ce207a780605d135385558,AWAITING REVIEW,2024-02-15T14:32:34.776000Z,2024-02-15T14:48:43.672000Z,,2024-02-15T14:48:44.945601Z,969.0,CVPIIDEI,23,39,Female,Black,United States,United States,United States,English,No,Full-Time,Not Applicable
65c12143b109e591c2192ade,<b>I think a lot about how to reconcile my beliefs with one another.,Highly disagree,20/94,Highly disagree,1,1708007812186,1708007819135,\Highly disagree\,\Highly disagree\,\1\,1708007818141,1708007818141,5955,5955,6949,buq,qns-item-noham,20,235009,0.0-1.0-0.19,65ce207a780605d135385558,AWAITING REVIEW,2024-02-15T14:32:34.776000Z,2024-02-15T14:48:43.672000Z,,2024-02-15T14:48:44.945601Z,969.0,CVPIIDEI,23,39,Female,Black,United States,United States,United States,English,No,Full-Time,Not Applicable
65c12143b109e591c2192ade,<b>I might have false beliefs about important topics.,Highly disagree,21/94,Highly disagree,1,1708007819136,1708007824628,\Highly disagree\,\Highly disagree\,\1\,1708007823413,1708007823413,4277,4277,5492,buq,qns-item-noham,21,240502,0.0-1.0-0.20,65ce207a780605d135385558,AWAITING REVIEW,2024-02-15T14:32:34.776000Z,2024-02-15T14:48:43.672000Z,,2024-02-15T14:48:44.945601Z,969.0,CVPIIDEI,23,39,Female,Black,United States,United States,United States,English,No,Full-Time,Not Applicable
65c12143b109e591c2192ade,"<b>If a good friend of mine does something unexpected that upsets me, I feel like I don?t know them anymore.",Highly disagree,22/94,Highly disagree,1,1708007824629,1708007838591,\Highly disagree\,\Highly disagree\,\1\,1708007837482,1708007837482,12853,12853,13962,buq,qns-item-noham,22,254465,0.0-1.0-0.21,65ce207a780605d135385558,AWAITING REVIEW,2024-02-15T14:32:34.776000Z,2024-02-15T14:48:43.672000Z,,2024-02-15T14:48:44.945601Z,969.0,CVPIIDEI,23,39,Female,Black,United States,United States,United States,English,No,Full-Time,Not Applicable
65c12143b109e591c2192ade,<b>Other people?s beliefs are often incoherent.,Highly disagree,23/94,Somewhat agree,3,1708007838593,1708007870409,\Somewhat agree\,\Somewhat agree\,\3\,1708007869179,1708007869179,30586,30586,31816,buq,qns-item-noham,23,286283,0.0-1.0-0.22,65ce207a780605d135385558,AWAITING REVIEW,2024-02-15T14:32:34.776000Z,2024-02-15T14:48:43.672000Z,,2024-02-15T14:48:44.945601Z,969.0,CVPIIDEI,23,39,Female,Black,United States,United States,United States,English,No,Full-Time,Not Applicable
65c12143b109e591c2192ade,"<b>Every now and then, a new experience will unsettle beliefs I?ve had for a while.",Highly disagree,24/94,Highly disagree,1,1708007870412,1708007879548,\Highly disagree\,\Highly disagree\,\1\,1708007878444,1708007878444,8032,8032,9136,buq,qns-item-noham,24,295423,0.0-1.0-0.23,65ce207a780605d135385558,AWAITING REVIEW,2024-02-15T14:32:34.776000Z,2024-02-15T14:48:43.672000Z,,2024-02-15T14:48:44.945601Z,969.0,CVPIIDEI,23,39,Female,Black,United States,United States,United States,English,No,Full-Time,Not Applicable
65c12143b109e591c2192ade,<b>Some policies I agree with in principle are so bad I don?t support them. ,Highly disagree,25/94,Somewhat disagree,2,1708007879551,1708007892187,\Somewhat disagree\,\Somewhat disagree\,\2\,1708007891251,1708007891251,11700,11700,12636,buq,qns-item-noham,25,308061,0.0-1.0-0.24,65ce207a780605d135385558,AWAITING REVIEW,2024-02-15T14:32:34.776000Z,2024-02-15T14:48:43.672000Z,,2024-02-15T14:48:44.945601Z,969.0,CVPIIDEI,23,39,Female,Black,United States,United States,United States,English,No,Full-Time,Not Applicable
65c12143b109e591c2192ade,<b>I?m pretty sure I?ve accidentally spread false information.,Highly disagree,26/94,Highly disagree,1,1708007892189,1708007899771,\Highly disagree\,\Highly disagree\,\1\,1708007898790,1708007898790,6601,6601,7582,buq,qns-item-noham,26,315645,0.0-1.0-0.25,65ce207a780605d135385558,AWAITING REVIEW,2024-02-15T14:32:34.776000Z,2024-02-15T14:48:43.672000Z,,2024-02-15T14:48:44.945601Z,969.0,CVPIIDEI,23,39,Female,Black,United States,United States,United States,English,No,Full-Time,Not Applicable
65c12143b109e591c2192ade,"<b>If I go to my favorite restaurant and the food is unexpectedly bad, then they have changed owners.",Highly disagree,27/94,Highly disagree,1,1708007899774,1708007915032,\Highly disagree\,\Highly disagree\,\1\,1708007913843,1708007913843,14069,14069,15258,buq,qns-item-noham,27,330906,0.0-1.0-0.26,65ce207a780605d135385558,AWAITING REVIEW,2024-02-15T14:32:34.776000Z,2024-02-15T14:48:43.672000Z,,2024-02-15T14:48:44.945601Z,969.0,CVPIIDEI,23,39,Female,Black,United States,United States,United States,English,No,Full-Time,Not Applicable
65c12143b109e591c2192ade,"<b>In politics, it?s important to trust your friends and family.",Highly disagree,28/94,Highly disagree,1,1708007915035,1708007948668,\Highly disagree\,\Highly disagree\,\1\,1708007947496,1708007947496,32461,32461,33633,buq,qns-item-noham,28,364542,0.0-1.0-0.27,65ce207a780605d135385558,AWAITING REVIEW,2024-02-15T14:32:34.776000Z,2024-02-15T14:48:43.672000Z,,2024-02-15T14:48:44.945601Z,969.0,CVPIIDEI,23,39,Female,Black,United States,United States,United States,English,No,Full-Time,Not Applicable
65c12143b109e591c2192ade,<b>It?s OK to have some conflicting beliefs.,Highly disagree,29/94,Highly disagree,1,1708007948672,1708007952909,\Highly disagree\,\Highly disagree\,\1\,1708007951780,1708007951780,3108,3108,4237,buq,qns-item-noham,29,368784,0.0-1.0-0.28,65ce207a780605d135385558,AWAITING REVIEW,2024-02-15T14:32:34.776000Z,2024-02-15T14:48:43.672000Z,,2024-02-15T14:48:44.945601Z,969.0,CVPIIDEI,23,39,Female,Black,United States,United States,United States,English,No,Full-Time,Not Applicable
65c12143b109e591c2192ade,<b>Listening to people I disagree with makes my opinions better.,Highly disagree,30/94,Highly disagree,1,1708007952912,1708007958891,\Highly disagree\,\Highly disagree\,\1\,1708007956485,1708007956485,3573,3573,5979,buq,qns-item-noham,30,374765,0.0-1.0-0.29,65ce207a780605d135385558,AWAITING REVIEW,2024-02-15T14:32:34.776000Z,2024-02-15T14:48:43.672000Z,,2024-02-15T14:48:44.945601Z,969.0,CVPIIDEI,23,39,Female,Black,United States,United States,United States,English,No,Full-Time,Not Applicable
65c12143b109e591c2192ade,<b>My moral compass sometimes makes it harder to determine what?s true.,Highly disagree,31/94,Highly disagree,1,1708007958892,1708007963770,\Highly disagree\,\Highly disagree\,\1\,1708007962603,1708007962603,3711,3711,4878,buq,qns-item-noham,31,379644,0.0-1.0-0.30,65ce207a780605d135385558,AWAITING REVIEW,2024-02-15T14:32:34.776000Z,2024-02-15T14:48:43.672000Z,,2024-02-15T14:48:44.945601Z,969.0,CVPIIDEI,23,39,Female,Black,United States,United States,United States,English,No,Full-Time,Not Applicable
65c12143b109e591c2192ade,<b>Evidence pointing in the wrong direction isn?t really evidence at all.,Highly disagree,32/94,Highly disagree,1,1708007963773,1708007969591,\Highly disagree\,\Highly disagree\,\1\,1708007968562,1708007968562,4789,4789,5818,buq,qns-item-noham,32,385465,0.0-1.0-0.31,65ce207a780605d135385558,AWAITING REVIEW,2024-02-15T14:32:34.776000Z,2024-02-15T14:48:43.672000Z,,2024-02-15T14:48:44.945601Z,969.0,CVPIIDEI,23,39,Female,Black,United States,United States,United States,English,No,Full-Time,Not Applicable
65c12143b109e591c2192ade,"<b>If the political party I support messes up, it makes me think politics is rotten.",Highly disagree,33/94,Highly disagree,1,1708007969594,1708007975476,\Highly disagree\,\Highly disagree\,\1\,1708007972690,1708007972690,3096,3096,5882,buq,qns-item-noham,33,391350,0.0-1.0-0.32,65ce207a780605d135385558,AWAITING REVIEW,2024-02-15T14:32:34.776000Z,2024-02-15T14:48:43.672000Z,,2024-02-15T14:48:44.945601Z,969.0,CVPIIDEI,23,39,Female,Black,United States,United States,United States,English,No,Full-Time,Not Applicable
65c12143b109e591c2192ade,<b>Lots of important topics can only really be understood by some groups of people.,Highly disagree,34/94,Highly agree,4,1708007975479,1708007986331,\Highly agree\,\Highly agree\,\4\,1708007984421,1708007984421,8942,8942,10852,buq,qns-item-noham,34,402205,0.0-1.0-0.33,65ce207a780605d135385558,AWAITING REVIEW,2024-02-15T14:32:34.776000Z,2024-02-15T14:48:43.672000Z,,2024-02-15T14:48:44.945601Z,969.0,CVPIIDEI,23,39,Female,Black,United States,United States,United States,English,No,Full-Time,Not Applicable
65c12143b109e591c2192ade,<b>Having conflicting beliefs means you haven?t thought about them enough.,Highly disagree,35/94,Somewhat agree,3,1708007986334,1708007996172,\Highly disagree\,\Somewhat agree\,\1\,1708007993378,1708007995159,7044,8825,9838,buq,qns-item-noham,35,412046,0.0-1.0-0.34,65ce207a780605d135385558,AWAITING REVIEW,2024-02-15T14:32:34.776000Z,2024-02-15T14:48:43.672000Z,,2024-02-15T14:48:44.945601Z,969.0,CVPIIDEI,23,39,Female,Black,United States,United States,United States,English,No,Full-Time,Not Applicable
65c12143b109e591c2192ade,<b>I do not often change my political opinions.,Highly disagree,36/94,Highly disagree,1,1708007996173,1708007999717,\Highly disagree\,\Highly disagree\,\1\,1708007998835,1708007998835,2662,2662,3544,buq,qns-item-noham,36,415591,0.0-1.0-0.35,65ce207a780605d135385558,AWAITING REVIEW,2024-02-15T14:32:34.776000Z,2024-02-15T14:48:43.672000Z,,2024-02-15T14:48:44.945601Z,969.0,CVPIIDEI,23,39,Female,Black,United States,United States,United States,English,No,Full-Time,Not Applicable
65c12143b109e591c2192ade,<b>It?s difficult to not have at least some conflicting beliefs.,Highly disagree,37/94,Somewhat disagree,2,1708007999718,1708008011641,\Somewhat agree\,\Somewhat disagree\,\3\,1708008009626,1708008010648,9908,10930,11923,buq,qns-item-noham,37,427515,0.0-1.0-0.36,65ce207a780605d135385558,AWAITING REVIEW,2024-02-15T14:32:34.776000Z,2024-02-15T14:48:43.672000Z,,2024-02-15T14:48:44.945601Z,969.0,CVPIIDEI,23,39,Female,Black,United States,United States,United States,English,No,Full-Time,Not Applicable
65c12143b109e591c2192ade,<b>Wishful thinking causes a lot of problems.,Highly disagree,38/94,Somewhat disagree,2,1708008011642,1708008016747,\Somewhat disagree\,\Somewhat disagree\,\2\,1708008015828,1708008015828,4186,4186,5105,buq,qns-item-noham,38,432621,0.0-1.0-0.37,65ce207a780605d135385558,AWAITING REVIEW,2024-02-15T14:32:34.776000Z,2024-02-15T14:48:43.672000Z,,2024-02-15T14:48:44.945601Z,969.0,CVPIIDEI,23,39,Female,Black,United States,United States,United States,English,No,Full-Time,Not Applicable
65c12143b109e591c2192ade,<b>I judge a food item only once I try it many times.,Highly disagree,39/94,Highly disagree,1,1708008016749,1708008028069,\Highly disagree\,\Highly disagree\,\1\,1708008026152,1708008026152,9403,9403,11320,buq,qns-item-noham,39,443943,0.0-1.0-0.38,65ce207a780605d135385558,AWAITING REVIEW,2024-02-15T14:32:34.776000Z,2024-02-15T14:48:43.672000Z,,2024-02-15T14:48:44.945601Z,969.0,CVPIIDEI,23,39,Female,Black,United States,United States,United States,English,No,Full-Time,Not Applicable
65c12143b109e591c2192ade,"<b>When a person holds conflicting beliefs, they should really try to figure out what?s wrong.",Highly disagree,40/94,Highly agree,4,1708008028071,1708008033745,\Highly agree\,\Highly agree\,\4\,1708008032762,1708008032762,4691,4691,5674,buq,qns-item-noham,40,449619,0.0-1.0-0.39,65ce207a780605d135385558,AWAITING REVIEW,2024-02-15T14:32:34.776000Z,2024-02-15T14:48:43.672000Z,,2024-02-15T14:48:44.945601Z,969.0,CVPIIDEI,23,39,Female,Black,United States,United States,United States,English,No,Full-Time,Not Applicable
65c12143b109e591c2192ade,<b>Knowing what?s important in life is easy.,Highly disagree,41/94,Somewhat agree,3,1708008033747,1708008043095,\Somewhat agree\,\Somewhat agree\,\3\,1708008042080,1708008042080,8333,8333,9348,buq,qns-item-noham,41,458969,0.0-1.0-0.40,65ce207a780605d135385558,AWAITING REVIEW,2024-02-15T14:32:34.776000Z,2024-02-15T14:48:43.672000Z,,2024-02-15T14:48:44.945601Z,969.0,CVPIIDEI,23,39,Female,Black,United States,United States,United States,English,No,Full-Time,Not Applicable
65c12143b109e591c2192ade,<b>I swim across the Atlantic Ocean to get to work every day.,Highly disagree,42/94,Highly disagree,1,1708008043096,1708008049114,\Highly disagree\,\Highly disagree\,\1\,1708008047028,1708008047028,3932,3932,6018,buq,qns-item-noham,42,464989,0.0-1.0-0.41,65ce207a780605d135385558,AWAITING REVIEW,2024-02-15T14:32:34.776000Z,2024-02-15T14:48:43.672000Z,,2024-02-15T14:48:44.945601Z,969.0,CVPIIDEI,23,39,Female,Black,United States,United States,United States,English,No,Full-Time,Not Applicable
65c12143b109e591c2192ade,"<b>Sometimes, you just have to ignore evidence that you know is wrong.",Highly disagree,43/94,Somewhat disagree,2,1708008049116,1708008057707,\Somewhat disagree\,\Somewhat disagree\,\2\,1708008056507,1708008056507,7391,7391,8591,buq,qns-item-noham,43,473581,0.0-1.0-0.42,65ce207a780605d135385558,AWAITING REVIEW,2024-02-15T14:32:34.776000Z,2024-02-15T14:48:43.672000Z,,2024-02-15T14:48:44.945601Z,969.0,CVPIIDEI,23,39,Female,Black,United States,United States,United States,English,No,Full-Time,Not Applicable
65c12143b109e591c2192ade,<b>I have had some false beliefs.,Highly disagree,44/94,Highly disagree,1,1708008057709,1708008063258,\Highly disagree\,\Highly disagree\,\1\,1708008062266,1708008062266,4557,4557,5549,buq,qns-item-noham,44,479132,0.0-1.0-0.43,65ce207a780605d135385558,AWAITING REVIEW,2024-02-15T14:32:34.776000Z,2024-02-15T14:48:43.672000Z,,2024-02-15T14:48:44.945601Z,969.0,CVPIIDEI,23,39,Female,Black,United States,United States,United States,English,No,Full-Time,Not Applicable
65c12143b109e591c2192ade,"<b>If one friend does something that upsets me, I sometimes start to distrust people in general.",Highly disagree,45/94,Highly disagree,1,1708008063261,1708008072604,\Highly disagree\,\Highly disagree\,\1\,1708008071132,1708008071132,7871,7871,9343,buq,qns-item-noham,45,488478,0.0-1.0-0.44,65ce207a780605d135385558,AWAITING REVIEW,2024-02-15T14:32:34.776000Z,2024-02-15T14:48:43.672000Z,,2024-02-15T14:48:44.945601Z,969.0,CVPIIDEI,23,39,Female,Black,United States,United States,United States,English,No,Full-Time,Not Applicable
65c12143b109e591c2192ade,<b>The facts about most important matters are easy to find.,Highly disagree,46/94,Highly agree,4,1708008072609,1708008082812,\Highly agree\,\Highly agree\,\4\,1708008081333,1708008081333,8724,8724,10203,buq,qns-item-noham,46,498686,0.0-1.0-0.45,65ce207a780605d135385558,AWAITING REVIEW,2024-02-15T14:32:34.776000Z,2024-02-15T14:48:43.672000Z,,2024-02-15T14:48:44.945601Z,969.0,CVPIIDEI,23,39,Female,Black,United States,United States,United States,English,No,Full-Time,Not Applicable
65c12143b109e591c2192ade,<b>It?s better to know what?s true than to know what?s moral.,Highly disagree,47/94,Highly disagree,1,1708008082816,1708008093875,\Highly disagree\,\Highly disagree\,\1\,1708008092725,1708008092725,9909,9909,11059,buq,qns-item-noham,47,509749,0.0-1.0-0.46,65ce207a780605d135385558,AWAITING REVIEW,2024-02-15T14:32:34.776000Z,2024-02-15T14:48:43.672000Z,,2024-02-15T14:48:44.945601Z,969.0,CVPIIDEI,23,39,Female,Black,United States,United States,United States,English,No,Full-Time,Not Applicable
65c12143b109e591c2192ade,<b>I used to think the world was less complicated than I do now.,Highly disagree,48/94,Somewhat agree,3,1708008093877,1708008101166,\Somewhat agree\,\Somewhat agree\,\3\,1708008100168,1708008100168,6291,6291,7289,buq,qns-item-noham,48,517040,0.0-1.0-0.47,65ce207a780605d135385558,AWAITING REVIEW,2024-02-15T14:32:34.776000Z,2024-02-15T14:48:43.672000Z,,2024-02-15T14:48:44.945601Z,969.0,CVPIIDEI,23,39,Female,Black,United States,United States,United States,English,No,Full-Time,Not Applicable
65c12143b109e591c2192ade,<b>People are usually completely right or completely wrong.,Highly disagree,49/94,Highly agree,4,1708008101170,1708008106466,\Highly agree\,\Highly agree\,\4\,1708008105470,1708008105470,4300,4300,5296,buq,qns-item-noham,49,522340,0.0-1.0-0.48,65ce207a780605d135385558,AWAITING REVIEW,2024-02-15T14:32:34.776000Z,2024-02-15T14:48:43.672000Z,,2024-02-15T14:48:44.945601Z,969.0,CVPIIDEI,23,39,Female,Black,United States,United States,United States,English,No,Full-Time,Not Applicable
65c12143b109e591c2192ade,<b>I spend a lot of time considering alternatives to my beliefs.,Highly disagree,50/94,Highly disagree,1,1708008106469,1708008112110,\Highly disagree\,\Highly disagree\,\1\,1708008110535,1708008110926,4066,4457,5641,buq,qns-item-noham,50,527984,0.0-1.0-0.49,65ce207a780605d135385558,AWAITING REVIEW,2024-02-15T14:32:34.776000Z,2024-02-15T14:48:43.672000Z,,2024-02-15T14:48:44.945601Z,969.0,CVPIIDEI,23,39,Female,Black,United States,United States,United States,English,No,Full-Time,Not Applicable
65c12143b109e591c2192ade,"<b>Political enemies need to be defeated, not convinced.",Highly disagree,51/94,Somewhat disagree,2,1708008112113,1708008123770,\Highly disagree\,\Somewhat disagree\,\1\,1708008121299,1708008122776,9186,10663,11657,buq,qns-item-noham,51,539644,0.0-1.0-0.50,65ce207a780605d135385558,AWAITING REVIEW,2024-02-15T14:32:34.776000Z,2024-02-15T14:48:43.672000Z,,2024-02-15T14:48:44.945601Z,969.0,CVPIIDEI,23,39,Female,Black,United States,United States,United States,English,No,Full-Time,Not Applicable
65c12143b109e591c2192ade,<b>I form my political views only after meticulously gathering historical and present information about their policies.,Highly disagree,52/94,Highly disagree,1,1708008123774,1708008128614,\Highly disagree\,\Highly disagree\,\1\,1708008127686,1708008127686,3912,3912,4840,buq,qns-item-noham,52,544488,0.0-1.0-0.51,65ce207a780605d135385558,AWAITING REVIEW,2024-02-15T14:32:34.776000Z,2024-02-15T14:48:43.672000Z,,2024-02-15T14:48:44.945601Z,969.0,CVPIIDEI,23,39,Female,Black,United States,United States,United States,English,No,Full-Time,Not Applicable
65c12143b109e591c2192ade,<b>It is difficult for me to remember the last time I was surprised by politics.,Highly disagree,53/94,Highly disagree,1,1708008128616,1708008134363,\Highly disagree\,\Highly disagree\,\1\,1708008133255,1708008133255,4639,4639,5747,buq,qns-item-noham,53,550237,0.0-1.0-0.52,65ce207a780605d135385558,AWAITING REVIEW,2024-02-15T14:32:34.776000Z,2024-02-15T14:48:43.672000Z,,2024-02-15T14:48:44.945601Z,969.0,CVPIIDEI,23,39,Female,Black,United States,United States,United States,English,No,Full-Time,Not Applicable
65c12143b109e591c2192ade,"<b>When I find out I?m wrong, I think a lot about my related beliefs.",Highly disagree,54/94,Somewhat disagree,2,1708008134365,1708008143838,\Somewhat agree\,\Somewhat disagree\,\3\,1708008141828,1708008142791,7463,8426,9473,buq,qns-item-noham,54,559712,0.0-1.0-0.53,65ce207a780605d135385558,AWAITING REVIEW,2024-02-15T14:32:34.776000Z,2024-02-15T14:48:43.672000Z,,2024-02-15T14:48:44.945601Z,969.0,CVPIIDEI,23,39,Female,Black,United States,United States,United States,English,No,Full-Time,Not Applicable
65c12143b109e591c2192ade,"<b>If the political party I support messes up, it makes me think you can?t trust anyone these days",Highly disagree,55/94,Somewhat disagree,2,1708008143842,1708008153411,\Somewhat agree\,\Somewhat disagree\,\3\,1708008151328,1708008152198,7486,8356,9569,buq,qns-item-noham,55,569285,0.0-1.0-0.54,65ce207a780605d135385558,AWAITING REVIEW,2024-02-15T14:32:34.776000Z,2024-02-15T14:48:43.672000Z,,2024-02-15T14:48:44.945601Z,969.0,CVPIIDEI,23,39,Female,Black,United States,United States,United States,English,No,Full-Time,Not Applicable
65c12143b109e591c2192ade,<b>People?s brains turn off when they talk about politics.,Highly disagree,56/94,Highly disagree,1,1708008153414,1708008157948,\Highly disagree\,\Highly disagree\,\1\,1708008156803,1708008156803,3389,3389,4534,buq,qns-item-noham,56,573823,0.0-1.0-0.55,65ce207a780605d135385558,AWAITING REVIEW,2024-02-15T14:32:34.776000Z,2024-02-15T14:48:43.672000Z,,2024-02-15T14:48:44.945601Z,969.0,CVPIIDEI,23,39,Female,Black,United States,United States,United States,English,No,Full-Time,Not Applicable
65c12143b109e591c2192ade,<b>People who are wrong are usually just ignoring the obvious.,Highly disagree,57/94,Highly agree,4,1708008157952,1708008164657,\Highly agree\,\Highly agree\,\4\,1708008163625,1708008163625,5673,5673,6705,buq,qns-item-noham,57,580531,0.0-1.0-0.56,65ce207a780605d135385558,AWAITING REVIEW,2024-02-15T14:32:34.776000Z,2024-02-15T14:48:43.672000Z,,2024-02-15T14:48:44.945601Z,969.0,CVPIIDEI,23,39,Female,Black,United States,United States,United States,English,No,Full-Time,Not Applicable
65c12143b109e591c2192ade,"<b>When forming my views on people, I rely more on what they are like now rather than rely on my past experience with them.",Highly disagree,58/94,Highly disagree,1,1708008164659,1708008171981,\Highly disagree\,\Highly disagree\,\1\,1708008170814,1708008170814,6155,6155,7322,buq,qns-item-noham,58,587855,0.0-1.0-0.57,65ce207a780605d135385558,AWAITING REVIEW,2024-02-15T14:32:34.776000Z,2024-02-15T14:48:43.672000Z,,2024-02-15T14:48:44.945601Z,969.0,CVPIIDEI,23,39,Female,Black,United States,United States,United States,English,No,Full-Time,Not Applicable
65c12143b109e591c2192ade,"<b>When people contradict my beliefs, I usually know about their evidence already.",Highly disagree,59/94,Somewhat disagree,2,1708008171985,1708008180148,\Somewhat disagree\,\Somewhat disagree\,\2\,1708008178791,1708008178791,6806,6806,8163,buq,qns-item-noham,59,596022,0.0-1.0-0.58,65ce207a780605d135385558,AWAITING REVIEW,2024-02-15T14:32:34.776000Z,2024-02-15T14:48:43.672000Z,,2024-02-15T14:48:44.945601Z,969.0,CVPIIDEI,23,39,Female,Black,United States,United States,United States,English,No,Full-Time,Not Applicable
65c12143b109e591c2192ade,<b>Figuring out what?s true and what?s false mainly requires a strong moral compass.,Highly disagree,60/94,Somewhat agree,3,1708008180152,1708008188584,\Somewhat agree\,\Somewhat agree\,\3\,1708008187551,1708008187551,7399,7399,8432,buq,qns-item-noham,60,604458,0.0-1.0-0.59,65ce207a780605d135385558,AWAITING REVIEW,2024-02-15T14:32:34.776000Z,2024-02-15T14:48:43.672000Z,,2024-02-15T14:48:44.945601Z,969.0,CVPIIDEI,23,39,Female,Black,United States,United States,United States,English,No,Full-Time,Not Applicable
65c12143b109e591c2192ade,"<b>Usually I?m wrong about simple things, not complicated ones.",Highly disagree,61/94,Highly disagree,1,1708008188586,1708008194262,\Highly disagree\,\Highly disagree\,\1\,1708008192937,1708008192937,4351,4351,5676,buq,qns-item-noham,61,610136,0.0-1.0-0.60,65ce207a780605d135385558,AWAITING REVIEW,2024-02-15T14:32:34.776000Z,2024-02-15T14:48:43.672000Z,,2024-02-15T14:48:44.945601Z,969.0,CVPIIDEI,23,39,Female,Black,United States,United States,United States,English,No,Full-Time,Not Applicable
65c12143b109e591c2192ade,<b>Getting all the information I want about important things is hard.,Highly disagree,62/94,Highly disagree,1,1708008194264,1708008199589,\Highly disagree\,\Highly disagree\,\1\,1708008199010,1708008199010,4746,4746,5325,buq,qns-item-noham,62,615463,0.0-1.0-0.61,65ce207a780605d135385558,AWAITING REVIEW,2024-02-15T14:32:34.776000Z,2024-02-15T14:48:43.672000Z,,2024-02-15T14:48:44.945601Z,969.0,CVPIIDEI,23,39,Female,Black,United States,United States,United States,English,No,Full-Time,Not Applicable
65c12143b109e591c2192ade,<b>Most false beliefs spread because people try to deceive one another.,Highly disagree,63/94,Highly agree,4,1708008199591,1708008203693,\Highly agree\,\Highly agree\,\4\,1708008203278,1708008203278,3687,3687,4102,buq,qns-item-noham,63,619567,0.0-1.0-0.62,65ce207a780605d135385558,AWAITING REVIEW,2024-02-15T14:32:34.776000Z,2024-02-15T14:48:43.672000Z,,2024-02-15T14:48:44.945601Z,969.0,CVPIIDEI,23,39,Female,Black,United States,United States,United States,English,No,Full-Time,Not Applicable
65c12143b109e591c2192ade,<b>I can usually find something to agree with in most people?s beliefs.,Highly disagree,64/94,Highly disagree,1,1708008203696,1708008208053,\Highly disagree\,\Highly disagree\,\1\,1708008207592,1708008207592,3896,3896,4357,buq,qns-item-noham,64,623927,0.0-1.0-0.63,65ce207a780605d135385558,AWAITING REVIEW,2024-02-15T14:32:34.776000Z,2024-02-15T14:48:43.672000Z,,2024-02-15T14:48:44.945601Z,969.0,CVPIIDEI,23,39,Female,Black,United States,United States,United States,English,No,Full-Time,Not Applicable
65c12143b109e591c2192ade,<b>I only form my views of people once I get to know them very well.,Highly disagree,65/94,Highly disagree,1,1708008208054,1708008214674,\Highly disagree\,\Highly disagree\,\1\,1708008214240,1708008214240,6186,6186,6620,buq,qns-item-noham,65,630548,0.0-1.0-0.64,65ce207a780605d135385558,AWAITING REVIEW,2024-02-15T14:32:34.776000Z,2024-02-15T14:48:43.672000Z,,2024-02-15T14:48:44.945601Z,969.0,CVPIIDEI,23,39,Female,Black,United States,United States,United States,English,No,Full-Time,Not Applicable
65c12143b109e591c2192ade,"<b>When people tell me important things about the world, I usually believe them.",Highly disagree,66/94,Somewhat disagree,2,1708008214676,1708008220512,\Somewhat disagree\,\Somewhat disagree\,\2\,1708008220119,1708008220119,5443,5443,5836,buq,qns-item-noham,66,636386,0.0-1.0-0.65,65ce207a780605d135385558,AWAITING REVIEW,2024-02-15T14:32:34.776000Z,2024-02-15T14:48:43.672000Z,,2024-02-15T14:48:44.945601Z,969.0,CVPIIDEI,23,39,Female,Black,United States,United States,United States,English,No,Full-Time,Not Applicable
65c12143b109e591c2192ade,"<b>If a friend does something that upsets me, it reminds me what an unpredictable place the world is.",Highly disagree,67/94,Highly disagree,1,1708008220514,1708008225601,\Highly disagree\,\Highly disagree\,\1\,1708008225128,1708008225128,4614,4614,5087,buq,qns-item-noham,67,641475,0.0-1.0-0.66,65ce207a780605d135385558,AWAITING REVIEW,2024-02-15T14:32:34.776000Z,2024-02-15T14:48:43.672000Z,,2024-02-15T14:48:44.945601Z,969.0,CVPIIDEI,23,39,Female,Black,United States,United States,United States,English,No,Full-Time,Not Applicable
65c12143b109e591c2192ade,<b>People tend to believe whatever is good for their friends.,Highly disagree,68/94,Somewhat agree,3,1708008225603,1708008231875,\Somewhat agree\,\Somewhat agree\,\3\,1708008231480,1708008231480,5877,5877,6272,buq,qns-item-noham,68,647749,0.0-1.0-0.67,65ce207a780605d135385558,AWAITING REVIEW,2024-02-15T14:32:34.776000Z,2024-02-15T14:48:43.672000Z,,2024-02-15T14:48:44.945601Z,969.0,CVPIIDEI,23,39,Female,Black,United States,United States,United States,English,No,Full-Time,Not Applicable
65c12143b109e591c2192ade,<b>I used to be more certain my beliefs were true.,Highly disagree,69/94,Somewhat agree,3,1708008231877,1708008239098,\Somewhat agree\,\Somewhat agree\,\3\,1708008238292,1708008238292,6415,6415,7221,buq,qns-item-noham,69,654972,0.0-1.0-0.68,65ce207a780605d135385558,AWAITING REVIEW,2024-02-15T14:32:34.776000Z,2024-02-15T14:48:43.672000Z,,2024-02-15T14:48:44.945601Z,969.0,CVPIIDEI,23,39,Female,Black,United States,United States,United States,English,No,Full-Time,Not Applicable
65c12143b109e591c2192ade,<b>It?s often pretty easy to figure out whether something is true based on who said it.,Highly disagree,70/94,Highly agree,4,1708008239100,1708008248852,\Highly agree\,\Highly agree\,\4\,1708008248387,1708008248387,9287,9287,9752,buq,qns-item-noham,70,664726,0.0-1.0-0.69,65ce207a780605d135385558,AWAITING REVIEW,2024-02-15T14:32:34.776000Z,2024-02-15T14:48:43.672000Z,,2024-02-15T14:48:44.945601Z,969.0,CVPIIDEI,23,39,Female,Black,United States,United States,United States,English,No,Full-Time,Not Applicable
65c12143b109e591c2192ade,<b>I transform into a hummingbird every day.,Highly disagree,71/94,Highly disagree,1,1708008248854,1708008252585,\Highly disagree\,\Highly disagree\,\1\,1708008251424,1708008251424,2570,2570,3731,buq,qns-item-noham,71,668459,0.0-1.0-0.70,65ce207a780605d135385558,AWAITING REVIEW,2024-02-15T14:32:34.776000Z,2024-02-15T14:48:43.672000Z,,2024-02-15T14:48:44.945601Z,969.0,CVPIIDEI,23,39,Female,Black,United States,United States,United States,English,No,Full-Time,Not Applicable
65c12143b109e591c2192ade,<b>I think a lot about arguments against my views.,Highly disagree,72/94,Highly disagree,1,1708008252588,1708008257092,\Highly disagree\,\Highly disagree\,\1\,1708008256501,1708008256501,3913,3913,4504,buq,qns-item-noham,72,672966,0.0-1.0-0.71,65ce207a780605d135385558,AWAITING REVIEW,2024-02-15T14:32:34.776000Z,2024-02-15T14:48:43.672000Z,,2024-02-15T14:48:44.945601Z,969.0,CVPIIDEI,23,39,Female,Black,United States,United States,United States,English,No,Full-Time,Not Applicable
65c12143b109e591c2192ade,<b>Personal experience is usually more important than facts and figures.,Highly disagree,73/94,Highly disagree,1,1708008257095,1708008268143,\Highly disagree\,\Highly disagree\,\1\,1708008267494,1708008267494,10399,10399,11048,buq,qns-item-noham,73,684017,0.0-1.0-0.72,65ce207a780605d135385558,AWAITING REVIEW,2024-02-15T14:32:34.776000Z,2024-02-15T14:48:43.672000Z,,2024-02-15T14:48:44.945601Z,969.0,CVPIIDEI,23,39,Female,Black,United States,United States,United States,English,No,Full-Time,Not Applicable
65c12143b109e591c2192ade,<b>I?ve been tricked before about important matters.,Highly disagree,74/94,Highly disagree,1,1708008268146,1708008271694,\Highly disagree\,\Highly disagree\,\1\,1708008271048,1708008271048,2902,2902,3548,buq,qns-item-noham,74,687568,0.0-1.0-0.73,65ce207a780605d135385558,AWAITING REVIEW,2024-02-15T14:32:34.776000Z,2024-02-15T14:48:43.672000Z,,2024-02-15T14:48:44.945601Z,969.0,CVPIIDEI,23,39,Female,Black,United States,United States,United States,English,No,Full-Time,Not Applicable
65c12143b109e591c2192ade,<b>I would need to be totally wowed if I were to change my opinion of a restaurant I don?t like.,Highly disagree,75/94,Highly agree,4,1708008271697,1708008281460,\Highly agree\,\Highly agree\,\4\,1708008280973,1708008280973,9276,9276,9763,buq,qns-item-noham,75,697334,0.0-1.0-0.74,65ce207a780605d135385558,AWAITING REVIEW,2024-02-15T14:32:34.776000Z,2024-02-15T14:48:43.672000Z,,2024-02-15T14:48:44.945601Z,969.0,CVPIIDEI,23,39,Female,Black,United States,United States,United States,English,No,Full-Time,Not Applicable
65c12143b109e591c2192ade,<b>I care a lot about politics.,Highly disagree,76/94,Highly disagree,1,1708008281463,1708008283875,\Highly disagree\,\Highly disagree\,\1\,1708008283233,1708008283233,1770,1770,2412,buq,qns-item-noham,76,699749,0.0-1.0-0.75,65ce207a780605d135385558,AWAITING REVIEW,2024-02-15T14:32:34.776000Z,2024-02-15T14:48:43.672000Z,,2024-02-15T14:48:44.945601Z,969.0,CVPIIDEI,23,39,Female,Black,United States,United States,United States,English,No,Full-Time,Not Applicable
65c12143b109e591c2192ade,<b>There are some topics I?ve been really wrong about.,Highly disagree,77/94,Somewhat disagree,2,1708008283879,1708008289055,\Somewhat disagree\,\Somewhat disagree\,\2\,1708008288484,1708008288484,4605,4605,5176,buq,qns-item-noham,77,704929,0.0-1.0-0.76,65ce207a780605d135385558,AWAITING REVIEW,2024-02-15T14:32:34.776000Z,2024-02-15T14:48:43.672000Z,,2024-02-15T14:48:44.945601Z,969.0,CVPIIDEI,23,39,Female,Black,United States,United States,United States,English,No,Full-Time,Not Applicable
65c12143b109e591c2192ade,<b>Most beliefs can be supported with at least some evidence.,Highly disagree,78/94,Highly disagree,1,1708008289057,1708008292910,\Highly disagree\,\Highly disagree\,\1\,1708008292406,1708008292406,3349,3349,3853,buq,qns-item-noham,78,708784,0.0-1.0-0.77,65ce207a780605d135385558,AWAITING REVIEW,2024-02-15T14:32:34.776000Z,2024-02-15T14:48:43.672000Z,,2024-02-15T14:48:44.945601Z,969.0,CVPIIDEI,23,39,Female,Black,United States,United States,United States,English,No,Full-Time,Not Applicable
65c12143b109e591c2192ade,<b>Other people make life out to be more complicated than it really is.,Highly disagree,79/94,Highly agree,4,1708008292913,1708008296770,\Highly agree\,\Highly agree\,\4\,1708008296374,1708008296374,3461,3461,3857,buq,qns-item-noham,79,712644,0.0-1.0-0.78,65ce207a780605d135385558,AWAITING REVIEW,2024-02-15T14:32:34.776000Z,2024-02-15T14:48:43.672000Z,,2024-02-15T14:48:44.945601Z,969.0,CVPIIDEI,23,39,Female,Black,United States,United States,United States,English,No,Full-Time,Not Applicable
65c12143b109e591c2192ade,"<b>Policy details don?t matter much, just the big picture.",Highly disagree,80/94,Highly disagree,1,1708008296771,1708008300951,\Highly disagree\,\Highly disagree\,\1\,1708008300469,1708008300469,3698,3698,4180,buq,qns-item-noham,80,716825,0.0-1.0-0.79,65ce207a780605d135385558,AWAITING REVIEW,2024-02-15T14:32:34.776000Z,2024-02-15T14:48:43.672000Z,,2024-02-15T14:48:44.945601Z,969.0,CVPIIDEI,23,39,Female,Black,United States,United States,United States,English,No,Full-Time,Not Applicable
65c12143b109e591c2192ade,<b>I know my friends so well they can hardly ever surprise me.,Highly disagree,81/94,Highly disagree,1,1708008300953,1708008304733,\Highly disagree\,\Highly disagree\,\1\,1708008304207,1708008304207,3254,3254,3780,buq,qns-item-noham,81,720607,0.0-1.0-0.80,65ce207a780605d135385558,AWAITING REVIEW,2024-02-15T14:32:34.776000Z,2024-02-15T14:48:43.672000Z,,2024-02-15T14:48:44.945601Z,969.0,CVPIIDEI,23,39,Female,Black,United States,United States,United States,English,No,Full-Time,Not Applicable
65c12143b109e591c2192ade,<b>I do not often change my views on people.,Highly disagree,82/94,Highly agree,4,1708008304735,1708008310678,\Highly agree\,\Highly agree\,\4\,1708008310301,1708008310301,5566,5566,5943,buq,qns-item-noham,82,726552,0.0-1.0-0.81,65ce207a780605d135385558,AWAITING REVIEW,2024-02-15T14:32:34.776000Z,2024-02-15T14:48:43.672000Z,,2024-02-15T14:48:44.945601Z,969.0,CVPIIDEI,23,39,Female,Black,United States,United States,United States,English,No,Full-Time,Not Applicable
65c12143b109e591c2192ade,<b>I?m more certain about my beliefs than I used to be.,Highly disagree,83/94,Highly agree,4,1708008310680,1708008313642,\Highly agree\,\Highly agree\,\4\,1708008313260,1708008313260,2580,2580,2962,buq,qns-item-noham,83,729516,0.0-1.0-0.82,65ce207a780605d135385558,AWAITING REVIEW,2024-02-15T14:32:34.776000Z,2024-02-15T14:48:43.672000Z,,2024-02-15T14:48:44.945601Z,969.0,CVPIIDEI,23,39,Female,Black,United States,United States,United States,English,No,Full-Time,Not Applicable
65c12143b109e591c2192ade,<b>People often tell falsehoods unintentionally.,Highly disagree,84/94,Highly agree,4,1708008313643,1708008317218,\Highly agree\,\Highly agree\,\4\,1708008316773,1708008316773,3130,3130,3575,buq,qns-item-noham,84,733092,0.0-1.0-0.83,65ce207a780605d135385558,AWAITING REVIEW,2024-02-15T14:32:34.776000Z,2024-02-15T14:48:43.672000Z,,2024-02-15T14:48:44.945601Z,969.0,CVPIIDEI,23,39,Female,Black,United States,United States,United States,English,No,Full-Time,Not Applicable
65c12143b109e591c2192ade,<b>Most people don?t know much about most things.,Highly disagree,85/94,Highly agree,4,1708008317222,1708008322822,\Highly agree\,\Highly agree\,\4\,1708008322408,1708008322408,5186,5186,5600,buq,qns-item-noham,85,738696,0.0-1.0-0.84,65ce207a780605d135385558,AWAITING REVIEW,2024-02-15T14:32:34.776000Z,2024-02-15T14:48:43.672000Z,,2024-02-15T14:48:44.945601Z,969.0,CVPIIDEI,23,39,Female,Black,United States,United States,United States,English,No,Full-Time,Not Applicable
65c12143b109e591c2192ade,"<b>If I find out something new about someone, I easily change my views about them.",Highly disagree,86/94,Somewhat agree,3,1708008322823,1708008329564,\Somewhat agree\,\Somewhat agree\,\3\,1708008328960,1708008328960,6137,6137,6741,buq,qns-item-noham,86,745438,0.0-1.0-0.85,65ce207a780605d135385558,AWAITING REVIEW,2024-02-15T14:32:34.776000Z,2024-02-15T14:48:43.672000Z,,2024-02-15T14:48:44.945601Z,969.0,CVPIIDEI,23,39,Female,Black,United States,United States,United States,English,No,Full-Time,Not Applicable
65c12143b109e591c2192ade,<b>Having true beliefs is difficult.,Highly disagree,87/94,Highly disagree,1,1708008329566,1708008332935,\Highly disagree\,\Highly disagree\,\1\,1708008331970,1708008331970,2404,2404,3369,buq,qns-item-noham,87,748809,0.0-1.0-0.86,65ce207a780605d135385558,AWAITING REVIEW,2024-02-15T14:32:34.776000Z,2024-02-15T14:48:43.672000Z,,2024-02-15T14:48:44.945601Z,969.0,CVPIIDEI,23,39,Female,Black,United States,United States,United States,English,No,Full-Time,Not Applicable
65c12143b109e591c2192ade,<b>I don?t try new foods since I know I won?t like them.,Highly disagree,88/94,Highly disagree,1,1708008332938,1708008338977,\Highly disagree\,\Highly disagree\,\1\,1708008338194,1708008338194,5256,5256,6039,buq,qns-item-noham,88,754851,0.0-1.0-0.87,65ce207a780605d135385558,AWAITING REVIEW,2024-02-15T14:32:34.776000Z,2024-02-15T14:48:43.672000Z,,2024-02-15T14:48:44.945601Z,969.0,CVPIIDEI,23,39,Female,Black,United States,United States,United States,English,No,Full-Time,Not Applicable
65c12143b109e591c2192ade,<b>Other people trick each other a lot.,Highly disagree,89/94,Highly agree,4,1708008338978,1708008343120,\Highly agree\,\Highly agree\,\4\,1708008342612,1708008342612,3634,3634,4142,buq,qns-item-noham,89,758994,0.0-1.0-0.88,65ce207a780605d135385558,AWAITING REVIEW,2024-02-15T14:32:34.776000Z,2024-02-15T14:48:43.672000Z,,2024-02-15T14:48:44.945601Z,969.0,CVPIIDEI,23,39,Female,Black,United States,United States,United States,English,No,Full-Time,Not Applicable
65c12143b109e591c2192ade,<b>I would need to learn a lot about a person for my opinion of them to be swayed.,Highly disagree,90/94,Highly disagree,1,1708008343122,1708008350482,\Highly disagree\,\Highly disagree\,\1\,1708008349905,1708008349905,6783,6783,7360,buq,qns-item-noham,90,766356,0.0-1.0-0.89,65ce207a780605d135385558,AWAITING REVIEW,2024-02-15T14:32:34.776000Z,2024-02-15T14:48:43.672000Z,,2024-02-15T14:48:44.945601Z,969.0,CVPIIDEI,23,39,Female,Black,United States,United States,United States,English,No,Full-Time,Not Applicable
65c12143b109e591c2192ade,<b>People can?t usually trick me when it comes to topics I care about.,Highly disagree,91/94,Highly agree,4,1708008350485,1708008358277,\Highly agree\,\Highly agree\,\4\,1708008355997,1708008355997,5512,5512,7792,buq,qns-item-noham,91,774151,0.0-1.0-0.90,65ce207a780605d135385558,AWAITING REVIEW,2024-02-15T14:32:34.776000Z,2024-02-15T14:48:43.672000Z,,2024-02-15T14:48:44.945601Z,969.0,CVPIIDEI,23,39,Female,Black,United States,United States,United States,English,No,Full-Time,Not Applicable
65c12143b109e591c2192ade,<b>I do not often change my views on food.,Highly disagree,92/94,Highly disagree,1,1708008358278,1708008363293,\Highly disagree\,\Highly disagree\,\1\,1708008362165,1708008362165,3887,3887,5015,buq,qns-item-noham,92,779167,0.0-1.0-0.91,65ce207a780605d135385558,AWAITING REVIEW,2024-02-15T14:32:34.776000Z,2024-02-15T14:48:43.672000Z,,2024-02-15T14:48:44.945601Z,969.0,CVPIIDEI,23,39,Female,Black,United States,United States,United States,English,No,Full-Time,Not Applicable
65c12143b109e591c2192ade,<b>Specific policies are often very important to me.,Highly disagree,93/94,Highly agree,4,1708008363295,1708008366297,\Highly agree\,\Highly agree\,\4\,1708008365892,1708008365892,2597,2597,3002,buq,qns-item-noham,93,782171,0.0-1.0-0.92,65ce207a780605d135385558,AWAITING REVIEW,2024-02-15T14:32:34.776000Z,2024-02-15T14:48:43.672000Z,,2024-02-15T14:48:44.945601Z,969.0,CVPIIDEI,23,39,Female,Black,United States,United States,United States,English,No,Full-Time,Not Applicable
65c12143b109e591c2192ade,<b>Most people are woefully under-informed.,Highly disagree,94/94,Highly agree,4,1708008366299,1708008370894,\Highly agree\,\Highly agree\,\4\,1708008369420,1708008369420,3121,3121,4595,buq,qns-item-noham,94,786768,0.0-1.0-0.93,65ce207a780605d135385558,AWAITING REVIEW,2024-02-15T14:32:34.776000Z,2024-02-15T14:48:43.672000Z,,2024-02-15T14:48:44.945601Z,969.0,CVPIIDEI,23,39,Female,Black,United States,United States,United States,English,No,Full-Time,Not Applicable
65c12143b109e591c2192ade,,,,,,,,,,,,,,,,,,,,,65ce207a780605d135385558,AWAITING REVIEW,2024-02-15T14:32:34.776000Z,2024-02-15T14:48:43.672000Z,,2024-02-15T14:48:44.945601Z,969.0,CVPIIDEI,23,39,Female,Black,United States,United States,United States,English,No,Full-Time,Not Applicable
