PROLIFIC_PID,Question,qns_options,quest_num,answer,answer_num,question_load_timestamp,next_btn_timestamp,text_selected,final_text_selected,option_num_selected,preview_timestamps,final_text_selected_time_stamp,rt_first_option_click,rt_final_option_click,rt_submit_click,questionnaire,trial_type,trial_index,time_elapsed,internal_node_id,Demographic_Submission id,Demographic_Status,Demographic_Started at,Demographic_Completed at,Demographic_Reviewed at,Demographic_Archived at,Demographic_Time taken,Demographic_Completion code,Demographic_Total approvals,Demographic_Age,Demographic_Sex,Demographic_Ethnicity simplified,Demographic_Country of birth,Demographic_Country of residence,Demographic_Nationality,Demographic_Language,Demographic_Student status,Demographic_Employment status,Demographic_Custom study tncs accepted at
65c10decdf7bb73782345cb3,<b>Knowing what?s true and knowing what to do about it are usually basically the same.,Highly disagree,1/94,Highly disagree,1,1708007556542,1708007575654,\Highly disagree\,\Highly disagree\,\1\,1708007574414,1708007574414,17872,17872,19112,buq,qns-item-noham,1,25329,0.0-1.0-0.0,65ce206c508301bba9318c70,AWAITING REVIEW,2024-02-15T14:32:16.274000Z,2024-02-15T14:48:57.802000Z,,2024-02-15T14:48:58.430881Z,1002.0,CVPIIDEI,48,33,Female,Black,United States,United States,United States,English,No,Full-Time,Not Applicable
65c10decdf7bb73782345cb3,<b>Most people just believe whatever is convenient for them.,Highly disagree,2/94,Somewhat disagree,2,1708007575656,1708007584564,\Somewhat disagree\,\Somewhat disagree\,\2\,1708007583736,1708007583736,8080,8080,8908,buq,qns-item-noham,2,34239,0.0-1.0-0.1,65ce206c508301bba9318c70,AWAITING REVIEW,2024-02-15T14:32:16.274000Z,2024-02-15T14:48:57.802000Z,,2024-02-15T14:48:58.430881Z,1002.0,CVPIIDEI,48,33,Female,Black,United States,United States,United States,English,No,Full-Time,Not Applicable
65c10decdf7bb73782345cb3,<b>Having some big beliefs helps me sort out minor ones.,Highly disagree,3/94,Highly agree,4,1708007584570,1708007594554,\Highly agree\,\Highly agree\,\4\,1708007592954,1708007592954,8384,8384,9984,buq,qns-item-noham,3,44229,0.0-1.0-0.2,65ce206c508301bba9318c70,AWAITING REVIEW,2024-02-15T14:32:16.274000Z,2024-02-15T14:48:57.802000Z,,2024-02-15T14:48:58.430881Z,1002.0,CVPIIDEI,48,33,Female,Black,United States,United States,United States,English,No,Full-Time,Not Applicable
65c10decdf7bb73782345cb3,<b>Political questions are usually pretty complicated.,Highly disagree,4/94,Somewhat disagree,2,1708007594556,1708007600063,\Somewhat disagree\,\Somewhat disagree\,\2\,1708007599222,1708007599222,4666,4666,5507,buq,qns-item-noham,4,49738,0.0-1.0-0.3,65ce206c508301bba9318c70,AWAITING REVIEW,2024-02-15T14:32:16.274000Z,2024-02-15T14:48:57.802000Z,,2024-02-15T14:48:58.430881Z,1002.0,CVPIIDEI,48,33,Female,Black,United States,United States,United States,English,No,Full-Time,Not Applicable
65c10decdf7bb73782345cb3,<b>Figuring out what?s important in life requires learning a lot of facts.,Highly disagree,5/94,Somewhat agree,3,1708007600064,1708007605866,\Somewhat agree\,\Somewhat agree\,\3\,1708007605117,1708007605117,5053,5053,5802,buq,qns-item-noham,5,55541,0.0-1.0-0.4,65ce206c508301bba9318c70,AWAITING REVIEW,2024-02-15T14:32:16.274000Z,2024-02-15T14:48:57.802000Z,,2024-02-15T14:48:58.430881Z,1002.0,CVPIIDEI,48,33,Female,Black,United States,United States,United States,English,No,Full-Time,Not Applicable
65c10decdf7bb73782345cb3,<b>It is difficult for me to remember the last time I was surprised by politics.,Highly disagree,6/94,Highly agree,4,1708007605868,1708007612628,\Highly agree\,\Highly agree\,\4\,1708007612120,1708007612120,6252,6252,6760,buq,qns-item-noham,6,62303,0.0-1.0-0.5,65ce206c508301bba9318c70,AWAITING REVIEW,2024-02-15T14:32:16.274000Z,2024-02-15T14:48:57.802000Z,,2024-02-15T14:48:58.430881Z,1002.0,CVPIIDEI,48,33,Female,Black,United States,United States,United States,English,No,Full-Time,Not Applicable
65c10decdf7bb73782345cb3,<b>People?s false beliefs are understandable.,Highly disagree,7/94,Somewhat agree,3,1708007612631,1708007623245,\Somewhat agree\,\Somewhat agree\,\3\,1708007622378,1708007622378,9747,9747,10614,buq,qns-item-noham,7,72920,0.0-1.0-0.6,65ce206c508301bba9318c70,AWAITING REVIEW,2024-02-15T14:32:16.274000Z,2024-02-15T14:48:57.802000Z,,2024-02-15T14:48:58.430881Z,1002.0,CVPIIDEI,48,33,Female,Black,United States,United States,United States,English,No,Full-Time,Not Applicable
65c10decdf7bb73782345cb3,<b>I spend a lot of time trying to be informed about politics.,Highly disagree,8/94,Highly agree,4,1708007623247,1708007626406,\Highly agree\,\Highly agree\,\4\,1708007625845,1708007625845,2598,2598,3159,buq,qns-item-noham,8,76082,0.0-1.0-0.7,65ce206c508301bba9318c70,AWAITING REVIEW,2024-02-15T14:32:16.274000Z,2024-02-15T14:48:57.802000Z,,2024-02-15T14:48:58.430881Z,1002.0,CVPIIDEI,48,33,Female,Black,United States,United States,United States,English,No,Full-Time,Not Applicable
65c10decdf7bb73782345cb3,<b>I think a lot about whether my beliefs are right.,Highly disagree,9/94,Highly agree,4,1708007626409,1708007629727,\Highly agree\,\Highly agree\,\4\,1708007628967,1708007628967,2558,2558,3318,buq,qns-item-noham,9,79402,0.0-1.0-0.8,65ce206c508301bba9318c70,AWAITING REVIEW,2024-02-15T14:32:16.274000Z,2024-02-15T14:48:57.802000Z,,2024-02-15T14:48:58.430881Z,1002.0,CVPIIDEI,48,33,Female,Black,United States,United States,United States,English,No,Full-Time,Not Applicable
65c10decdf7bb73782345cb3,<b>Statistics can be pretty misleading sometimes.,Highly disagree,10/94,Somewhat agree,3,1708007629729,1708007633835,\Somewhat agree\,\Somewhat agree\,\3\,1708007632541,1708007632541,2812,2812,4106,buq,qns-item-noham,10,83510,0.0-1.0-0.9,65ce206c508301bba9318c70,AWAITING REVIEW,2024-02-15T14:32:16.274000Z,2024-02-15T14:48:57.802000Z,,2024-02-15T14:48:58.430881Z,1002.0,CVPIIDEI,48,33,Female,Black,United States,United States,United States,English,No,Full-Time,Not Applicable
65c10decdf7bb73782345cb3,<b>I have lots of beliefs that I?m only sort of sure about.,Highly disagree,11/94,Somewhat agree,3,1708007633837,1708007641025,\Somewhat agree\,\Somewhat agree\,\3\,1708007640224,1708007640224,6387,6387,7188,buq,qns-item-noham,11,90700,0.0-1.0-0.10,65ce206c508301bba9318c70,AWAITING REVIEW,2024-02-15T14:32:16.274000Z,2024-02-15T14:48:57.802000Z,,2024-02-15T14:48:58.430881Z,1002.0,CVPIIDEI,48,33,Female,Black,United States,United States,United States,English,No,Full-Time,Not Applicable
65c10decdf7bb73782345cb3,"<b>If I go to my favorite restaurant and the food is surprisingly bad, it reminds me there are many disappointments in life.",Highly disagree,12/94,Somewhat disagree,2,1708007641027,1708007650734,\Somewhat disagree\,\Somewhat disagree\,\2\,1708007649893,1708007649893,8866,8866,9707,buq,qns-item-noham,12,100409,0.0-1.0-0.11,65ce206c508301bba9318c70,AWAITING REVIEW,2024-02-15T14:32:16.274000Z,2024-02-15T14:48:57.802000Z,,2024-02-15T14:48:58.430881Z,1002.0,CVPIIDEI,48,33,Female,Black,United States,United States,United States,English,No,Full-Time,Not Applicable
65c10decdf7bb73782345cb3,"<b>If you are paying attention, please select ?Somewhat agree?",Highly disagree,13/94,Somewhat agree,3,1708007650736,1708007653630,\Somewhat agree\,\Somewhat agree\,\3\,1708007652881,1708007652881,2145,2145,2894,buq,qns-item-noham,13,103305,0.0-1.0-0.12,65ce206c508301bba9318c70,AWAITING REVIEW,2024-02-15T14:32:16.274000Z,2024-02-15T14:48:57.802000Z,,2024-02-15T14:48:58.430881Z,1002.0,CVPIIDEI,48,33,Female,Black,United States,United States,United States,English,No,Full-Time,Not Applicable
65c10decdf7bb73782345cb3,"<b>When I talk to others, I often worry I?ll convince them of something I didn?t mean to.",Highly disagree,14/94,Highly agree,4,1708007653632,1708007658244,\Highly agree\,\Highly agree\,\4\,1708007657444,1708007657444,3812,3812,4612,buq,qns-item-noham,14,107919,0.0-1.0-0.13,65ce206c508301bba9318c70,AWAITING REVIEW,2024-02-15T14:32:16.274000Z,2024-02-15T14:48:57.802000Z,,2024-02-15T14:48:58.430881Z,1002.0,CVPIIDEI,48,33,Female,Black,United States,United States,United States,English,No,Full-Time,Not Applicable
65c10decdf7bb73782345cb3,<b>I would need to learn something utterly shocking about my party in order to change my political views.,Highly disagree,15/94,Somewhat agree,3,1708007658246,1708007666407,\Somewhat agree\,\Somewhat agree\,\3\,1708007665567,1708007665567,7321,7321,8161,buq,qns-item-noham,15,116082,0.0-1.0-0.14,65ce206c508301bba9318c70,AWAITING REVIEW,2024-02-15T14:32:16.274000Z,2024-02-15T14:48:57.802000Z,,2024-02-15T14:48:58.430881Z,1002.0,CVPIIDEI,48,33,Female,Black,United States,United States,United States,English,No,Full-Time,Not Applicable
65c10decdf7bb73782345cb3,"<b>When I have new experiences, I tend to think of them as unique.",Highly disagree,16/94,Highly agree,4,1708007666410,1708007670623,\Highly agree\,\Highly agree\,\4\,1708007669928,1708007669928,3518,3518,4213,buq,qns-item-noham,16,120298,0.0-1.0-0.15,65ce206c508301bba9318c70,AWAITING REVIEW,2024-02-15T14:32:16.274000Z,2024-02-15T14:48:57.802000Z,,2024-02-15T14:48:58.430881Z,1002.0,CVPIIDEI,48,33,Female,Black,United States,United States,United States,English,No,Full-Time,Not Applicable
65c10decdf7bb73782345cb3,<b>I change my mind about specific policies pretty frequently.,Highly disagree,17/94,Somewhat disagree,2,1708007670625,1708007674864,\Somewhat disagree\,\Somewhat disagree\,\2\,1708007674103,1708007674103,3478,3478,4239,buq,qns-item-noham,17,124539,0.0-1.0-0.16,65ce206c508301bba9318c70,AWAITING REVIEW,2024-02-15T14:32:16.274000Z,2024-02-15T14:48:57.802000Z,,2024-02-15T14:48:58.430881Z,1002.0,CVPIIDEI,48,33,Female,Black,United States,United States,United States,English,No,Full-Time,Not Applicable
65c10decdf7bb73782345cb3,"<b>If a politician in my political party supports something I disagree with, I give them the benefit of the doubt, as such issues often involve hidden complexities that aren?t obvious.   ",Highly disagree,18/94,Somewhat disagree,2,1708007674866,1708007683574,\Somewhat disagree\,\Somewhat disagree\,\2\,1708007682626,1708007682626,7760,7760,8708,buq,qns-item-noham,18,133249,0.0-1.0-0.17,65ce206c508301bba9318c70,AWAITING REVIEW,2024-02-15T14:32:16.274000Z,2024-02-15T14:48:57.802000Z,,2024-02-15T14:48:58.430881Z,1002.0,CVPIIDEI,48,33,Female,Black,United States,United States,United States,English,No,Full-Time,Not Applicable
65c10decdf7bb73782345cb3,<b>People?s bad politics are usually motivated by hatefulness.,Highly disagree,19/94,Somewhat agree,3,1708007683576,1708007690842,\Somewhat agree\,\Somewhat agree\,\3\,1708007689989,1708007689989,6413,6413,7266,buq,qns-item-noham,19,140518,0.0-1.0-0.18,65ce206c508301bba9318c70,AWAITING REVIEW,2024-02-15T14:32:16.274000Z,2024-02-15T14:48:57.802000Z,,2024-02-15T14:48:58.430881Z,1002.0,CVPIIDEI,48,33,Female,Black,United States,United States,United States,English,No,Full-Time,Not Applicable
65c10decdf7bb73782345cb3,<b>I think a lot about how to reconcile my beliefs with one another.,Highly disagree,20/94,Highly agree,4,1708007690844,1708007695057,\Highly agree\,\Highly agree\,\4\,1708007694297,1708007694297,3453,3453,4213,buq,qns-item-noham,20,144732,0.0-1.0-0.19,65ce206c508301bba9318c70,AWAITING REVIEW,2024-02-15T14:32:16.274000Z,2024-02-15T14:48:57.802000Z,,2024-02-15T14:48:58.430881Z,1002.0,CVPIIDEI,48,33,Female,Black,United States,United States,United States,English,No,Full-Time,Not Applicable
65c10decdf7bb73782345cb3,<b>I might have false beliefs about important topics.,Highly disagree,21/94,Somewhat agree,3,1708007695059,1708007699912,\Somewhat agree\,\Somewhat agree\,\3\,1708007699138,1708007699138,4079,4079,4853,buq,qns-item-noham,21,149587,0.0-1.0-0.20,65ce206c508301bba9318c70,AWAITING REVIEW,2024-02-15T14:32:16.274000Z,2024-02-15T14:48:57.802000Z,,2024-02-15T14:48:58.430881Z,1002.0,CVPIIDEI,48,33,Female,Black,United States,United States,United States,English,No,Full-Time,Not Applicable
65c10decdf7bb73782345cb3,"<b>If a good friend of mine does something unexpected that upsets me, I feel like I don?t know them anymore.",Highly disagree,22/94,Somewhat disagree,2,1708007699914,1708007706955,\Somewhat disagree\,\Somewhat disagree\,\2\,1708007705607,1708007705607,5693,5693,7041,buq,qns-item-noham,22,156631,0.0-1.0-0.21,65ce206c508301bba9318c70,AWAITING REVIEW,2024-02-15T14:32:16.274000Z,2024-02-15T14:48:57.802000Z,,2024-02-15T14:48:58.430881Z,1002.0,CVPIIDEI,48,33,Female,Black,United States,United States,United States,English,No,Full-Time,Not Applicable
65c10decdf7bb73782345cb3,<b>Other people?s beliefs are often incoherent.,Highly disagree,23/94,Highly disagree,1,1708007706958,1708007720506,\Somewhat disagree\,\Highly disagree\,\2\,1708007712224,1708007719573,5266,12615,13548,buq,qns-item-noham,23,170181,0.0-1.0-0.22,65ce206c508301bba9318c70,AWAITING REVIEW,2024-02-15T14:32:16.274000Z,2024-02-15T14:48:57.802000Z,,2024-02-15T14:48:58.430881Z,1002.0,CVPIIDEI,48,33,Female,Black,United States,United States,United States,English,No,Full-Time,Not Applicable
65c10decdf7bb73782345cb3,"<b>Every now and then, a new experience will unsettle beliefs I?ve had for a while.",Highly disagree,24/94,Highly agree,4,1708007720508,1708007725709,\Highly agree\,\Highly agree\,\4\,1708007724908,1708007724908,4400,4400,5201,buq,qns-item-noham,24,175384,0.0-1.0-0.23,65ce206c508301bba9318c70,AWAITING REVIEW,2024-02-15T14:32:16.274000Z,2024-02-15T14:48:57.802000Z,,2024-02-15T14:48:58.430881Z,1002.0,CVPIIDEI,48,33,Female,Black,United States,United States,United States,English,No,Full-Time,Not Applicable
65c10decdf7bb73782345cb3,<b>Some policies I agree with in principle are so bad I don?t support them. ,Highly disagree,25/94,Somewhat agree,3,1708007725710,1708007739101,\Somewhat agree\,\Somewhat agree\,\3\,1708007737899,1708007737899,12189,12189,13391,buq,qns-item-noham,25,188776,0.0-1.0-0.24,65ce206c508301bba9318c70,AWAITING REVIEW,2024-02-15T14:32:16.274000Z,2024-02-15T14:48:57.802000Z,,2024-02-15T14:48:58.430881Z,1002.0,CVPIIDEI,48,33,Female,Black,United States,United States,United States,English,No,Full-Time,Not Applicable
65c10decdf7bb73782345cb3,<b>I?m pretty sure I?ve accidentally spread false information.,Highly disagree,26/94,Somewhat disagree,2,1708007739104,1708007743556,\Somewhat disagree\,\Somewhat disagree\,\2\,1708007743021,1708007743021,3917,3917,4452,buq,qns-item-noham,26,193231,0.0-1.0-0.25,65ce206c508301bba9318c70,AWAITING REVIEW,2024-02-15T14:32:16.274000Z,2024-02-15T14:48:57.802000Z,,2024-02-15T14:48:58.430881Z,1002.0,CVPIIDEI,48,33,Female,Black,United States,United States,United States,English,No,Full-Time,Not Applicable
65c10decdf7bb73782345cb3,"<b>If I go to my favorite restaurant and the food is unexpectedly bad, then they have changed owners.",Highly disagree,27/94,Highly disagree,1,1708007743558,1708007751652,\Highly disagree\,\Highly disagree\,\1\,1708007751052,1708007751052,7494,7494,8094,buq,qns-item-noham,27,201327,0.0-1.0-0.26,65ce206c508301bba9318c70,AWAITING REVIEW,2024-02-15T14:32:16.274000Z,2024-02-15T14:48:57.802000Z,,2024-02-15T14:48:58.430881Z,1002.0,CVPIIDEI,48,33,Female,Black,United States,United States,United States,English,No,Full-Time,Not Applicable
65c10decdf7bb73782345cb3,"<b>In politics, it?s important to trust your friends and family.",Highly disagree,28/94,Highly disagree,1,1708007751654,1708007759801,\Highly disagree\,\Highly disagree\,\1\,1708007756733,1708007756733,5079,5079,8147,buq,qns-item-noham,28,209476,0.0-1.0-0.27,65ce206c508301bba9318c70,AWAITING REVIEW,2024-02-15T14:32:16.274000Z,2024-02-15T14:48:57.802000Z,,2024-02-15T14:48:58.430881Z,1002.0,CVPIIDEI,48,33,Female,Black,United States,United States,United States,English,No,Full-Time,Not Applicable
65c10decdf7bb73782345cb3,<b>It?s OK to have some conflicting beliefs.,Highly disagree,29/94,Somewhat agree,3,1708007759803,1708007766324,\Somewhat agree\,\Somewhat agree\,\3\,1708007765776,1708007765776,5973,5973,6521,buq,qns-item-noham,29,215999,0.0-1.0-0.28,65ce206c508301bba9318c70,AWAITING REVIEW,2024-02-15T14:32:16.274000Z,2024-02-15T14:48:57.802000Z,,2024-02-15T14:48:58.430881Z,1002.0,CVPIIDEI,48,33,Female,Black,United States,United States,United States,English,No,Full-Time,Not Applicable
65c10decdf7bb73782345cb3,<b>Listening to people I disagree with makes my opinions better.,Highly disagree,30/94,Highly agree,4,1708007766327,1708007770018,\Highly agree\,\Highly agree\,\4\,1708007768765,1708007768765,2438,2438,3691,buq,qns-item-noham,30,219693,0.0-1.0-0.29,65ce206c508301bba9318c70,AWAITING REVIEW,2024-02-15T14:32:16.274000Z,2024-02-15T14:48:57.802000Z,,2024-02-15T14:48:58.430881Z,1002.0,CVPIIDEI,48,33,Female,Black,United States,United States,United States,English,No,Full-Time,Not Applicable
65c10decdf7bb73782345cb3,<b>My moral compass sometimes makes it harder to determine what?s true.,Highly disagree,31/94,Somewhat agree,3,1708007770020,1708007775688,\Somewhat agree\,\Somewhat agree\,\3\,1708007775100,1708007775100,5080,5080,5668,buq,qns-item-noham,31,225363,0.0-1.0-0.30,65ce206c508301bba9318c70,AWAITING REVIEW,2024-02-15T14:32:16.274000Z,2024-02-15T14:48:57.802000Z,,2024-02-15T14:48:58.430881Z,1002.0,CVPIIDEI,48,33,Female,Black,United States,United States,United States,English,No,Full-Time,Not Applicable
65c10decdf7bb73782345cb3,<b>Evidence pointing in the wrong direction isn?t really evidence at all.,Highly disagree,32/94,Somewhat disagree,2,1708007775690,1708007786451,\Somewhat agree\,\Somewhat disagree\,\3\,1708007783556,1708007785917,7866,10227,10761,buq,qns-item-noham,32,236126,0.0-1.0-0.31,65ce206c508301bba9318c70,AWAITING REVIEW,2024-02-15T14:32:16.274000Z,2024-02-15T14:48:57.802000Z,,2024-02-15T14:48:58.430881Z,1002.0,CVPIIDEI,48,33,Female,Black,United States,United States,United States,English,No,Full-Time,Not Applicable
65c10decdf7bb73782345cb3,"<b>If the political party I support messes up, it makes me think politics is rotten.",Highly disagree,33/94,Somewhat agree,3,1708007786453,1708007795947,\Somewhat agree\,\Somewhat agree\,\3\,1708007794428,1708007794428,7975,7975,9494,buq,qns-item-noham,33,245622,0.0-1.0-0.32,65ce206c508301bba9318c70,AWAITING REVIEW,2024-02-15T14:32:16.274000Z,2024-02-15T14:48:57.802000Z,,2024-02-15T14:48:58.430881Z,1002.0,CVPIIDEI,48,33,Female,Black,United States,United States,United States,English,No,Full-Time,Not Applicable
65c10decdf7bb73782345cb3,<b>Lots of important topics can only really be understood by some groups of people.,Highly disagree,34/94,Highly agree,4,1708007795950,1708007802484,\Highly agree\,\Highly agree\,\4\,1708007801803,1708007801803,5853,5853,6534,buq,qns-item-noham,34,252159,0.0-1.0-0.33,65ce206c508301bba9318c70,AWAITING REVIEW,2024-02-15T14:32:16.274000Z,2024-02-15T14:48:57.802000Z,,2024-02-15T14:48:58.430881Z,1002.0,CVPIIDEI,48,33,Female,Black,United States,United States,United States,English,No,Full-Time,Not Applicable
65c10decdf7bb73782345cb3,<b>Having conflicting beliefs means you haven?t thought about them enough.,Highly disagree,35/94,Highly disagree,1,1708007802486,1708007807113,\Highly disagree\,\Highly disagree\,\1\,1708007806151,1708007806151,3665,3665,4627,buq,qns-item-noham,35,256788,0.0-1.0-0.34,65ce206c508301bba9318c70,AWAITING REVIEW,2024-02-15T14:32:16.274000Z,2024-02-15T14:48:57.802000Z,,2024-02-15T14:48:58.430881Z,1002.0,CVPIIDEI,48,33,Female,Black,United States,United States,United States,English,No,Full-Time,Not Applicable
65c10decdf7bb73782345cb3,<b>I do not often change my political opinions.,Highly disagree,36/94,Somewhat agree,3,1708007807115,1708007816275,\Somewhat disagree\,\Somewhat agree\,\2\,1708007810580,1708007815342,3465,8227,9160,buq,qns-item-noham,36,265950,0.0-1.0-0.35,65ce206c508301bba9318c70,AWAITING REVIEW,2024-02-15T14:32:16.274000Z,2024-02-15T14:48:57.802000Z,,2024-02-15T14:48:58.430881Z,1002.0,CVPIIDEI,48,33,Female,Black,United States,United States,United States,English,No,Full-Time,Not Applicable
65c10decdf7bb73782345cb3,<b>It?s difficult to not have at least some conflicting beliefs.,Highly disagree,37/94,Highly agree,4,1708007816278,1708007824238,\Highly agree\,\Highly agree\,\4\,1708007821850,1708007821850,5572,5572,7960,buq,qns-item-noham,37,273913,0.0-1.0-0.36,65ce206c508301bba9318c70,AWAITING REVIEW,2024-02-15T14:32:16.274000Z,2024-02-15T14:48:57.802000Z,,2024-02-15T14:48:58.430881Z,1002.0,CVPIIDEI,48,33,Female,Black,United States,United States,United States,English,No,Full-Time,Not Applicable
65c10decdf7bb73782345cb3,<b>Wishful thinking causes a lot of problems.,Highly disagree,38/94,Highly agree,4,1708007824240,1708007836283,\Highly agree\,\Highly agree\,\4\,1708007834975,1708007834975,10735,10735,12043,buq,qns-item-noham,38,285958,0.0-1.0-0.37,65ce206c508301bba9318c70,AWAITING REVIEW,2024-02-15T14:32:16.274000Z,2024-02-15T14:48:57.802000Z,,2024-02-15T14:48:58.430881Z,1002.0,CVPIIDEI,48,33,Female,Black,United States,United States,United States,English,No,Full-Time,Not Applicable
65c10decdf7bb73782345cb3,<b>I judge a food item only once I try it many times.,Highly disagree,39/94,Somewhat disagree,2,1708007836285,1708007847807,\Somewhat disagree\,\Somewhat disagree\,\2\,1708007846846,1708007846846,10561,10561,11522,buq,qns-item-noham,39,297482,0.0-1.0-0.38,65ce206c508301bba9318c70,AWAITING REVIEW,2024-02-15T14:32:16.274000Z,2024-02-15T14:48:57.802000Z,,2024-02-15T14:48:58.430881Z,1002.0,CVPIIDEI,48,33,Female,Black,United States,United States,United States,English,No,Full-Time,Not Applicable
65c10decdf7bb73782345cb3,"<b>When a person holds conflicting beliefs, they should really try to figure out what?s wrong.",Highly disagree,40/94,Highly agree,4,1708007847809,1708007852782,\Highly agree\,\Highly agree\,\4\,1708007852194,1708007852194,4385,4385,4973,buq,qns-item-noham,40,302457,0.0-1.0-0.39,65ce206c508301bba9318c70,AWAITING REVIEW,2024-02-15T14:32:16.274000Z,2024-02-15T14:48:57.802000Z,,2024-02-15T14:48:58.430881Z,1002.0,CVPIIDEI,48,33,Female,Black,United States,United States,United States,English,No,Full-Time,Not Applicable
65c10decdf7bb73782345cb3,<b>Knowing what?s important in life is easy.,Highly disagree,41/94,Somewhat disagree,2,1708007852783,1708007856889,\Somewhat disagree\,\Somewhat disagree\,\2\,1708007856289,1708007856289,3506,3506,4106,buq,qns-item-noham,41,306564,0.0-1.0-0.40,65ce206c508301bba9318c70,AWAITING REVIEW,2024-02-15T14:32:16.274000Z,2024-02-15T14:48:57.802000Z,,2024-02-15T14:48:58.430881Z,1002.0,CVPIIDEI,48,33,Female,Black,United States,United States,United States,English,No,Full-Time,Not Applicable
65c10decdf7bb73782345cb3,<b>I swim across the Atlantic Ocean to get to work every day.,Highly disagree,42/94,Highly disagree,1,1708007856890,1708007860970,\Highly disagree\,\Highly disagree\,\1\,1708007859544,1708007859544,2654,2654,4080,buq,qns-item-noham,42,310646,0.0-1.0-0.41,65ce206c508301bba9318c70,AWAITING REVIEW,2024-02-15T14:32:16.274000Z,2024-02-15T14:48:57.802000Z,,2024-02-15T14:48:58.430881Z,1002.0,CVPIIDEI,48,33,Female,Black,United States,United States,United States,English,No,Full-Time,Not Applicable
65c10decdf7bb73782345cb3,"<b>Sometimes, you just have to ignore evidence that you know is wrong.",Highly disagree,43/94,Highly agree,4,1708007860972,1708007868495,\Highly agree\,\Highly agree\,\4\,1708007867667,1708007867667,6695,6695,7523,buq,qns-item-noham,43,318170,0.0-1.0-0.42,65ce206c508301bba9318c70,AWAITING REVIEW,2024-02-15T14:32:16.274000Z,2024-02-15T14:48:57.802000Z,,2024-02-15T14:48:58.430881Z,1002.0,CVPIIDEI,48,33,Female,Black,United States,United States,United States,English,No,Full-Time,Not Applicable
65c10decdf7bb73782345cb3,<b>I have had some false beliefs.,Highly disagree,44/94,Somewhat disagree,2,1708007868497,1708007872681,\Somewhat disagree\,\Somewhat disagree\,\2\,1708007871921,1708007871921,3424,3424,4184,buq,qns-item-noham,44,322356,0.0-1.0-0.43,65ce206c508301bba9318c70,AWAITING REVIEW,2024-02-15T14:32:16.274000Z,2024-02-15T14:48:57.802000Z,,2024-02-15T14:48:58.430881Z,1002.0,CVPIIDEI,48,33,Female,Black,United States,United States,United States,English,No,Full-Time,Not Applicable
65c10decdf7bb73782345cb3,"<b>If one friend does something that upsets me, I sometimes start to distrust people in general.",Highly disagree,45/94,Highly disagree,1,1708007872683,1708007881740,\Highly disagree\,\Highly disagree\,\1\,1708007880765,1708007880765,8082,8082,9057,buq,qns-item-noham,45,331415,0.0-1.0-0.44,65ce206c508301bba9318c70,AWAITING REVIEW,2024-02-15T14:32:16.274000Z,2024-02-15T14:48:57.802000Z,,2024-02-15T14:48:58.430881Z,1002.0,CVPIIDEI,48,33,Female,Black,United States,United States,United States,English,No,Full-Time,Not Applicable
65c10decdf7bb73782345cb3,<b>The facts about most important matters are easy to find.,Highly disagree,46/94,Somewhat disagree,2,1708007881743,1708007890089,\Somewhat disagree\,\Somewhat disagree\,\2\,1708007888195,1708007888195,6452,6452,8346,buq,qns-item-noham,46,339764,0.0-1.0-0.45,65ce206c508301bba9318c70,AWAITING REVIEW,2024-02-15T14:32:16.274000Z,2024-02-15T14:48:57.802000Z,,2024-02-15T14:48:58.430881Z,1002.0,CVPIIDEI,48,33,Female,Black,United States,United States,United States,English,No,Full-Time,Not Applicable
65c10decdf7bb73782345cb3,<b>It?s better to know what?s true than to know what?s moral.,Highly disagree,47/94,Somewhat agree,3,1708007890092,1708007942589,\Somewhat agree\,\Somewhat agree\,\3\,1708007941774,1708007941774,51682,51682,52497,buq,qns-item-noham,47,392264,0.0-1.0-0.46,65ce206c508301bba9318c70,AWAITING REVIEW,2024-02-15T14:32:16.274000Z,2024-02-15T14:48:57.802000Z,,2024-02-15T14:48:58.430881Z,1002.0,CVPIIDEI,48,33,Female,Black,United States,United States,United States,English,No,Full-Time,Not Applicable
65c10decdf7bb73782345cb3,<b>I used to think the world was less complicated than I do now.,Highly disagree,48/94,Highly agree,4,1708007942591,1708007948777,\Highly agree\,\Highly agree\,\4\,1708007947723,1708007947723,5132,5132,6186,buq,qns-item-noham,48,398452,0.0-1.0-0.47,65ce206c508301bba9318c70,AWAITING REVIEW,2024-02-15T14:32:16.274000Z,2024-02-15T14:48:57.802000Z,,2024-02-15T14:48:58.430881Z,1002.0,CVPIIDEI,48,33,Female,Black,United States,United States,United States,English,No,Full-Time,Not Applicable
65c10decdf7bb73782345cb3,<b>People are usually completely right or completely wrong.,Highly disagree,49/94,Highly disagree,1,1708007948779,1708007954031,\Highly disagree\,\Highly disagree\,\1\,1708007953391,1708007953391,4612,4612,5252,buq,qns-item-noham,49,403706,0.0-1.0-0.48,65ce206c508301bba9318c70,AWAITING REVIEW,2024-02-15T14:32:16.274000Z,2024-02-15T14:48:57.802000Z,,2024-02-15T14:48:58.430881Z,1002.0,CVPIIDEI,48,33,Female,Black,United States,United States,United States,English,No,Full-Time,Not Applicable
65c10decdf7bb73782345cb3,<b>I spend a lot of time considering alternatives to my beliefs.,Highly disagree,50/94,Highly agree,4,1708007954033,1708007957768,\Highly agree\,\Highly agree\,\4\,1708007956913,1708007956913,2880,2880,3735,buq,qns-item-noham,50,407443,0.0-1.0-0.49,65ce206c508301bba9318c70,AWAITING REVIEW,2024-02-15T14:32:16.274000Z,2024-02-15T14:48:57.802000Z,,2024-02-15T14:48:58.430881Z,1002.0,CVPIIDEI,48,33,Female,Black,United States,United States,United States,English,No,Full-Time,Not Applicable
65c10decdf7bb73782345cb3,"<b>Political enemies need to be defeated, not convinced.",Highly disagree,51/94,Highly disagree,1,1708007957771,1708007966277,\Highly disagree\,\Highly disagree\,\1\,1708007963969,1708007963969,6198,6198,8506,buq,qns-item-noham,51,415952,0.0-1.0-0.50,65ce206c508301bba9318c70,AWAITING REVIEW,2024-02-15T14:32:16.274000Z,2024-02-15T14:48:57.802000Z,,2024-02-15T14:48:58.430881Z,1002.0,CVPIIDEI,48,33,Female,Black,United States,United States,United States,English,No,Full-Time,Not Applicable
65c10decdf7bb73782345cb3,<b>I form my political views only after meticulously gathering historical and present information about their policies.,Highly disagree,52/94,Highly agree,4,1708007966280,1708007973334,\Highly agree\,\Highly agree\,\4\,1708007972612,1708007972612,6332,6332,7054,buq,qns-item-noham,52,423009,0.0-1.0-0.51,65ce206c508301bba9318c70,AWAITING REVIEW,2024-02-15T14:32:16.274000Z,2024-02-15T14:48:57.802000Z,,2024-02-15T14:48:58.430881Z,1002.0,CVPIIDEI,48,33,Female,Black,United States,United States,United States,English,No,Full-Time,Not Applicable
65c10decdf7bb73782345cb3,<b>It is difficult for me to remember the last time I was surprised by politics.,Highly disagree,53/94,Highly disagree,1,1708007973336,1708007978001,\Highly disagree\,\Highly disagree\,\1\,1708007976453,1708007976453,3117,3117,4665,buq,qns-item-noham,53,427676,0.0-1.0-0.52,65ce206c508301bba9318c70,AWAITING REVIEW,2024-02-15T14:32:16.274000Z,2024-02-15T14:48:57.802000Z,,2024-02-15T14:48:58.430881Z,1002.0,CVPIIDEI,48,33,Female,Black,United States,United States,United States,English,No,Full-Time,Not Applicable
65c10decdf7bb73782345cb3,"<b>When I find out I?m wrong, I think a lot about my related beliefs.",Highly disagree,54/94,Highly agree,4,1708007978003,1708007982656,\Highly agree\,\Highly agree\,\4\,1708007981989,1708007981989,3986,3986,4653,buq,qns-item-noham,54,432331,0.0-1.0-0.53,65ce206c508301bba9318c70,AWAITING REVIEW,2024-02-15T14:32:16.274000Z,2024-02-15T14:48:57.802000Z,,2024-02-15T14:48:58.430881Z,1002.0,CVPIIDEI,48,33,Female,Black,United States,United States,United States,English,No,Full-Time,Not Applicable
65c10decdf7bb73782345cb3,"<b>If the political party I support messes up, it makes me think you can?t trust anyone these days",Highly disagree,55/94,Highly disagree,1,1708007982657,1708007992633,\Highly disagree\,\Highly disagree\,\1\,1708007986231,1708007986231,3574,3574,9976,buq,qns-item-noham,55,442308,0.0-1.0-0.54,65ce206c508301bba9318c70,AWAITING REVIEW,2024-02-15T14:32:16.274000Z,2024-02-15T14:48:57.802000Z,,2024-02-15T14:48:58.430881Z,1002.0,CVPIIDEI,48,33,Female,Black,United States,United States,United States,English,No,Full-Time,Not Applicable
65c10decdf7bb73782345cb3,<b>People?s brains turn off when they talk about politics.,Highly disagree,56/94,Highly disagree,1,1708007992635,1708008091603,\Highly disagree\,\Highly disagree\,\1\,1708008090868,1708008090868,98233,98233,98968,buq,qns-item-noham,56,541278,0.0-1.0-0.55,65ce206c508301bba9318c70,AWAITING REVIEW,2024-02-15T14:32:16.274000Z,2024-02-15T14:48:57.802000Z,,2024-02-15T14:48:58.430881Z,1002.0,CVPIIDEI,48,33,Female,Black,United States,United States,United States,English,No,Full-Time,Not Applicable
65c10decdf7bb73782345cb3,<b>People who are wrong are usually just ignoring the obvious.,Highly disagree,57/94,Somewhat disagree,2,1708008091606,1708008100593,\Highly disagree\,\Somewhat disagree\,\1\,1708008097965,1708008099925,6359,8319,8987,buq,qns-item-noham,57,550268,0.0-1.0-0.56,65ce206c508301bba9318c70,AWAITING REVIEW,2024-02-15T14:32:16.274000Z,2024-02-15T14:48:57.802000Z,,2024-02-15T14:48:58.430881Z,1002.0,CVPIIDEI,48,33,Female,Black,United States,United States,United States,English,No,Full-Time,Not Applicable
65c10decdf7bb73782345cb3,"<b>When forming my views on people, I rely more on what they are like now rather than rely on my past experience with them.",Highly disagree,58/94,Somewhat agree,3,1708008100595,1708008111263,\Somewhat agree\,\Somewhat agree\,\3\,1708008110076,1708008110076,9481,9481,10668,buq,qns-item-noham,58,560939,0.0-1.0-0.57,65ce206c508301bba9318c70,AWAITING REVIEW,2024-02-15T14:32:16.274000Z,2024-02-15T14:48:57.802000Z,,2024-02-15T14:48:58.430881Z,1002.0,CVPIIDEI,48,33,Female,Black,United States,United States,United States,English,No,Full-Time,Not Applicable
65c10decdf7bb73782345cb3,"<b>When people contradict my beliefs, I usually know about their evidence already.",Highly disagree,59/94,Highly disagree,1,1708008111266,1708008117131,\Highly disagree\,\Highly disagree\,\1\,1708008116052,1708008116052,4786,4786,5865,buq,qns-item-noham,59,566806,0.0-1.0-0.58,65ce206c508301bba9318c70,AWAITING REVIEW,2024-02-15T14:32:16.274000Z,2024-02-15T14:48:57.802000Z,,2024-02-15T14:48:58.430881Z,1002.0,CVPIIDEI,48,33,Female,Black,United States,United States,United States,English,No,Full-Time,Not Applicable
65c10decdf7bb73782345cb3,<b>Figuring out what?s true and what?s false mainly requires a strong moral compass.,Highly disagree,60/94,Somewhat disagree,2,1708008117134,1708008123454,\Somewhat disagree\,\Somewhat disagree\,\2\,1708008122360,1708008122360,5226,5226,6320,buq,qns-item-noham,60,573129,0.0-1.0-0.59,65ce206c508301bba9318c70,AWAITING REVIEW,2024-02-15T14:32:16.274000Z,2024-02-15T14:48:57.802000Z,,2024-02-15T14:48:58.430881Z,1002.0,CVPIIDEI,48,33,Female,Black,United States,United States,United States,English,No,Full-Time,Not Applicable
65c10decdf7bb73782345cb3,"<b>Usually I?m wrong about simple things, not complicated ones.",Highly disagree,61/94,Somewhat disagree,2,1708008123456,1708008130670,\Somewhat disagree\,\Somewhat disagree\,\2\,1708008130083,1708008130083,6627,6627,7214,buq,qns-item-noham,61,580346,0.0-1.0-0.60,65ce206c508301bba9318c70,AWAITING REVIEW,2024-02-15T14:32:16.274000Z,2024-02-15T14:48:57.802000Z,,2024-02-15T14:48:58.430881Z,1002.0,CVPIIDEI,48,33,Female,Black,United States,United States,United States,English,No,Full-Time,Not Applicable
65c10decdf7bb73782345cb3,<b>Getting all the information I want about important things is hard.,Highly disagree,62/94,Somewhat disagree,2,1708008130673,1708008138274,\Somewhat disagree\,\Somewhat disagree\,\2\,1708008137632,1708008137632,6959,6959,7601,buq,qns-item-noham,62,587949,0.0-1.0-0.61,65ce206c508301bba9318c70,AWAITING REVIEW,2024-02-15T14:32:16.274000Z,2024-02-15T14:48:57.802000Z,,2024-02-15T14:48:58.430881Z,1002.0,CVPIIDEI,48,33,Female,Black,United States,United States,United States,English,No,Full-Time,Not Applicable
65c10decdf7bb73782345cb3,<b>Most false beliefs spread because people try to deceive one another.,Highly disagree,63/94,Somewhat disagree,2,1708008138276,1708008146996,\Somewhat agree\,\Somewhat disagree\,\3\,1708008144208,1708008146276,5932,8000,8720,buq,qns-item-noham,63,596671,0.0-1.0-0.62,65ce206c508301bba9318c70,AWAITING REVIEW,2024-02-15T14:32:16.274000Z,2024-02-15T14:48:57.802000Z,,2024-02-15T14:48:58.430881Z,1002.0,CVPIIDEI,48,33,Female,Black,United States,United States,United States,English,No,Full-Time,Not Applicable
65c10decdf7bb73782345cb3,<b>I can usually find something to agree with in most people?s beliefs.,Highly disagree,64/94,Highly agree,4,1708008146999,1708008153092,\Highly agree\,\Highly agree\,\4\,1708008151586,1708008151586,4587,4587,6093,buq,qns-item-noham,64,602767,0.0-1.0-0.63,65ce206c508301bba9318c70,AWAITING REVIEW,2024-02-15T14:32:16.274000Z,2024-02-15T14:48:57.802000Z,,2024-02-15T14:48:58.430881Z,1002.0,CVPIIDEI,48,33,Female,Black,United States,United States,United States,English,No,Full-Time,Not Applicable
65c10decdf7bb73782345cb3,<b>I only form my views of people once I get to know them very well.,Highly disagree,65/94,Highly agree,4,1708008153096,1708008156481,\Highly agree\,\Highly agree\,\4\,1708008155853,1708008155853,2757,2757,3385,buq,qns-item-noham,65,606156,0.0-1.0-0.64,65ce206c508301bba9318c70,AWAITING REVIEW,2024-02-15T14:32:16.274000Z,2024-02-15T14:48:57.802000Z,,2024-02-15T14:48:58.430881Z,1002.0,CVPIIDEI,48,33,Female,Black,United States,United States,United States,English,No,Full-Time,Not Applicable
65c10decdf7bb73782345cb3,"<b>When people tell me important things about the world, I usually believe them.",Highly disagree,66/94,Somewhat disagree,2,1708008156483,1708008163110,\Somewhat disagree\,\Somewhat disagree\,\2\,1708008162348,1708008162348,5865,5865,6627,buq,qns-item-noham,66,612785,0.0-1.0-0.65,65ce206c508301bba9318c70,AWAITING REVIEW,2024-02-15T14:32:16.274000Z,2024-02-15T14:48:57.802000Z,,2024-02-15T14:48:58.430881Z,1002.0,CVPIIDEI,48,33,Female,Black,United States,United States,United States,English,No,Full-Time,Not Applicable
65c10decdf7bb73782345cb3,"<b>If a friend does something that upsets me, it reminds me what an unpredictable place the world is.",Highly disagree,67/94,Highly agree,4,1708008163112,1708008171138,\Highly agree\,\Highly agree\,\4\,1708008169991,1708008169991,6879,6879,8026,buq,qns-item-noham,67,620813,0.0-1.0-0.66,65ce206c508301bba9318c70,AWAITING REVIEW,2024-02-15T14:32:16.274000Z,2024-02-15T14:48:57.802000Z,,2024-02-15T14:48:58.430881Z,1002.0,CVPIIDEI,48,33,Female,Black,United States,United States,United States,English,No,Full-Time,Not Applicable
65c10decdf7bb73782345cb3,<b>People tend to believe whatever is good for their friends.,Highly disagree,68/94,Somewhat disagree,2,1708008171140,1708008181395,\Somewhat disagree\,\Somewhat disagree\,\2\,1708008179448,1708008179448,8308,8308,10255,buq,qns-item-noham,68,631070,0.0-1.0-0.67,65ce206c508301bba9318c70,AWAITING REVIEW,2024-02-15T14:32:16.274000Z,2024-02-15T14:48:57.802000Z,,2024-02-15T14:48:58.430881Z,1002.0,CVPIIDEI,48,33,Female,Black,United States,United States,United States,English,No,Full-Time,Not Applicable
65c10decdf7bb73782345cb3,<b>I used to be more certain my beliefs were true.,Highly disagree,69/94,Highly agree,4,1708008181398,1708008186424,\Highly agree\,\Highly agree\,\4\,1708008185730,1708008185730,4332,4332,5026,buq,qns-item-noham,69,636100,0.0-1.0-0.68,65ce206c508301bba9318c70,AWAITING REVIEW,2024-02-15T14:32:16.274000Z,2024-02-15T14:48:57.802000Z,,2024-02-15T14:48:58.430881Z,1002.0,CVPIIDEI,48,33,Female,Black,United States,United States,United States,English,No,Full-Time,Not Applicable
65c10decdf7bb73782345cb3,<b>It?s often pretty easy to figure out whether something is true based on who said it.,Highly disagree,70/94,Somewhat disagree,2,1708008186427,1708008195682,\Somewhat disagree\,\Somewhat disagree\,\2\,1708008195067,1708008195067,8640,8640,9255,buq,qns-item-noham,70,645357,0.0-1.0-0.69,65ce206c508301bba9318c70,AWAITING REVIEW,2024-02-15T14:32:16.274000Z,2024-02-15T14:48:57.802000Z,,2024-02-15T14:48:58.430881Z,1002.0,CVPIIDEI,48,33,Female,Black,United States,United States,United States,English,No,Full-Time,Not Applicable
65c10decdf7bb73782345cb3,<b>I transform into a hummingbird every day.,Highly disagree,71/94,Highly disagree,1,1708008195684,1708008199709,\Highly disagree\,\Highly disagree\,\1\,1708008198482,1708008198482,2798,2798,4025,buq,qns-item-noham,71,649384,0.0-1.0-0.70,65ce206c508301bba9318c70,AWAITING REVIEW,2024-02-15T14:32:16.274000Z,2024-02-15T14:48:57.802000Z,,2024-02-15T14:48:58.430881Z,1002.0,CVPIIDEI,48,33,Female,Black,United States,United States,United States,English,No,Full-Time,Not Applicable
65c10decdf7bb73782345cb3,<b>I think a lot about arguments against my views.,Highly disagree,72/94,Somewhat agree,3,1708008199712,1708008207633,\Somewhat agree\,\Somewhat agree\,\3\,1708008206978,1708008206978,7266,7266,7921,buq,qns-item-noham,72,657308,0.0-1.0-0.71,65ce206c508301bba9318c70,AWAITING REVIEW,2024-02-15T14:32:16.274000Z,2024-02-15T14:48:57.802000Z,,2024-02-15T14:48:58.430881Z,1002.0,CVPIIDEI,48,33,Female,Black,United States,United States,United States,English,No,Full-Time,Not Applicable
65c10decdf7bb73782345cb3,<b>Personal experience is usually more important than facts and figures.,Highly disagree,73/94,Somewhat disagree,2,1708008207635,1708008216742,\Somewhat disagree\,\Somewhat disagree\,\2\,1708008211473,1708008211473,3838,3838,9107,buq,qns-item-noham,73,666417,0.0-1.0-0.72,65ce206c508301bba9318c70,AWAITING REVIEW,2024-02-15T14:32:16.274000Z,2024-02-15T14:48:57.802000Z,,2024-02-15T14:48:58.430881Z,1002.0,CVPIIDEI,48,33,Female,Black,United States,United States,United States,English,No,Full-Time,Not Applicable
65c10decdf7bb73782345cb3,<b>I?ve been tricked before about important matters.,Highly disagree,74/94,Highly agree,4,1708008216744,1708008220010,\Highly agree\,\Highly agree\,\4\,1708008219329,1708008219329,2585,2585,3266,buq,qns-item-noham,74,669685,0.0-1.0-0.73,65ce206c508301bba9318c70,AWAITING REVIEW,2024-02-15T14:32:16.274000Z,2024-02-15T14:48:57.802000Z,,2024-02-15T14:48:58.430881Z,1002.0,CVPIIDEI,48,33,Female,Black,United States,United States,United States,English,No,Full-Time,Not Applicable
65c10decdf7bb73782345cb3,<b>I would need to be totally wowed if I were to change my opinion of a restaurant I don?t like.,Highly disagree,75/94,Somewhat agree,3,1708008220012,1708008229452,\Somewhat agree\,\Somewhat agree\,\3\,1708008228626,1708008228626,8614,8614,9440,buq,qns-item-noham,75,679128,0.0-1.0-0.74,65ce206c508301bba9318c70,AWAITING REVIEW,2024-02-15T14:32:16.274000Z,2024-02-15T14:48:57.802000Z,,2024-02-15T14:48:58.430881Z,1002.0,CVPIIDEI,48,33,Female,Black,United States,United States,United States,English,No,Full-Time,Not Applicable
65c10decdf7bb73782345cb3,<b>I care a lot about politics.,Highly disagree,76/94,Somewhat agree,3,1708008229455,1708008258798,\Somewhat agree\,\Somewhat agree\,\3\,1708008258036,1708008258036,28581,28581,29343,buq,qns-item-noham,76,708473,0.0-1.0-0.75,65ce206c508301bba9318c70,AWAITING REVIEW,2024-02-15T14:32:16.274000Z,2024-02-15T14:48:57.802000Z,,2024-02-15T14:48:58.430881Z,1002.0,CVPIIDEI,48,33,Female,Black,United States,United States,United States,English,No,Full-Time,Not Applicable
65c10decdf7bb73782345cb3,<b>There are some topics I?ve been really wrong about.,Highly disagree,77/94,Highly agree,4,1708008258800,1708008266919,\Highly agree\,\Highly agree\,\4\,1708008266213,1708008266213,7413,7413,8119,buq,qns-item-noham,77,716594,0.0-1.0-0.76,65ce206c508301bba9318c70,AWAITING REVIEW,2024-02-15T14:32:16.274000Z,2024-02-15T14:48:57.802000Z,,2024-02-15T14:48:58.430881Z,1002.0,CVPIIDEI,48,33,Female,Black,United States,United States,United States,English,No,Full-Time,Not Applicable
65c10decdf7bb73782345cb3,<b>Most beliefs can be supported with at least some evidence.,Highly disagree,78/94,Somewhat agree,3,1708008266921,1708008274284,\Somewhat agree\,\Somewhat agree\,\3\,1708008273683,1708008273683,6762,6762,7363,buq,qns-item-noham,78,723959,0.0-1.0-0.77,65ce206c508301bba9318c70,AWAITING REVIEW,2024-02-15T14:32:16.274000Z,2024-02-15T14:48:57.802000Z,,2024-02-15T14:48:58.430881Z,1002.0,CVPIIDEI,48,33,Female,Black,United States,United States,United States,English,No,Full-Time,Not Applicable
65c10decdf7bb73782345cb3,<b>Other people make life out to be more complicated than it really is.,Highly disagree,79/94,Somewhat disagree,2,1708008274286,1708008281646,\Somewhat disagree\,\Somewhat disagree\,\2\,1708008280005,1708008280005,5719,5719,7360,buq,qns-item-noham,79,731321,0.0-1.0-0.78,65ce206c508301bba9318c70,AWAITING REVIEW,2024-02-15T14:32:16.274000Z,2024-02-15T14:48:57.802000Z,,2024-02-15T14:48:58.430881Z,1002.0,CVPIIDEI,48,33,Female,Black,United States,United States,United States,English,No,Full-Time,Not Applicable
65c10decdf7bb73782345cb3,"<b>Policy details don?t matter much, just the big picture.",Highly disagree,80/94,Highly disagree,1,1708008281648,1708008285355,\Highly disagree\,\Highly disagree\,\1\,1708008284646,1708008284646,2998,2998,3707,buq,qns-item-noham,80,735030,0.0-1.0-0.79,65ce206c508301bba9318c70,AWAITING REVIEW,2024-02-15T14:32:16.274000Z,2024-02-15T14:48:57.802000Z,,2024-02-15T14:48:58.430881Z,1002.0,CVPIIDEI,48,33,Female,Black,United States,United States,United States,English,No,Full-Time,Not Applicable
65c10decdf7bb73782345cb3,<b>I know my friends so well they can hardly ever surprise me.,Highly disagree,81/94,Somewhat disagree,2,1708008285357,1708008288729,\Somewhat disagree\,\Somewhat disagree\,\2\,1708008288140,1708008288140,2783,2783,3372,buq,qns-item-noham,81,738404,0.0-1.0-0.80,65ce206c508301bba9318c70,AWAITING REVIEW,2024-02-15T14:32:16.274000Z,2024-02-15T14:48:57.802000Z,,2024-02-15T14:48:58.430881Z,1002.0,CVPIIDEI,48,33,Female,Black,United States,United States,United States,English,No,Full-Time,Not Applicable
65c10decdf7bb73782345cb3,<b>I do not often change my views on people.,Highly disagree,82/94,Somewhat disagree,2,1708008288731,1708008297839,\Somewhat disagree\,\Somewhat disagree\,\2\,1708008297170,1708008297170,8439,8439,9108,buq,qns-item-noham,82,747514,0.0-1.0-0.81,65ce206c508301bba9318c70,AWAITING REVIEW,2024-02-15T14:32:16.274000Z,2024-02-15T14:48:57.802000Z,,2024-02-15T14:48:58.430881Z,1002.0,CVPIIDEI,48,33,Female,Black,United States,United States,United States,English,No,Full-Time,Not Applicable
65c10decdf7bb73782345cb3,<b>I?m more certain about my beliefs than I used to be.,Highly disagree,83/94,Somewhat disagree,2,1708008297841,1708008305094,\Somewhat disagree\,\Somewhat disagree\,\2\,1708008302213,1708008302213,4372,4372,7253,buq,qns-item-noham,83,754769,0.0-1.0-0.82,65ce206c508301bba9318c70,AWAITING REVIEW,2024-02-15T14:32:16.274000Z,2024-02-15T14:48:57.802000Z,,2024-02-15T14:48:58.430881Z,1002.0,CVPIIDEI,48,33,Female,Black,United States,United States,United States,English,No,Full-Time,Not Applicable
65c10decdf7bb73782345cb3,<b>People often tell falsehoods unintentionally.,Highly disagree,84/94,Somewhat agree,3,1708008305097,1708008311336,\Somewhat agree\,\Somewhat agree\,\3\,1708008310629,1708008310629,5532,5532,6239,buq,qns-item-noham,84,761011,0.0-1.0-0.83,65ce206c508301bba9318c70,AWAITING REVIEW,2024-02-15T14:32:16.274000Z,2024-02-15T14:48:57.802000Z,,2024-02-15T14:48:58.430881Z,1002.0,CVPIIDEI,48,33,Female,Black,United States,United States,United States,English,No,Full-Time,Not Applicable
65c10decdf7bb73782345cb3,<b>Most people don?t know much about most things.,Highly disagree,85/94,Highly disagree,1,1708008311338,1708008314565,\Highly disagree\,\Highly disagree\,\1\,1708008314057,1708008314057,2719,2719,3227,buq,qns-item-noham,85,764240,0.0-1.0-0.84,65ce206c508301bba9318c70,AWAITING REVIEW,2024-02-15T14:32:16.274000Z,2024-02-15T14:48:57.802000Z,,2024-02-15T14:48:58.430881Z,1002.0,CVPIIDEI,48,33,Female,Black,United States,United States,United States,English,No,Full-Time,Not Applicable
65c10decdf7bb73782345cb3,"<b>If I find out something new about someone, I easily change my views about them.",Highly disagree,86/94,Somewhat agree,3,1708008314567,1708008329208,\Somewhat agree\,\Somewhat agree\,\3\,1708008328662,1708008328662,14095,14095,14641,buq,qns-item-noham,86,778883,0.0-1.0-0.85,65ce206c508301bba9318c70,AWAITING REVIEW,2024-02-15T14:32:16.274000Z,2024-02-15T14:48:57.802000Z,,2024-02-15T14:48:58.430881Z,1002.0,CVPIIDEI,48,33,Female,Black,United States,United States,United States,English,No,Full-Time,Not Applicable
65c10decdf7bb73782345cb3,<b>Having true beliefs is difficult.,Highly disagree,87/94,Highly disagree,1,1708008329209,1708008337346,\Highly disagree\,\Highly disagree\,\1\,1708008333811,1708008333811,4602,4602,8137,buq,qns-item-noham,87,787022,0.0-1.0-0.86,65ce206c508301bba9318c70,AWAITING REVIEW,2024-02-15T14:32:16.274000Z,2024-02-15T14:48:57.802000Z,,2024-02-15T14:48:58.430881Z,1002.0,CVPIIDEI,48,33,Female,Black,United States,United States,United States,English,No,Full-Time,Not Applicable
65c10decdf7bb73782345cb3,<b>I don?t try new foods since I know I won?t like them.,Highly disagree,88/94,Highly disagree,1,1708008337349,1708008341455,\Highly disagree\,\Highly disagree\,\1\,1708008340919,1708008340919,3570,3570,4106,buq,qns-item-noham,88,791130,0.0-1.0-0.87,65ce206c508301bba9318c70,AWAITING REVIEW,2024-02-15T14:32:16.274000Z,2024-02-15T14:48:57.802000Z,,2024-02-15T14:48:58.430881Z,1002.0,CVPIIDEI,48,33,Female,Black,United States,United States,United States,English,No,Full-Time,Not Applicable
65c10decdf7bb73782345cb3,<b>Other people trick each other a lot.,Highly disagree,89/94,Somewhat agree,3,1708008341457,1708008344763,\Somewhat agree\,\Somewhat agree\,\3\,1708008343988,1708008343988,2531,2531,3306,buq,qns-item-noham,89,794439,0.0-1.0-0.88,65ce206c508301bba9318c70,AWAITING REVIEW,2024-02-15T14:32:16.274000Z,2024-02-15T14:48:57.802000Z,,2024-02-15T14:48:58.430881Z,1002.0,CVPIIDEI,48,33,Female,Black,United States,United States,United States,English,No,Full-Time,Not Applicable
65c10decdf7bb73782345cb3,<b>I would need to learn a lot about a person for my opinion of them to be swayed.,Highly disagree,90/94,Somewhat disagree,2,1708008344766,1708008488882,\Somewhat disagree\,\Somewhat disagree\,\2\,1708008488082,1708008488082,143316,143316,144116,buq,qns-item-noham,90,938557,0.0-1.0-0.89,65ce206c508301bba9318c70,AWAITING REVIEW,2024-02-15T14:32:16.274000Z,2024-02-15T14:48:57.802000Z,,2024-02-15T14:48:58.430881Z,1002.0,CVPIIDEI,48,33,Female,Black,United States,United States,United States,English,No,Full-Time,Not Applicable
65c10decdf7bb73782345cb3,<b>People can?t usually trick me when it comes to topics I care about.,Highly disagree,91/94,Somewhat agree,3,1708008488883,1708008492723,\Somewhat agree\,\Somewhat agree\,\3\,1708008492208,1708008492208,3325,3325,3840,buq,qns-item-noham,91,942398,0.0-1.0-0.90,65ce206c508301bba9318c70,AWAITING REVIEW,2024-02-15T14:32:16.274000Z,2024-02-15T14:48:57.802000Z,,2024-02-15T14:48:58.430881Z,1002.0,CVPIIDEI,48,33,Female,Black,United States,United States,United States,English,No,Full-Time,Not Applicable
65c10decdf7bb73782345cb3,<b>I do not often change my views on food.,Highly disagree,92/94,Somewhat disagree,2,1708008492725,1708008496739,\Somewhat disagree\,\Somewhat disagree\,\2\,1708008496084,1708008496084,3359,3359,4014,buq,qns-item-noham,92,946414,0.0-1.0-0.91,65ce206c508301bba9318c70,AWAITING REVIEW,2024-02-15T14:32:16.274000Z,2024-02-15T14:48:57.802000Z,,2024-02-15T14:48:58.430881Z,1002.0,CVPIIDEI,48,33,Female,Black,United States,United States,United States,English,No,Full-Time,Not Applicable
65c10decdf7bb73782345cb3,<b>Specific policies are often very important to me.,Highly disagree,93/94,Highly agree,4,1708008496741,1708008499793,\Highly agree\,\Highly agree\,\4\,1708008499258,1708008499258,2517,2517,3052,buq,qns-item-noham,93,949468,0.0-1.0-0.92,65ce206c508301bba9318c70,AWAITING REVIEW,2024-02-15T14:32:16.274000Z,2024-02-15T14:48:57.802000Z,,2024-02-15T14:48:58.430881Z,1002.0,CVPIIDEI,48,33,Female,Black,United States,United States,United States,English,No,Full-Time,Not Applicable
65c10decdf7bb73782345cb3,<b>Most people are woefully under-informed.,Highly disagree,94/94,Somewhat agree,3,1708008499795,1708008508248,\Somewhat agree\,\Somewhat agree\,\3\,1708008504299,1708008504299,4504,4504,8453,buq,qns-item-noham,94,957923,0.0-1.0-0.93,65ce206c508301bba9318c70,AWAITING REVIEW,2024-02-15T14:32:16.274000Z,2024-02-15T14:48:57.802000Z,,2024-02-15T14:48:58.430881Z,1002.0,CVPIIDEI,48,33,Female,Black,United States,United States,United States,English,No,Full-Time,Not Applicable
65c10decdf7bb73782345cb3,,,,,,,,,,,,,,,,,,,,,65ce206c508301bba9318c70,AWAITING REVIEW,2024-02-15T14:32:16.274000Z,2024-02-15T14:48:57.802000Z,,2024-02-15T14:48:58.430881Z,1002.0,CVPIIDEI,48,33,Female,Black,United States,United States,United States,English,No,Full-Time,Not Applicable
