PROLIFIC_PID,Question,qns_options,quest_num,answer,answer_num,question_load_timestamp,next_btn_timestamp,text_selected,final_text_selected,option_num_selected,preview_timestamps,final_text_selected_time_stamp,rt_first_option_click,rt_final_option_click,rt_submit_click,questionnaire,trial_type,trial_index,time_elapsed,internal_node_id,Demographic_Submission id,Demographic_Status,Demographic_Started at,Demographic_Completed at,Demographic_Reviewed at,Demographic_Archived at,Demographic_Time taken,Demographic_Completion code,Demographic_Total approvals,Demographic_Age,Demographic_Sex,Demographic_Ethnicity simplified,Demographic_Country of birth,Demographic_Country of residence,Demographic_Nationality,Demographic_Language,Demographic_Student status,Demographic_Employment status,Demographic_Custom study tncs accepted at
5cd8a78e0f0de600018e782f,<b>Knowing what?s true and knowing what to do about it are usually basically the same.,Highly disagree,1/94,Somewhat disagree,2,1708008035178,1708008048097,\Somewhat disagree\,\Somewhat disagree\,\2\,1708008046641,1708008046641,11463,11463,12919,buq,qns-item-noham,1,34811,0.0-1.0-0.0,65ce20889b5f597492d243dc,AWAITING REVIEW,2024-02-15T14:34:41.713000Z,2024-02-15T15:05:13.306000Z,,2024-02-15T15:05:13.883077Z,1832.0,CVPIIDEI,3443,33,Male,Other,United States,United States,United States,English,No,DATA_EXPIRED,Not Applicable
5cd8a78e0f0de600018e782f,<b>Most people just believe whatever is convenient for them.,Highly disagree,2/94,Somewhat agree,3,1708008048099,1708008179656,\Somewhat agree\,\Somewhat agree\,\3\,1708008178816,1708008178816,130717,130717,131557,buq,qns-item-noham,2,166369,0.0-1.0-0.1,65ce20889b5f597492d243dc,AWAITING REVIEW,2024-02-15T14:34:41.713000Z,2024-02-15T15:05:13.306000Z,,2024-02-15T15:05:13.883077Z,1832.0,CVPIIDEI,3443,33,Male,Other,United States,United States,United States,English,No,DATA_EXPIRED,Not Applicable
5cd8a78e0f0de600018e782f,<b>Having some big beliefs helps me sort out minor ones.,Highly disagree,3/94,Somewhat disagree,2,1708008179659,1708008184065,\Somewhat disagree\,\Somewhat disagree\,\2\,1708008183465,1708008183465,3806,3806,4406,buq,qns-item-noham,3,170778,0.0-1.0-0.2,65ce20889b5f597492d243dc,AWAITING REVIEW,2024-02-15T14:34:41.713000Z,2024-02-15T15:05:13.306000Z,,2024-02-15T15:05:13.883077Z,1832.0,CVPIIDEI,3443,33,Male,Other,United States,United States,United States,English,No,DATA_EXPIRED,Not Applicable
5cd8a78e0f0de600018e782f,<b>Political questions are usually pretty complicated.,Highly disagree,4/94,Somewhat disagree,2,1708008184066,1708008187553,\Somewhat agree\,\Somewhat disagree\,\3\,1708008186130,1708008187065,2064,2999,3487,buq,qns-item-noham,4,174266,0.0-1.0-0.3,65ce20889b5f597492d243dc,AWAITING REVIEW,2024-02-15T14:34:41.713000Z,2024-02-15T15:05:13.306000Z,,2024-02-15T15:05:13.883077Z,1832.0,CVPIIDEI,3443,33,Male,Other,United States,United States,United States,English,No,DATA_EXPIRED,Not Applicable
5cd8a78e0f0de600018e782f,<b>Figuring out what?s important in life requires learning a lot of facts.,Highly disagree,5/94,Somewhat agree,3,1708008187554,1708008193026,\Somewhat agree\,\Somewhat agree\,\3\,1708008191242,1708008191242,3688,3688,5472,buq,qns-item-noham,5,179739,0.0-1.0-0.4,65ce20889b5f597492d243dc,AWAITING REVIEW,2024-02-15T14:34:41.713000Z,2024-02-15T15:05:13.306000Z,,2024-02-15T15:05:13.883077Z,1832.0,CVPIIDEI,3443,33,Male,Other,United States,United States,United States,English,No,DATA_EXPIRED,Not Applicable
5cd8a78e0f0de600018e782f,<b>It is difficult for me to remember the last time I was surprised by politics.,Highly disagree,6/94,Somewhat agree,3,1708008193027,1708008280681,\Somewhat agree\,\Somewhat agree\,\3\,1708008280056,1708008280056,87029,87029,87654,buq,qns-item-noham,6,267394,0.0-1.0-0.5,65ce20889b5f597492d243dc,AWAITING REVIEW,2024-02-15T14:34:41.713000Z,2024-02-15T15:05:13.306000Z,,2024-02-15T15:05:13.883077Z,1832.0,CVPIIDEI,3443,33,Male,Other,United States,United States,United States,English,No,DATA_EXPIRED,Not Applicable
5cd8a78e0f0de600018e782f,<b>People?s false beliefs are understandable.,Highly disagree,7/94,Somewhat disagree,2,1708008280682,1708008285009,\Somewhat disagree\,\Somewhat disagree\,\2\,1708008283874,1708008283874,3192,3192,4327,buq,qns-item-noham,7,271722,0.0-1.0-0.6,65ce20889b5f597492d243dc,AWAITING REVIEW,2024-02-15T14:34:41.713000Z,2024-02-15T15:05:13.306000Z,,2024-02-15T15:05:13.883077Z,1832.0,CVPIIDEI,3443,33,Male,Other,United States,United States,United States,English,No,DATA_EXPIRED,Not Applicable
5cd8a78e0f0de600018e782f,<b>I spend a lot of time trying to be informed about politics.,Highly disagree,8/94,Somewhat disagree,2,1708008285011,1708008287834,\Somewhat disagree\,\Somewhat disagree\,\2\,1708008287266,1708008287266,2255,2255,2823,buq,qns-item-noham,8,274547,0.0-1.0-0.7,65ce20889b5f597492d243dc,AWAITING REVIEW,2024-02-15T14:34:41.713000Z,2024-02-15T15:05:13.306000Z,,2024-02-15T15:05:13.883077Z,1832.0,CVPIIDEI,3443,33,Male,Other,United States,United States,United States,English,No,DATA_EXPIRED,Not Applicable
5cd8a78e0f0de600018e782f,<b>I think a lot about whether my beliefs are right.,Highly disagree,9/94,Somewhat agree,3,1708008287835,1708008290586,\Somewhat agree\,\Somewhat agree\,\3\,1708008290195,1708008290195,2360,2360,2751,buq,qns-item-noham,9,277299,0.0-1.0-0.8,65ce20889b5f597492d243dc,AWAITING REVIEW,2024-02-15T14:34:41.713000Z,2024-02-15T15:05:13.306000Z,,2024-02-15T15:05:13.883077Z,1832.0,CVPIIDEI,3443,33,Male,Other,United States,United States,United States,English,No,DATA_EXPIRED,Not Applicable
5cd8a78e0f0de600018e782f,<b>Statistics can be pretty misleading sometimes.,Highly disagree,10/94,Somewhat agree,3,1708008290588,1708008293883,\Somewhat agree\,\Somewhat agree\,\3\,1708008293123,1708008293123,2535,2535,3295,buq,qns-item-noham,10,280596,0.0-1.0-0.9,65ce20889b5f597492d243dc,AWAITING REVIEW,2024-02-15T14:34:41.713000Z,2024-02-15T15:05:13.306000Z,,2024-02-15T15:05:13.883077Z,1832.0,CVPIIDEI,3443,33,Male,Other,United States,United States,United States,English,No,DATA_EXPIRED,Not Applicable
5cd8a78e0f0de600018e782f,<b>I have lots of beliefs that I?m only sort of sure about.,Highly disagree,11/94,Somewhat agree,3,1708008293884,1708008297412,\Somewhat agree\,\Somewhat agree\,\3\,1708008296819,1708008296819,2935,2935,3528,buq,qns-item-noham,11,284125,0.0-1.0-0.10,65ce20889b5f597492d243dc,AWAITING REVIEW,2024-02-15T14:34:41.713000Z,2024-02-15T15:05:13.306000Z,,2024-02-15T15:05:13.883077Z,1832.0,CVPIIDEI,3443,33,Male,Other,United States,United States,United States,English,No,DATA_EXPIRED,Not Applicable
5cd8a78e0f0de600018e782f,"<b>If I go to my favorite restaurant and the food is surprisingly bad, it reminds me there are many disappointments in life.",Highly disagree,12/94,Somewhat agree,3,1708008297413,1708008302356,\Somewhat agree\,\Somewhat agree\,\3\,1708008301772,1708008301772,4359,4359,4943,buq,qns-item-noham,12,289069,0.0-1.0-0.11,65ce20889b5f597492d243dc,AWAITING REVIEW,2024-02-15T14:34:41.713000Z,2024-02-15T15:05:13.306000Z,,2024-02-15T15:05:13.883077Z,1832.0,CVPIIDEI,3443,33,Male,Other,United States,United States,United States,English,No,DATA_EXPIRED,Not Applicable
5cd8a78e0f0de600018e782f,"<b>If you are paying attention, please select ?Somewhat agree?",Highly disagree,13/94,Somewhat agree,3,1708008302357,1708008305237,\Somewhat agree\,\Somewhat agree\,\3\,1708008303932,1708008303932,1575,1575,2880,buq,qns-item-noham,13,291950,0.0-1.0-0.12,65ce20889b5f597492d243dc,AWAITING REVIEW,2024-02-15T14:34:41.713000Z,2024-02-15T15:05:13.306000Z,,2024-02-15T15:05:13.883077Z,1832.0,CVPIIDEI,3443,33,Male,Other,United States,United States,United States,English,No,DATA_EXPIRED,Not Applicable
5cd8a78e0f0de600018e782f,"<b>When I talk to others, I often worry I?ll convince them of something I didn?t mean to.",Highly disagree,14/94,Somewhat disagree,2,1708008305238,1708008312791,\Somewhat disagree\,\Somewhat disagree\,\2\,1708008310630,1708008312030,5392,6792,7553,buq,qns-item-noham,14,299504,0.0-1.0-0.13,65ce20889b5f597492d243dc,AWAITING REVIEW,2024-02-15T14:34:41.713000Z,2024-02-15T15:05:13.306000Z,,2024-02-15T15:05:13.883077Z,1832.0,CVPIIDEI,3443,33,Male,Other,United States,United States,United States,English,No,DATA_EXPIRED,Not Applicable
5cd8a78e0f0de600018e782f,<b>I would need to learn something utterly shocking about my party in order to change my political views.,Highly disagree,15/94,Highly agree,4,1708008312792,1708008347573,\Somewhat agree\,\Highly agree\,\3\,1708008345764,1708008346356,32972,33564,34781,buq,qns-item-noham,15,334286,0.0-1.0-0.14,65ce20889b5f597492d243dc,AWAITING REVIEW,2024-02-15T14:34:41.713000Z,2024-02-15T15:05:13.306000Z,,2024-02-15T15:05:13.883077Z,1832.0,CVPIIDEI,3443,33,Male,Other,United States,United States,United States,English,No,DATA_EXPIRED,Not Applicable
5cd8a78e0f0de600018e782f,"<b>When I have new experiences, I tend to think of them as unique.",Highly disagree,16/94,Somewhat disagree,2,1708008347574,1708008354173,\Somewhat disagree\,\Somewhat disagree\,\2\,1708008352957,1708008352957,5383,5383,6599,buq,qns-item-noham,16,340886,0.0-1.0-0.15,65ce20889b5f597492d243dc,AWAITING REVIEW,2024-02-15T14:34:41.713000Z,2024-02-15T15:05:13.306000Z,,2024-02-15T15:05:13.883077Z,1832.0,CVPIIDEI,3443,33,Male,Other,United States,United States,United States,English,No,DATA_EXPIRED,Not Applicable
5cd8a78e0f0de600018e782f,<b>I change my mind about specific policies pretty frequently.,Highly disagree,17/94,Highly disagree,1,1708008354175,1708008359302,\Somewhat disagree\,\Highly disagree\,\2\,1708008357814,1708008358542,3639,4367,5127,buq,qns-item-noham,17,346015,0.0-1.0-0.16,65ce20889b5f597492d243dc,AWAITING REVIEW,2024-02-15T14:34:41.713000Z,2024-02-15T15:05:13.306000Z,,2024-02-15T15:05:13.883077Z,1832.0,CVPIIDEI,3443,33,Male,Other,United States,United States,United States,English,No,DATA_EXPIRED,Not Applicable
5cd8a78e0f0de600018e782f,"<b>If a politician in my political party supports something I disagree with, I give them the benefit of the doubt, as such issues often involve hidden complexities that aren?t obvious.   ",Highly disagree,18/94,Somewhat agree,3,1708008359303,1708008367624,\Somewhat agree\,\Somewhat agree\,\3\,1708008366896,1708008366896,7593,7593,8321,buq,qns-item-noham,18,354337,0.0-1.0-0.17,65ce20889b5f597492d243dc,AWAITING REVIEW,2024-02-15T14:34:41.713000Z,2024-02-15T15:05:13.306000Z,,2024-02-15T15:05:13.883077Z,1832.0,CVPIIDEI,3443,33,Male,Other,United States,United States,United States,English,No,DATA_EXPIRED,Not Applicable
5cd8a78e0f0de600018e782f,<b>People?s bad politics are usually motivated by hatefulness.,Highly disagree,19/94,Somewhat agree,3,1708008367625,1708008375603,\Somewhat agree\,\Somewhat agree\,\3\,1708008371744,1708008371744,4119,4119,7978,buq,qns-item-noham,19,362316,0.0-1.0-0.18,65ce20889b5f597492d243dc,AWAITING REVIEW,2024-02-15T14:34:41.713000Z,2024-02-15T15:05:13.306000Z,,2024-02-15T15:05:13.883077Z,1832.0,CVPIIDEI,3443,33,Male,Other,United States,United States,United States,English,No,DATA_EXPIRED,Not Applicable
5cd8a78e0f0de600018e782f,<b>I think a lot about how to reconcile my beliefs with one another.,Highly disagree,20/94,Somewhat disagree,2,1708008375603,1708008381242,\Somewhat disagree\,\Somewhat disagree\,\2\,1708008380546,1708008380546,4943,4943,5639,buq,qns-item-noham,20,367955,0.0-1.0-0.19,65ce20889b5f597492d243dc,AWAITING REVIEW,2024-02-15T14:34:41.713000Z,2024-02-15T15:05:13.306000Z,,2024-02-15T15:05:13.883077Z,1832.0,CVPIIDEI,3443,33,Male,Other,United States,United States,United States,English,No,DATA_EXPIRED,Not Applicable
5cd8a78e0f0de600018e782f,<b>I might have false beliefs about important topics.,Highly disagree,21/94,Somewhat agree,3,1708008381244,1708008443156,\Somewhat agree\,\Somewhat agree\,\3\,1708008441500,1708008441500,60256,60256,61912,buq,qns-item-noham,21,429869,0.0-1.0-0.20,65ce20889b5f597492d243dc,AWAITING REVIEW,2024-02-15T14:34:41.713000Z,2024-02-15T15:05:13.306000Z,,2024-02-15T15:05:13.883077Z,1832.0,CVPIIDEI,3443,33,Male,Other,United States,United States,United States,English,No,DATA_EXPIRED,Not Applicable
5cd8a78e0f0de600018e782f,"<b>If a good friend of mine does something unexpected that upsets me, I feel like I don?t know them anymore.",Highly disagree,22/94,Somewhat agree,3,1708008443157,1708008447805,\Somewhat agree\,\Somewhat agree\,\3\,1708008447229,1708008447229,4072,4072,4648,buq,qns-item-noham,22,434518,0.0-1.0-0.21,65ce20889b5f597492d243dc,AWAITING REVIEW,2024-02-15T14:34:41.713000Z,2024-02-15T15:05:13.306000Z,,2024-02-15T15:05:13.883077Z,1832.0,CVPIIDEI,3443,33,Male,Other,United States,United States,United States,English,No,DATA_EXPIRED,Not Applicable
5cd8a78e0f0de600018e782f,<b>Other people?s beliefs are often incoherent.,Highly disagree,23/94,Somewhat agree,3,1708008447806,1708008450670,\Somewhat agree\,\Somewhat agree\,\3\,1708008450293,1708008450293,2487,2487,2864,buq,qns-item-noham,23,437383,0.0-1.0-0.22,65ce20889b5f597492d243dc,AWAITING REVIEW,2024-02-15T14:34:41.713000Z,2024-02-15T15:05:13.306000Z,,2024-02-15T15:05:13.883077Z,1832.0,CVPIIDEI,3443,33,Male,Other,United States,United States,United States,English,No,DATA_EXPIRED,Not Applicable
5cd8a78e0f0de600018e782f,"<b>Every now and then, a new experience will unsettle beliefs I?ve had for a while.",Highly disagree,24/94,Somewhat agree,3,1708008450671,1708008454742,\Somewhat agree\,\Somewhat agree\,\3\,1708008453078,1708008453078,2407,2407,4071,buq,qns-item-noham,24,441455,0.0-1.0-0.23,65ce20889b5f597492d243dc,AWAITING REVIEW,2024-02-15T14:34:41.713000Z,2024-02-15T15:05:13.306000Z,,2024-02-15T15:05:13.883077Z,1832.0,CVPIIDEI,3443,33,Male,Other,United States,United States,United States,English,No,DATA_EXPIRED,Not Applicable
5cd8a78e0f0de600018e782f,<b>Some policies I agree with in principle are so bad I don?t support them. ,Highly disagree,25/94,Somewhat disagree,2,1708008454743,1708008462848,\Somewhat agree\,\Somewhat disagree\,\3\,1708008459352,1708008460487,4609,5744,8105,buq,qns-item-noham,25,449561,0.0-1.0-0.24,65ce20889b5f597492d243dc,AWAITING REVIEW,2024-02-15T14:34:41.713000Z,2024-02-15T15:05:13.306000Z,,2024-02-15T15:05:13.883077Z,1832.0,CVPIIDEI,3443,33,Male,Other,United States,United States,United States,English,No,DATA_EXPIRED,Not Applicable
5cd8a78e0f0de600018e782f,<b>I?m pretty sure I?ve accidentally spread false information.,Highly disagree,26/94,Somewhat agree,3,1708008462849,1708008487164,\Somewhat agree\,\Somewhat agree\,\3\,1708008486516,1708008486516,23667,23667,24315,buq,qns-item-noham,26,473877,0.0-1.0-0.25,65ce20889b5f597492d243dc,AWAITING REVIEW,2024-02-15T14:34:41.713000Z,2024-02-15T15:05:13.306000Z,,2024-02-15T15:05:13.883077Z,1832.0,CVPIIDEI,3443,33,Male,Other,United States,United States,United States,English,No,DATA_EXPIRED,Not Applicable
5cd8a78e0f0de600018e782f,"<b>If I go to my favorite restaurant and the food is unexpectedly bad, then they have changed owners.",Highly disagree,27/94,Somewhat disagree,2,1708008487165,1708008491749,\Somewhat disagree\,\Somewhat disagree\,\2\,1708008491221,1708008491221,4056,4056,4584,buq,qns-item-noham,27,478462,0.0-1.0-0.26,65ce20889b5f597492d243dc,AWAITING REVIEW,2024-02-15T14:34:41.713000Z,2024-02-15T15:05:13.306000Z,,2024-02-15T15:05:13.883077Z,1832.0,CVPIIDEI,3443,33,Male,Other,United States,United States,United States,English,No,DATA_EXPIRED,Not Applicable
5cd8a78e0f0de600018e782f,"<b>In politics, it?s important to trust your friends and family.",Highly disagree,28/94,Somewhat disagree,2,1708008491750,1708008499542,\Somewhat disagree\,\Somewhat disagree\,\2\,1708008498702,1708008498702,6952,6952,7792,buq,qns-item-noham,28,486255,0.0-1.0-0.27,65ce20889b5f597492d243dc,AWAITING REVIEW,2024-02-15T14:34:41.713000Z,2024-02-15T15:05:13.306000Z,,2024-02-15T15:05:13.883077Z,1832.0,CVPIIDEI,3443,33,Male,Other,United States,United States,United States,English,No,DATA_EXPIRED,Not Applicable
5cd8a78e0f0de600018e782f,<b>It?s OK to have some conflicting beliefs.,Highly disagree,29/94,Somewhat agree,3,1708008499543,1708008502007,\Somewhat agree\,\Somewhat agree\,\3\,1708008501022,1708008501022,1479,1479,2464,buq,qns-item-noham,29,488720,0.0-1.0-0.28,65ce20889b5f597492d243dc,AWAITING REVIEW,2024-02-15T14:34:41.713000Z,2024-02-15T15:05:13.306000Z,,2024-02-15T15:05:13.883077Z,1832.0,CVPIIDEI,3443,33,Male,Other,United States,United States,United States,English,No,DATA_EXPIRED,Not Applicable
5cd8a78e0f0de600018e782f,<b>Listening to people I disagree with makes my opinions better.,Highly disagree,30/94,Somewhat disagree,2,1708008502008,1708008510792,\Somewhat disagree\,\Somewhat disagree\,\2\,1708008508112,1708008508112,6104,6104,8784,buq,qns-item-noham,30,497505,0.0-1.0-0.29,65ce20889b5f597492d243dc,AWAITING REVIEW,2024-02-15T14:34:41.713000Z,2024-02-15T15:05:13.306000Z,,2024-02-15T15:05:13.883077Z,1832.0,CVPIIDEI,3443,33,Male,Other,United States,United States,United States,English,No,DATA_EXPIRED,Not Applicable
5cd8a78e0f0de600018e782f,<b>My moral compass sometimes makes it harder to determine what?s true.,Highly disagree,31/94,Somewhat agree,3,1708008510793,1708008514129,\Somewhat agree\,\Somewhat agree\,\3\,1708008513617,1708008513617,2824,2824,3336,buq,qns-item-noham,31,500842,0.0-1.0-0.30,65ce20889b5f597492d243dc,AWAITING REVIEW,2024-02-15T14:34:41.713000Z,2024-02-15T15:05:13.306000Z,,2024-02-15T15:05:13.883077Z,1832.0,CVPIIDEI,3443,33,Male,Other,United States,United States,United States,English,No,DATA_EXPIRED,Not Applicable
5cd8a78e0f0de600018e782f,<b>Evidence pointing in the wrong direction isn?t really evidence at all.,Highly disagree,32/94,Somewhat disagree,2,1708008514130,1708008517633,\Somewhat disagree\,\Somewhat disagree\,\2\,1708008517169,1708008517169,3039,3039,3503,buq,qns-item-noham,32,504346,0.0-1.0-0.31,65ce20889b5f597492d243dc,AWAITING REVIEW,2024-02-15T14:34:41.713000Z,2024-02-15T15:05:13.306000Z,,2024-02-15T15:05:13.883077Z,1832.0,CVPIIDEI,3443,33,Male,Other,United States,United States,United States,English,No,DATA_EXPIRED,Not Applicable
5cd8a78e0f0de600018e782f,"<b>If the political party I support messes up, it makes me think politics is rotten.",Highly disagree,33/94,Somewhat disagree,2,1708008517635,1708008554847,\Somewhat disagree\,\Somewhat disagree\,\2\,1708008554263,1708008554263,36628,36628,37212,buq,qns-item-noham,33,541560,0.0-1.0-0.32,65ce20889b5f597492d243dc,AWAITING REVIEW,2024-02-15T14:34:41.713000Z,2024-02-15T15:05:13.306000Z,,2024-02-15T15:05:13.883077Z,1832.0,CVPIIDEI,3443,33,Male,Other,United States,United States,United States,English,No,DATA_EXPIRED,Not Applicable
5cd8a78e0f0de600018e782f,<b>Lots of important topics can only really be understood by some groups of people.,Highly disagree,34/94,Somewhat agree,3,1708008554848,1708008562104,\Somewhat agree\,\Somewhat agree\,\3\,1708008561032,1708008561032,6184,6184,7256,buq,qns-item-noham,34,548817,0.0-1.0-0.33,65ce20889b5f597492d243dc,AWAITING REVIEW,2024-02-15T14:34:41.713000Z,2024-02-15T15:05:13.306000Z,,2024-02-15T15:05:13.883077Z,1832.0,CVPIIDEI,3443,33,Male,Other,United States,United States,United States,English,No,DATA_EXPIRED,Not Applicable
5cd8a78e0f0de600018e782f,<b>Having conflicting beliefs means you haven?t thought about them enough.,Highly disagree,35/94,Highly disagree,1,1708008562106,1708008575747,\Somewhat disagree\,\Highly disagree\,\2\,1708008573354,1708008575091,11248,12985,13641,buq,qns-item-noham,35,562460,0.0-1.0-0.34,65ce20889b5f597492d243dc,AWAITING REVIEW,2024-02-15T14:34:41.713000Z,2024-02-15T15:05:13.306000Z,,2024-02-15T15:05:13.883077Z,1832.0,CVPIIDEI,3443,33,Male,Other,United States,United States,United States,English,No,DATA_EXPIRED,Not Applicable
5cd8a78e0f0de600018e782f,<b>I do not often change my political opinions.,Highly disagree,36/94,Somewhat agree,3,1708008575748,1708008578859,\Somewhat agree\,\Somewhat agree\,\3\,1708008578291,1708008578291,2543,2543,3111,buq,qns-item-noham,36,565572,0.0-1.0-0.35,65ce20889b5f597492d243dc,AWAITING REVIEW,2024-02-15T14:34:41.713000Z,2024-02-15T15:05:13.306000Z,,2024-02-15T15:05:13.883077Z,1832.0,CVPIIDEI,3443,33,Male,Other,United States,United States,United States,English,No,DATA_EXPIRED,Not Applicable
5cd8a78e0f0de600018e782f,<b>It?s difficult to not have at least some conflicting beliefs.,Highly disagree,37/94,Somewhat agree,3,1708008578861,1708008583133,\Somewhat agree\,\Somewhat agree\,\3\,1708008581829,1708008581829,2968,2968,4272,buq,qns-item-noham,37,569846,0.0-1.0-0.36,65ce20889b5f597492d243dc,AWAITING REVIEW,2024-02-15T14:34:41.713000Z,2024-02-15T15:05:13.306000Z,,2024-02-15T15:05:13.883077Z,1832.0,CVPIIDEI,3443,33,Male,Other,United States,United States,United States,English,No,DATA_EXPIRED,Not Applicable
5cd8a78e0f0de600018e782f,<b>Wishful thinking causes a lot of problems.,Highly disagree,38/94,Somewhat disagree,2,1708008583134,1708008586493,\Somewhat disagree\,\Somewhat disagree\,\2\,1708008585805,1708008585805,2671,2671,3359,buq,qns-item-noham,38,573206,0.0-1.0-0.37,65ce20889b5f597492d243dc,AWAITING REVIEW,2024-02-15T14:34:41.713000Z,2024-02-15T15:05:13.306000Z,,2024-02-15T15:05:13.883077Z,1832.0,CVPIIDEI,3443,33,Male,Other,United States,United States,United States,English,No,DATA_EXPIRED,Not Applicable
5cd8a78e0f0de600018e782f,<b>I judge a food item only once I try it many times.,Highly disagree,39/94,Somewhat agree,3,1708008586494,1708008593926,\Somewhat agree\,\Somewhat agree\,\3\,1708008592543,1708008592543,6049,6049,7432,buq,qns-item-noham,39,580639,0.0-1.0-0.38,65ce20889b5f597492d243dc,AWAITING REVIEW,2024-02-15T14:34:41.713000Z,2024-02-15T15:05:13.306000Z,,2024-02-15T15:05:13.883077Z,1832.0,CVPIIDEI,3443,33,Male,Other,United States,United States,United States,English,No,DATA_EXPIRED,Not Applicable
5cd8a78e0f0de600018e782f,"<b>When a person holds conflicting beliefs, they should really try to figure out what?s wrong.",Highly disagree,40/94,Somewhat agree,3,1708008593927,1708008682061,\Somewhat agree\,\Somewhat agree\,\3\,1708008681341,1708008681341,87414,87414,88134,buq,qns-item-noham,40,668774,0.0-1.0-0.39,65ce20889b5f597492d243dc,AWAITING REVIEW,2024-02-15T14:34:41.713000Z,2024-02-15T15:05:13.306000Z,,2024-02-15T15:05:13.883077Z,1832.0,CVPIIDEI,3443,33,Male,Other,United States,United States,United States,English,No,DATA_EXPIRED,Not Applicable
5cd8a78e0f0de600018e782f,<b>Knowing what?s important in life is easy.,Highly disagree,41/94,Somewhat disagree,2,1708008682062,1708008685061,\Somewhat disagree\,\Somewhat disagree\,\2\,1708008684630,1708008684630,2568,2568,2999,buq,qns-item-noham,41,671774,0.0-1.0-0.40,65ce20889b5f597492d243dc,AWAITING REVIEW,2024-02-15T14:34:41.713000Z,2024-02-15T15:05:13.306000Z,,2024-02-15T15:05:13.883077Z,1832.0,CVPIIDEI,3443,33,Male,Other,United States,United States,United States,English,No,DATA_EXPIRED,Not Applicable
5cd8a78e0f0de600018e782f,<b>I swim across the Atlantic Ocean to get to work every day.,Highly disagree,42/94,Highly disagree,1,1708008685063,1708008687958,\Highly disagree\,\Highly disagree\,\1\,1708008686918,1708008686918,1855,1855,2895,buq,qns-item-noham,42,674671,0.0-1.0-0.41,65ce20889b5f597492d243dc,AWAITING REVIEW,2024-02-15T14:34:41.713000Z,2024-02-15T15:05:13.306000Z,,2024-02-15T15:05:13.883077Z,1832.0,CVPIIDEI,3443,33,Male,Other,United States,United States,United States,English,No,DATA_EXPIRED,Not Applicable
5cd8a78e0f0de600018e782f,"<b>Sometimes, you just have to ignore evidence that you know is wrong.",Highly disagree,43/94,Somewhat disagree,2,1708008687959,1708008694080,\Somewhat disagree\,\Somewhat disagree\,\2\,1708008691142,1708008691142,3183,3183,6121,buq,qns-item-noham,43,680793,0.0-1.0-0.42,65ce20889b5f597492d243dc,AWAITING REVIEW,2024-02-15T14:34:41.713000Z,2024-02-15T15:05:13.306000Z,,2024-02-15T15:05:13.883077Z,1832.0,CVPIIDEI,3443,33,Male,Other,United States,United States,United States,English,No,DATA_EXPIRED,Not Applicable
5cd8a78e0f0de600018e782f,<b>I have had some false beliefs.,Highly disagree,44/94,Somewhat agree,3,1708008694081,1708008696407,\Somewhat agree\,\Somewhat agree\,\3\,1708008695847,1708008695847,1766,1766,2326,buq,qns-item-noham,44,683120,0.0-1.0-0.43,65ce20889b5f597492d243dc,AWAITING REVIEW,2024-02-15T14:34:41.713000Z,2024-02-15T15:05:13.306000Z,,2024-02-15T15:05:13.883077Z,1832.0,CVPIIDEI,3443,33,Male,Other,United States,United States,United States,English,No,DATA_EXPIRED,Not Applicable
5cd8a78e0f0de600018e782f,"<b>If one friend does something that upsets me, I sometimes start to distrust people in general.",Highly disagree,45/94,Somewhat agree,3,1708008696408,1708008702352,\Somewhat agree\,\Somewhat agree\,\3\,1708008700160,1708008700160,3752,3752,5944,buq,qns-item-noham,45,689065,0.0-1.0-0.44,65ce20889b5f597492d243dc,AWAITING REVIEW,2024-02-15T14:34:41.713000Z,2024-02-15T15:05:13.306000Z,,2024-02-15T15:05:13.883077Z,1832.0,CVPIIDEI,3443,33,Male,Other,United States,United States,United States,English,No,DATA_EXPIRED,Not Applicable
5cd8a78e0f0de600018e782f,<b>The facts about most important matters are easy to find.,Highly disagree,46/94,Somewhat agree,3,1708008702353,1708008780638,\Somewhat disagree\,\Somewhat agree\,\2\,1708008778126,1708008780086,75773,77733,78285,buq,qns-item-noham,46,767351,0.0-1.0-0.45,65ce20889b5f597492d243dc,AWAITING REVIEW,2024-02-15T14:34:41.713000Z,2024-02-15T15:05:13.306000Z,,2024-02-15T15:05:13.883077Z,1832.0,CVPIIDEI,3443,33,Male,Other,United States,United States,United States,English,No,DATA_EXPIRED,Not Applicable
5cd8a78e0f0de600018e782f,<b>It?s better to know what?s true than to know what?s moral.,Highly disagree,47/94,Somewhat agree,3,1708008780639,1708008808475,\Somewhat agree\,\Somewhat agree\,\3\,1708008807634,1708008807634,26995,26995,27836,buq,qns-item-noham,47,795188,0.0-1.0-0.46,65ce20889b5f597492d243dc,AWAITING REVIEW,2024-02-15T14:34:41.713000Z,2024-02-15T15:05:13.306000Z,,2024-02-15T15:05:13.883077Z,1832.0,CVPIIDEI,3443,33,Male,Other,United States,United States,United States,English,No,DATA_EXPIRED,Not Applicable
5cd8a78e0f0de600018e782f,<b>I used to think the world was less complicated than I do now.,Highly disagree,48/94,Somewhat agree,3,1708008808476,1708008817804,\Somewhat agree\,\Somewhat agree\,\3\,1708008812100,1708008812100,3624,3624,9328,buq,qns-item-noham,48,804517,0.0-1.0-0.47,65ce20889b5f597492d243dc,AWAITING REVIEW,2024-02-15T14:34:41.713000Z,2024-02-15T15:05:13.306000Z,,2024-02-15T15:05:13.883077Z,1832.0,CVPIIDEI,3443,33,Male,Other,United States,United States,United States,English,No,DATA_EXPIRED,Not Applicable
5cd8a78e0f0de600018e782f,<b>People are usually completely right or completely wrong.,Highly disagree,49/94,Somewhat disagree,2,1708008817805,1708008820469,\Somewhat disagree\,\Somewhat disagree\,\2\,1708008819948,1708008819948,2143,2143,2664,buq,qns-item-noham,49,807182,0.0-1.0-0.48,65ce20889b5f597492d243dc,AWAITING REVIEW,2024-02-15T14:34:41.713000Z,2024-02-15T15:05:13.306000Z,,2024-02-15T15:05:13.883077Z,1832.0,CVPIIDEI,3443,33,Male,Other,United States,United States,United States,English,No,DATA_EXPIRED,Not Applicable
5cd8a78e0f0de600018e782f,<b>I spend a lot of time considering alternatives to my beliefs.,Highly disagree,50/94,Somewhat agree,3,1708008820470,1708008824093,\Somewhat agree\,\Somewhat agree\,\3\,1708008823181,1708008823181,2711,2711,3623,buq,qns-item-noham,50,810806,0.0-1.0-0.49,65ce20889b5f597492d243dc,AWAITING REVIEW,2024-02-15T14:34:41.713000Z,2024-02-15T15:05:13.306000Z,,2024-02-15T15:05:13.883077Z,1832.0,CVPIIDEI,3443,33,Male,Other,United States,United States,United States,English,No,DATA_EXPIRED,Not Applicable
5cd8a78e0f0de600018e782f,"<b>Political enemies need to be defeated, not convinced.",Highly disagree,51/94,Somewhat disagree,2,1708008824094,1708008827358,\Somewhat disagree\,\Somewhat disagree\,\2\,1708008826854,1708008826854,2760,2760,3264,buq,qns-item-noham,51,814071,0.0-1.0-0.50,65ce20889b5f597492d243dc,AWAITING REVIEW,2024-02-15T14:34:41.713000Z,2024-02-15T15:05:13.306000Z,,2024-02-15T15:05:13.883077Z,1832.0,CVPIIDEI,3443,33,Male,Other,United States,United States,United States,English,No,DATA_EXPIRED,Not Applicable
5cd8a78e0f0de600018e782f,<b>I form my political views only after meticulously gathering historical and present information about their policies.,Highly disagree,52/94,Somewhat disagree,2,1708008827359,1708008927287,\Somewhat disagree\,\Somewhat disagree\,\2\,1708008925415,1708008925415,98056,98056,99928,buq,qns-item-noham,52,914000,0.0-1.0-0.51,65ce20889b5f597492d243dc,AWAITING REVIEW,2024-02-15T14:34:41.713000Z,2024-02-15T15:05:13.306000Z,,2024-02-15T15:05:13.883077Z,1832.0,CVPIIDEI,3443,33,Male,Other,United States,United States,United States,English,No,DATA_EXPIRED,Not Applicable
5cd8a78e0f0de600018e782f,<b>It is difficult for me to remember the last time I was surprised by politics.,Highly disagree,53/94,Somewhat agree,3,1708008927288,1708008933520,\Somewhat agree\,\Somewhat agree\,\3\,1708008930359,1708008930359,3071,3071,6232,buq,qns-item-noham,53,920233,0.0-1.0-0.52,65ce20889b5f597492d243dc,AWAITING REVIEW,2024-02-15T14:34:41.713000Z,2024-02-15T15:05:13.306000Z,,2024-02-15T15:05:13.883077Z,1832.0,CVPIIDEI,3443,33,Male,Other,United States,United States,United States,English,No,DATA_EXPIRED,Not Applicable
5cd8a78e0f0de600018e782f,"<b>When I find out I?m wrong, I think a lot about my related beliefs.",Highly disagree,54/94,Somewhat disagree,2,1708008933521,1708009016886,\Somewhat disagree\,\Somewhat disagree\,\2\,1708009016382,1708009016382,82861,82861,83365,buq,qns-item-noham,54,1003599,0.0-1.0-0.53,65ce20889b5f597492d243dc,AWAITING REVIEW,2024-02-15T14:34:41.713000Z,2024-02-15T15:05:13.306000Z,,2024-02-15T15:05:13.883077Z,1832.0,CVPIIDEI,3443,33,Male,Other,United States,United States,United States,English,No,DATA_EXPIRED,Not Applicable
5cd8a78e0f0de600018e782f,"<b>If the political party I support messes up, it makes me think you can?t trust anyone these days",Highly disagree,55/94,Somewhat agree,3,1708009016887,1708009022455,\Somewhat disagree\,\Somewhat agree\,\2\,1708009020302,1708009020783,3415,3896,5568,buq,qns-item-noham,55,1009168,0.0-1.0-0.54,65ce20889b5f597492d243dc,AWAITING REVIEW,2024-02-15T14:34:41.713000Z,2024-02-15T15:05:13.306000Z,,2024-02-15T15:05:13.883077Z,1832.0,CVPIIDEI,3443,33,Male,Other,United States,United States,United States,English,No,DATA_EXPIRED,Not Applicable
5cd8a78e0f0de600018e782f,<b>People?s brains turn off when they talk about politics.,Highly disagree,56/94,Somewhat agree,3,1708009022456,1708009025847,\Somewhat agree\,\Somewhat agree\,\3\,1708009025455,1708009025455,2999,2999,3391,buq,qns-item-noham,56,1012560,0.0-1.0-0.55,65ce20889b5f597492d243dc,AWAITING REVIEW,2024-02-15T14:34:41.713000Z,2024-02-15T15:05:13.306000Z,,2024-02-15T15:05:13.883077Z,1832.0,CVPIIDEI,3443,33,Male,Other,United States,United States,United States,English,No,DATA_EXPIRED,Not Applicable
5cd8a78e0f0de600018e782f,<b>People who are wrong are usually just ignoring the obvious.,Highly disagree,57/94,Somewhat agree,3,1708009025849,1708009028736,\Somewhat agree\,\Somewhat agree\,\3\,1708009028288,1708009028288,2439,2439,2887,buq,qns-item-noham,57,1015449,0.0-1.0-0.56,65ce20889b5f597492d243dc,AWAITING REVIEW,2024-02-15T14:34:41.713000Z,2024-02-15T15:05:13.306000Z,,2024-02-15T15:05:13.883077Z,1832.0,CVPIIDEI,3443,33,Male,Other,United States,United States,United States,English,No,DATA_EXPIRED,Not Applicable
5cd8a78e0f0de600018e782f,"<b>When forming my views on people, I rely more on what they are like now rather than rely on my past experience with them.",Highly disagree,58/94,Somewhat disagree,2,1708009028737,1708009035729,\Somewhat disagree\,\Somewhat disagree\,\2\,1708009035209,1708009035209,6472,6472,6992,buq,qns-item-noham,58,1022442,0.0-1.0-0.57,65ce20889b5f597492d243dc,AWAITING REVIEW,2024-02-15T14:34:41.713000Z,2024-02-15T15:05:13.306000Z,,2024-02-15T15:05:13.883077Z,1832.0,CVPIIDEI,3443,33,Male,Other,United States,United States,United States,English,No,DATA_EXPIRED,Not Applicable
5cd8a78e0f0de600018e782f,"<b>When people contradict my beliefs, I usually know about their evidence already.",Highly disagree,59/94,Somewhat disagree,2,1708009035730,1708009059205,\Somewhat disagree\,\Somewhat disagree\,\2\,1708009058453,1708009058453,22723,22723,23475,buq,qns-item-noham,59,1045918,0.0-1.0-0.58,65ce20889b5f597492d243dc,AWAITING REVIEW,2024-02-15T14:34:41.713000Z,2024-02-15T15:05:13.306000Z,,2024-02-15T15:05:13.883077Z,1832.0,CVPIIDEI,3443,33,Male,Other,United States,United States,United States,English,No,DATA_EXPIRED,Not Applicable
5cd8a78e0f0de600018e782f,<b>Figuring out what?s true and what?s false mainly requires a strong moral compass.,Highly disagree,60/94,Somewhat disagree,2,1708009059206,1708009065167,\Somewhat agree\,\Somewhat disagree\,\3\,1708009063358,1708009064622,4152,5416,5961,buq,qns-item-noham,60,1051880,0.0-1.0-0.59,65ce20889b5f597492d243dc,AWAITING REVIEW,2024-02-15T14:34:41.713000Z,2024-02-15T15:05:13.306000Z,,2024-02-15T15:05:13.883077Z,1832.0,CVPIIDEI,3443,33,Male,Other,United States,United States,United States,English,No,DATA_EXPIRED,Not Applicable
5cd8a78e0f0de600018e782f,"<b>Usually I?m wrong about simple things, not complicated ones.",Highly disagree,61/94,Somewhat disagree,2,1708009065168,1708009069631,\Somewhat disagree\,\Somewhat disagree\,\2\,1708009069072,1708009069072,3904,3904,4463,buq,qns-item-noham,61,1056344,0.0-1.0-0.60,65ce20889b5f597492d243dc,AWAITING REVIEW,2024-02-15T14:34:41.713000Z,2024-02-15T15:05:13.306000Z,,2024-02-15T15:05:13.883077Z,1832.0,CVPIIDEI,3443,33,Male,Other,United States,United States,United States,English,No,DATA_EXPIRED,Not Applicable
5cd8a78e0f0de600018e782f,<b>Getting all the information I want about important things is hard.,Highly disagree,62/94,Somewhat agree,3,1708009069632,1708009076000,\Somewhat agree\,\Somewhat agree\,\3\,1708009075328,1708009075328,5696,5696,6368,buq,qns-item-noham,62,1062713,0.0-1.0-0.61,65ce20889b5f597492d243dc,AWAITING REVIEW,2024-02-15T14:34:41.713000Z,2024-02-15T15:05:13.306000Z,,2024-02-15T15:05:13.883077Z,1832.0,CVPIIDEI,3443,33,Male,Other,United States,United States,United States,English,No,DATA_EXPIRED,Not Applicable
5cd8a78e0f0de600018e782f,<b>Most false beliefs spread because people try to deceive one another.,Highly disagree,63/94,Somewhat agree,3,1708009076002,1708009179442,\Somewhat agree\,\Somewhat agree\,\3\,1708009176498,1708009176498,100496,100496,103440,buq,qns-item-noham,63,1166155,0.0-1.0-0.62,65ce20889b5f597492d243dc,AWAITING REVIEW,2024-02-15T14:34:41.713000Z,2024-02-15T15:05:13.306000Z,,2024-02-15T15:05:13.883077Z,1832.0,CVPIIDEI,3443,33,Male,Other,United States,United States,United States,English,No,DATA_EXPIRED,Not Applicable
5cd8a78e0f0de600018e782f,<b>I can usually find something to agree with in most people?s beliefs.,Highly disagree,64/94,Somewhat disagree,2,1708009179443,1708009182450,\Somewhat disagree\,\Somewhat disagree\,\2\,1708009181938,1708009181938,2495,2495,3007,buq,qns-item-noham,64,1169163,0.0-1.0-0.63,65ce20889b5f597492d243dc,AWAITING REVIEW,2024-02-15T14:34:41.713000Z,2024-02-15T15:05:13.306000Z,,2024-02-15T15:05:13.883077Z,1832.0,CVPIIDEI,3443,33,Male,Other,United States,United States,United States,English,No,DATA_EXPIRED,Not Applicable
5cd8a78e0f0de600018e782f,<b>I only form my views of people once I get to know them very well.,Highly disagree,65/94,Somewhat disagree,2,1708009182451,1708009242581,\Somewhat disagree\,\Somewhat disagree\,\2\,1708009195965,1708009195965,13514,13514,60130,buq,qns-item-noham,65,1229294,0.0-1.0-0.64,65ce20889b5f597492d243dc,AWAITING REVIEW,2024-02-15T14:34:41.713000Z,2024-02-15T15:05:13.306000Z,,2024-02-15T15:05:13.883077Z,1832.0,CVPIIDEI,3443,33,Male,Other,United States,United States,United States,English,No,DATA_EXPIRED,Not Applicable
5cd8a78e0f0de600018e782f,"<b>When people tell me important things about the world, I usually believe them.",Highly disagree,66/94,Somewhat disagree,2,1708009242582,1708009247686,\Somewhat agree\,\Somewhat disagree\,\3\,1708009245534,1708009246710,2952,4128,5104,buq,qns-item-noham,66,1234399,0.0-1.0-0.65,65ce20889b5f597492d243dc,AWAITING REVIEW,2024-02-15T14:34:41.713000Z,2024-02-15T15:05:13.306000Z,,2024-02-15T15:05:13.883077Z,1832.0,CVPIIDEI,3443,33,Male,Other,United States,United States,United States,English,No,DATA_EXPIRED,Not Applicable
5cd8a78e0f0de600018e782f,"<b>If a friend does something that upsets me, it reminds me what an unpredictable place the world is.",Highly disagree,67/94,Somewhat agree,3,1708009247687,1708009252230,\Somewhat agree\,\Somewhat agree\,\3\,1708009251094,1708009251094,3407,3407,4543,buq,qns-item-noham,67,1238943,0.0-1.0-0.66,65ce20889b5f597492d243dc,AWAITING REVIEW,2024-02-15T14:34:41.713000Z,2024-02-15T15:05:13.306000Z,,2024-02-15T15:05:13.883077Z,1832.0,CVPIIDEI,3443,33,Male,Other,United States,United States,United States,English,No,DATA_EXPIRED,Not Applicable
5cd8a78e0f0de600018e782f,<b>People tend to believe whatever is good for their friends.,Highly disagree,68/94,Somewhat disagree,2,1708009252231,1708009257559,\Somewhat disagree\,\Somewhat disagree\,\2\,1708009256296,1708009256296,4065,4065,5328,buq,qns-item-noham,68,1244272,0.0-1.0-0.67,65ce20889b5f597492d243dc,AWAITING REVIEW,2024-02-15T14:34:41.713000Z,2024-02-15T15:05:13.306000Z,,2024-02-15T15:05:13.883077Z,1832.0,CVPIIDEI,3443,33,Male,Other,United States,United States,United States,English,No,DATA_EXPIRED,Not Applicable
5cd8a78e0f0de600018e782f,<b>I used to be more certain my beliefs were true.,Highly disagree,69/94,Somewhat agree,3,1708009257560,1708009260768,\Somewhat agree\,\Somewhat agree\,\3\,1708009260248,1708009260248,2688,2688,3208,buq,qns-item-noham,69,1247481,0.0-1.0-0.68,65ce20889b5f597492d243dc,AWAITING REVIEW,2024-02-15T14:34:41.713000Z,2024-02-15T15:05:13.306000Z,,2024-02-15T15:05:13.883077Z,1832.0,CVPIIDEI,3443,33,Male,Other,United States,United States,United States,English,No,DATA_EXPIRED,Not Applicable
5cd8a78e0f0de600018e782f,<b>It?s often pretty easy to figure out whether something is true based on who said it.,Highly disagree,70/94,Somewhat agree,3,1708009260769,1708009265113,\Somewhat disagree\,\Somewhat agree\,\2\,1708009263712,1708009264601,2943,3832,4344,buq,qns-item-noham,70,1251826,0.0-1.0-0.69,65ce20889b5f597492d243dc,AWAITING REVIEW,2024-02-15T14:34:41.713000Z,2024-02-15T15:05:13.306000Z,,2024-02-15T15:05:13.883077Z,1832.0,CVPIIDEI,3443,33,Male,Other,United States,United States,United States,English,No,DATA_EXPIRED,Not Applicable
5cd8a78e0f0de600018e782f,<b>I transform into a hummingbird every day.,Highly disagree,71/94,Highly disagree,1,1708009265114,1708009268345,\Highly disagree\,\Highly disagree\,\1\,1708009267289,1708009267289,2175,2175,3231,buq,qns-item-noham,71,1255058,0.0-1.0-0.70,65ce20889b5f597492d243dc,AWAITING REVIEW,2024-02-15T14:34:41.713000Z,2024-02-15T15:05:13.306000Z,,2024-02-15T15:05:13.883077Z,1832.0,CVPIIDEI,3443,33,Male,Other,United States,United States,United States,English,No,DATA_EXPIRED,Not Applicable
5cd8a78e0f0de600018e782f,<b>I think a lot about arguments against my views.,Highly disagree,72/94,Somewhat agree,3,1708009268346,1708009271970,\Somewhat agree\,\Somewhat agree\,\3\,1708009271378,1708009271378,3032,3032,3624,buq,qns-item-noham,72,1258683,0.0-1.0-0.71,65ce20889b5f597492d243dc,AWAITING REVIEW,2024-02-15T14:34:41.713000Z,2024-02-15T15:05:13.306000Z,,2024-02-15T15:05:13.883077Z,1832.0,CVPIIDEI,3443,33,Male,Other,United States,United States,United States,English,No,DATA_EXPIRED,Not Applicable
5cd8a78e0f0de600018e782f,<b>Personal experience is usually more important than facts and figures.,Highly disagree,73/94,Somewhat disagree,2,1708009271971,1708009277243,\Somewhat disagree\,\Somewhat disagree\,\2\,1708009276626,1708009276626,4655,4655,5272,buq,qns-item-noham,73,1263956,0.0-1.0-0.72,65ce20889b5f597492d243dc,AWAITING REVIEW,2024-02-15T14:34:41.713000Z,2024-02-15T15:05:13.306000Z,,2024-02-15T15:05:13.883077Z,1832.0,CVPIIDEI,3443,33,Male,Other,United States,United States,United States,English,No,DATA_EXPIRED,Not Applicable
5cd8a78e0f0de600018e782f,<b>I?ve been tricked before about important matters.,Highly disagree,74/94,Somewhat agree,3,1708009277244,1708009279923,\Somewhat agree\,\Somewhat agree\,\3\,1708009279347,1708009279347,2103,2103,2679,buq,qns-item-noham,74,1266636,0.0-1.0-0.73,65ce20889b5f597492d243dc,AWAITING REVIEW,2024-02-15T14:34:41.713000Z,2024-02-15T15:05:13.306000Z,,2024-02-15T15:05:13.883077Z,1832.0,CVPIIDEI,3443,33,Male,Other,United States,United States,United States,English,No,DATA_EXPIRED,Not Applicable
5cd8a78e0f0de600018e782f,<b>I would need to be totally wowed if I were to change my opinion of a restaurant I don?t like.,Highly disagree,75/94,Somewhat agree,3,1708009279924,1708009286764,\Somewhat agree\,\Somewhat agree\,\3\,1708009285781,1708009285781,5857,5857,6840,buq,qns-item-noham,75,1273477,0.0-1.0-0.74,65ce20889b5f597492d243dc,AWAITING REVIEW,2024-02-15T14:34:41.713000Z,2024-02-15T15:05:13.306000Z,,2024-02-15T15:05:13.883077Z,1832.0,CVPIIDEI,3443,33,Male,Other,United States,United States,United States,English,No,DATA_EXPIRED,Not Applicable
5cd8a78e0f0de600018e782f,<b>I care a lot about politics.,Highly disagree,76/94,Somewhat disagree,2,1708009286765,1708009288709,\Somewhat disagree\,\Somewhat disagree\,\2\,1708009288205,1708009288205,1440,1440,1944,buq,qns-item-noham,76,1275422,0.0-1.0-0.75,65ce20889b5f597492d243dc,AWAITING REVIEW,2024-02-15T14:34:41.713000Z,2024-02-15T15:05:13.306000Z,,2024-02-15T15:05:13.883077Z,1832.0,CVPIIDEI,3443,33,Male,Other,United States,United States,United States,English,No,DATA_EXPIRED,Not Applicable
5cd8a78e0f0de600018e782f,<b>There are some topics I?ve been really wrong about.,Highly disagree,77/94,Somewhat agree,3,1708009288710,1708009290877,\Somewhat agree\,\Somewhat agree\,\3\,1708009290445,1708009290445,1735,1735,2167,buq,qns-item-noham,77,1277590,0.0-1.0-0.76,65ce20889b5f597492d243dc,AWAITING REVIEW,2024-02-15T14:34:41.713000Z,2024-02-15T15:05:13.306000Z,,2024-02-15T15:05:13.883077Z,1832.0,CVPIIDEI,3443,33,Male,Other,United States,United States,United States,English,No,DATA_EXPIRED,Not Applicable
5cd8a78e0f0de600018e782f,<b>Most beliefs can be supported with at least some evidence.,Highly disagree,78/94,Somewhat agree,3,1708009290878,1708009294190,\Somewhat agree\,\Somewhat agree\,\3\,1708009293349,1708009293349,2471,2471,3312,buq,qns-item-noham,78,1280903,0.0-1.0-0.77,65ce20889b5f597492d243dc,AWAITING REVIEW,2024-02-15T14:34:41.713000Z,2024-02-15T15:05:13.306000Z,,2024-02-15T15:05:13.883077Z,1832.0,CVPIIDEI,3443,33,Male,Other,United States,United States,United States,English,No,DATA_EXPIRED,Not Applicable
5cd8a78e0f0de600018e782f,<b>Other people make life out to be more complicated than it really is.,Highly disagree,79/94,Somewhat disagree,2,1708009294191,1708009297734,\Somewhat agree\,\Somewhat disagree\,\3\,1708009296814,1708009297342,2623,3151,3543,buq,qns-item-noham,79,1284447,0.0-1.0-0.78,65ce20889b5f597492d243dc,AWAITING REVIEW,2024-02-15T14:34:41.713000Z,2024-02-15T15:05:13.306000Z,,2024-02-15T15:05:13.883077Z,1832.0,CVPIIDEI,3443,33,Male,Other,United States,United States,United States,English,No,DATA_EXPIRED,Not Applicable
5cd8a78e0f0de600018e782f,"<b>Policy details don?t matter much, just the big picture.",Highly disagree,80/94,Somewhat agree,3,1708009297735,1708009306272,\Somewhat agree\,\Somewhat agree\,\3\,1708009305071,1708009305071,7336,7336,8537,buq,qns-item-noham,80,1292985,0.0-1.0-0.79,65ce20889b5f597492d243dc,AWAITING REVIEW,2024-02-15T14:34:41.713000Z,2024-02-15T15:05:13.306000Z,,2024-02-15T15:05:13.883077Z,1832.0,CVPIIDEI,3443,33,Male,Other,United States,United States,United States,English,No,DATA_EXPIRED,Not Applicable
5cd8a78e0f0de600018e782f,<b>I know my friends so well they can hardly ever surprise me.,Highly disagree,81/94,Somewhat disagree,2,1708009306273,1708009309736,\Somewhat disagree\,\Somewhat disagree\,\2\,1708009309336,1708009309336,3063,3063,3463,buq,qns-item-noham,81,1296449,0.0-1.0-0.80,65ce20889b5f597492d243dc,AWAITING REVIEW,2024-02-15T14:34:41.713000Z,2024-02-15T15:05:13.306000Z,,2024-02-15T15:05:13.883077Z,1832.0,CVPIIDEI,3443,33,Male,Other,United States,United States,United States,English,No,DATA_EXPIRED,Not Applicable
5cd8a78e0f0de600018e782f,<b>I do not often change my views on people.,Highly disagree,82/94,Somewhat agree,3,1708009309737,1708009313137,\Somewhat agree\,\Somewhat agree\,\3\,1708009312337,1708009312633,2600,2896,3400,buq,qns-item-noham,82,1299850,0.0-1.0-0.81,65ce20889b5f597492d243dc,AWAITING REVIEW,2024-02-15T14:34:41.713000Z,2024-02-15T15:05:13.306000Z,,2024-02-15T15:05:13.883077Z,1832.0,CVPIIDEI,3443,33,Male,Other,United States,United States,United States,English,No,DATA_EXPIRED,Not Applicable
5cd8a78e0f0de600018e782f,<b>I?m more certain about my beliefs than I used to be.,Highly disagree,83/94,Somewhat disagree,2,1708009313138,1708009384749,\Somewhat agree\,\Somewhat disagree\,\3\,1708009383420,1708009384285,70282,71147,71611,buq,qns-item-noham,83,1371462,0.0-1.0-0.82,65ce20889b5f597492d243dc,AWAITING REVIEW,2024-02-15T14:34:41.713000Z,2024-02-15T15:05:13.306000Z,,2024-02-15T15:05:13.883077Z,1832.0,CVPIIDEI,3443,33,Male,Other,United States,United States,United States,English,No,DATA_EXPIRED,Not Applicable
5cd8a78e0f0de600018e782f,<b>People often tell falsehoods unintentionally.,Highly disagree,84/94,Somewhat agree,3,1708009384750,1708009388037,\Somewhat agree\,\Somewhat agree\,\3\,1708009386429,1708009386429,1679,1679,3287,buq,qns-item-noham,84,1374750,0.0-1.0-0.83,65ce20889b5f597492d243dc,AWAITING REVIEW,2024-02-15T14:34:41.713000Z,2024-02-15T15:05:13.306000Z,,2024-02-15T15:05:13.883077Z,1832.0,CVPIIDEI,3443,33,Male,Other,United States,United States,United States,English,No,DATA_EXPIRED,Not Applicable
5cd8a78e0f0de600018e782f,<b>Most people don?t know much about most things.,Highly disagree,85/94,Somewhat agree,3,1708009388038,1708009390270,\Somewhat agree\,\Somewhat agree\,\3\,1708009389901,1708009389901,1863,1863,2232,buq,qns-item-noham,85,1376983,0.0-1.0-0.84,65ce20889b5f597492d243dc,AWAITING REVIEW,2024-02-15T14:34:41.713000Z,2024-02-15T15:05:13.306000Z,,2024-02-15T15:05:13.883077Z,1832.0,CVPIIDEI,3443,33,Male,Other,United States,United States,United States,English,No,DATA_EXPIRED,Not Applicable
5cd8a78e0f0de600018e782f,"<b>If I find out something new about someone, I easily change my views about them.",Highly disagree,86/94,Somewhat agree,3,1708009390271,1708009394174,\Somewhat agree\,\Somewhat agree\,\3\,1708009393278,1708009393278,3007,3007,3903,buq,qns-item-noham,86,1380887,0.0-1.0-0.85,65ce20889b5f597492d243dc,AWAITING REVIEW,2024-02-15T14:34:41.713000Z,2024-02-15T15:05:13.306000Z,,2024-02-15T15:05:13.883077Z,1832.0,CVPIIDEI,3443,33,Male,Other,United States,United States,United States,English,No,DATA_EXPIRED,Not Applicable
5cd8a78e0f0de600018e782f,<b>Having true beliefs is difficult.,Highly disagree,87/94,Somewhat agree,3,1708009394175,1708009397015,\Somewhat agree\,\Somewhat agree\,\3\,1708009395966,1708009395966,1791,1791,2840,buq,qns-item-noham,87,1383728,0.0-1.0-0.86,65ce20889b5f597492d243dc,AWAITING REVIEW,2024-02-15T14:34:41.713000Z,2024-02-15T15:05:13.306000Z,,2024-02-15T15:05:13.883077Z,1832.0,CVPIIDEI,3443,33,Male,Other,United States,United States,United States,English,No,DATA_EXPIRED,Not Applicable
5cd8a78e0f0de600018e782f,<b>I don?t try new foods since I know I won?t like them.,Highly disagree,88/94,Highly disagree,1,1708009397016,1708009401408,\Somewhat disagree\,\Highly disagree\,\2\,1708009399407,1708009400623,2391,3607,4392,buq,qns-item-noham,88,1388121,0.0-1.0-0.87,65ce20889b5f597492d243dc,AWAITING REVIEW,2024-02-15T14:34:41.713000Z,2024-02-15T15:05:13.306000Z,,2024-02-15T15:05:13.883077Z,1832.0,CVPIIDEI,3443,33,Male,Other,United States,United States,United States,English,No,DATA_EXPIRED,Not Applicable
5cd8a78e0f0de600018e782f,<b>Other people trick each other a lot.,Highly disagree,89/94,Somewhat agree,3,1708009401409,1708009403376,\Somewhat agree\,\Somewhat agree\,\3\,1708009402968,1708009402968,1559,1559,1967,buq,qns-item-noham,89,1390089,0.0-1.0-0.88,65ce20889b5f597492d243dc,AWAITING REVIEW,2024-02-15T14:34:41.713000Z,2024-02-15T15:05:13.306000Z,,2024-02-15T15:05:13.883077Z,1832.0,CVPIIDEI,3443,33,Male,Other,United States,United States,United States,English,No,DATA_EXPIRED,Not Applicable
5cd8a78e0f0de600018e782f,<b>I would need to learn a lot about a person for my opinion of them to be swayed.,Highly disagree,90/94,Somewhat agree,3,1708009403377,1708009408281,\Somewhat agree\,\Somewhat agree\,\3\,1708009407905,1708009407905,4528,4528,4904,buq,qns-item-noham,90,1394994,0.0-1.0-0.89,65ce20889b5f597492d243dc,AWAITING REVIEW,2024-02-15T14:34:41.713000Z,2024-02-15T15:05:13.306000Z,,2024-02-15T15:05:13.883077Z,1832.0,CVPIIDEI,3443,33,Male,Other,United States,United States,United States,English,No,DATA_EXPIRED,Not Applicable
5cd8a78e0f0de600018e782f,<b>People can?t usually trick me when it comes to topics I care about.,Highly disagree,91/94,Somewhat agree,3,1708009408282,1708009413170,\Somewhat agree\,\Somewhat agree\,\3\,1708009411794,1708009411794,3512,3512,4888,buq,qns-item-noham,91,1399883,0.0-1.0-0.90,65ce20889b5f597492d243dc,AWAITING REVIEW,2024-02-15T14:34:41.713000Z,2024-02-15T15:05:13.306000Z,,2024-02-15T15:05:13.883077Z,1832.0,CVPIIDEI,3443,33,Male,Other,United States,United States,United States,English,No,DATA_EXPIRED,Not Applicable
5cd8a78e0f0de600018e782f,<b>I do not often change my views on food.,Highly disagree,92/94,Highly disagree,1,1708009413171,1708009415554,\Highly disagree\,\Highly disagree\,\1\,1708009414994,1708009414994,1823,1823,2383,buq,qns-item-noham,92,1402267,0.0-1.0-0.91,65ce20889b5f597492d243dc,AWAITING REVIEW,2024-02-15T14:34:41.713000Z,2024-02-15T15:05:13.306000Z,,2024-02-15T15:05:13.883077Z,1832.0,CVPIIDEI,3443,33,Male,Other,United States,United States,United States,English,No,DATA_EXPIRED,Not Applicable
5cd8a78e0f0de600018e782f,<b>Specific policies are often very important to me.,Highly disagree,93/94,Somewhat agree,3,1708009415555,1708009418938,\Somewhat agree\,\Somewhat agree\,\3\,1708009418315,1708009418315,2760,2760,3383,buq,qns-item-noham,93,1405652,0.0-1.0-0.92,65ce20889b5f597492d243dc,AWAITING REVIEW,2024-02-15T14:34:41.713000Z,2024-02-15T15:05:13.306000Z,,2024-02-15T15:05:13.883077Z,1832.0,CVPIIDEI,3443,33,Male,Other,United States,United States,United States,English,No,DATA_EXPIRED,Not Applicable
5cd8a78e0f0de600018e782f,<b>Most people are woefully under-informed.,Highly disagree,94/94,Somewhat agree,3,1708009418940,1708009422604,\Somewhat agree\,\Somewhat agree\,\3\,1708009420483,1708009420483,1543,1543,3664,buq,qns-item-noham,94,1409317,0.0-1.0-0.93,65ce20889b5f597492d243dc,AWAITING REVIEW,2024-02-15T14:34:41.713000Z,2024-02-15T15:05:13.306000Z,,2024-02-15T15:05:13.883077Z,1832.0,CVPIIDEI,3443,33,Male,Other,United States,United States,United States,English,No,DATA_EXPIRED,Not Applicable
5cd8a78e0f0de600018e782f,,,,,,,,,,,,,,,,,,,,,65ce20889b5f597492d243dc,AWAITING REVIEW,2024-02-15T14:34:41.713000Z,2024-02-15T15:05:13.306000Z,,2024-02-15T15:05:13.883077Z,1832.0,CVPIIDEI,3443,33,Male,Other,United States,United States,United States,English,No,DATA_EXPIRED,Not Applicable
