PROLIFIC_PID,Question,qns_options,quest_num,answer,answer_num,question_load_timestamp,next_btn_timestamp,text_selected,final_text_selected,option_num_selected,preview_timestamps,final_text_selected_time_stamp,rt_first_option_click,rt_final_option_click,rt_submit_click,questionnaire,trial_type,trial_index,time_elapsed,internal_node_id,Demographic_Submission id,Demographic_Status,Demographic_Started at,Demographic_Completed at,Demographic_Reviewed at,Demographic_Archived at,Demographic_Time taken,Demographic_Completion code,Demographic_Total approvals,Demographic_Age,Demographic_Sex,Demographic_Ethnicity simplified,Demographic_Country of birth,Demographic_Country of residence,Demographic_Nationality,Demographic_Language,Demographic_Student status,Demographic_Employment status,Demographic_Custom study tncs accepted at
632e0fd7424f2848637d173f,<b>Knowing what?s true and knowing what to do about it are usually basically the same.,Highly disagree,1/94,Somewhat disagree,2,1708007578634,1708007592049,\Somewhat disagree\,\Somewhat disagree\,\2\,1708007591048,1708007591048,12414,12414,13415,buq,qns-item-noham,1,34518,0.0-1.0-0.0,65ce202f5407cc4cb6627879,AWAITING REVIEW,2024-02-15T14:32:10.783000Z,2024-02-15T14:43:58.979000Z,,2024-02-15T14:44:00.535733Z,709.0,CVPIIDEI,8,36,Female,White,DATA_EXPIRED,United States,United States,English,DATA_EXPIRED,DATA_EXPIRED,Not Applicable
632e0fd7424f2848637d173f,<b>Most people just believe whatever is convenient for them.,Highly disagree,2/94,Highly agree,4,1708007592052,1708007597936,\Highly agree\,\Highly agree\,\4\,1708007597056,1708007597056,5004,5004,5884,buq,qns-item-noham,2,40405,0.0-1.0-0.1,65ce202f5407cc4cb6627879,AWAITING REVIEW,2024-02-15T14:32:10.783000Z,2024-02-15T14:43:58.979000Z,,2024-02-15T14:44:00.535733Z,709.0,CVPIIDEI,8,36,Female,White,DATA_EXPIRED,United States,United States,English,DATA_EXPIRED,DATA_EXPIRED,Not Applicable
632e0fd7424f2848637d173f,<b>Having some big beliefs helps me sort out minor ones.,Highly disagree,3/94,Somewhat agree,3,1708007597938,1708007605193,\Somewhat agree\,\Somewhat agree\,\3\,1708007604424,1708007604424,6486,6486,7255,buq,qns-item-noham,3,47662,0.0-1.0-0.2,65ce202f5407cc4cb6627879,AWAITING REVIEW,2024-02-15T14:32:10.783000Z,2024-02-15T14:43:58.979000Z,,2024-02-15T14:44:00.535733Z,709.0,CVPIIDEI,8,36,Female,White,DATA_EXPIRED,United States,United States,English,DATA_EXPIRED,DATA_EXPIRED,Not Applicable
632e0fd7424f2848637d173f,<b>Political questions are usually pretty complicated.,Highly disagree,4/94,Highly agree,4,1708007605195,1708007609537,\Highly agree\,\Highly agree\,\4\,1708007608720,1708007608720,3525,3525,4342,buq,qns-item-noham,4,52006,0.0-1.0-0.3,65ce202f5407cc4cb6627879,AWAITING REVIEW,2024-02-15T14:32:10.783000Z,2024-02-15T14:43:58.979000Z,,2024-02-15T14:44:00.535733Z,709.0,CVPIIDEI,8,36,Female,White,DATA_EXPIRED,United States,United States,English,DATA_EXPIRED,DATA_EXPIRED,Not Applicable
632e0fd7424f2848637d173f,<b>Figuring out what?s important in life requires learning a lot of facts.,Highly disagree,5/94,Somewhat disagree,2,1708007609539,1708007617553,\Somewhat disagree\,\Somewhat disagree\,\2\,1708007616928,1708007616928,7389,7389,8014,buq,qns-item-noham,5,60022,0.0-1.0-0.4,65ce202f5407cc4cb6627879,AWAITING REVIEW,2024-02-15T14:32:10.783000Z,2024-02-15T14:43:58.979000Z,,2024-02-15T14:44:00.535733Z,709.0,CVPIIDEI,8,36,Female,White,DATA_EXPIRED,United States,United States,English,DATA_EXPIRED,DATA_EXPIRED,Not Applicable
632e0fd7424f2848637d173f,<b>It is difficult for me to remember the last time I was surprised by politics.,Highly disagree,6/94,Highly disagree,1,1708007617554,1708007623241,\Highly disagree\,\Highly disagree\,\1\,1708007622528,1708007622528,4974,4974,5687,buq,qns-item-noham,6,65710,0.0-1.0-0.5,65ce202f5407cc4cb6627879,AWAITING REVIEW,2024-02-15T14:32:10.783000Z,2024-02-15T14:43:58.979000Z,,2024-02-15T14:44:00.535733Z,709.0,CVPIIDEI,8,36,Female,White,DATA_EXPIRED,United States,United States,English,DATA_EXPIRED,DATA_EXPIRED,Not Applicable
632e0fd7424f2848637d173f,<b>People?s false beliefs are understandable.,Highly disagree,7/94,Somewhat agree,3,1708007623243,1708007628056,\Somewhat agree\,\Somewhat agree\,\3\,1708007627289,1708007627289,4046,4046,4813,buq,qns-item-noham,7,70526,0.0-1.0-0.6,65ce202f5407cc4cb6627879,AWAITING REVIEW,2024-02-15T14:32:10.783000Z,2024-02-15T14:43:58.979000Z,,2024-02-15T14:44:00.535733Z,709.0,CVPIIDEI,8,36,Female,White,DATA_EXPIRED,United States,United States,English,DATA_EXPIRED,DATA_EXPIRED,Not Applicable
632e0fd7424f2848637d173f,<b>I spend a lot of time trying to be informed about politics.,Highly disagree,8/94,Somewhat disagree,2,1708007628058,1708007633576,\Somewhat disagree\,\Somewhat disagree\,\2\,1708007632968,1708007632968,4910,4910,5518,buq,qns-item-noham,8,76045,0.0-1.0-0.7,65ce202f5407cc4cb6627879,AWAITING REVIEW,2024-02-15T14:32:10.783000Z,2024-02-15T14:43:58.979000Z,,2024-02-15T14:44:00.535733Z,709.0,CVPIIDEI,8,36,Female,White,DATA_EXPIRED,United States,United States,English,DATA_EXPIRED,DATA_EXPIRED,Not Applicable
632e0fd7424f2848637d173f,<b>I think a lot about whether my beliefs are right.,Highly disagree,9/94,Somewhat disagree,2,1708007633578,1708007639344,\Somewhat disagree\,\Somewhat disagree\,\2\,1708007638728,1708007638728,5150,5150,5766,buq,qns-item-noham,9,81813,0.0-1.0-0.8,65ce202f5407cc4cb6627879,AWAITING REVIEW,2024-02-15T14:32:10.783000Z,2024-02-15T14:43:58.979000Z,,2024-02-15T14:44:00.535733Z,709.0,CVPIIDEI,8,36,Female,White,DATA_EXPIRED,United States,United States,English,DATA_EXPIRED,DATA_EXPIRED,Not Applicable
632e0fd7424f2848637d173f,<b>Statistics can be pretty misleading sometimes.,Highly disagree,10/94,Highly agree,4,1708007639345,1708007643098,\Highly agree\,\Highly agree\,\4\,1708007642553,1708007642553,3208,3208,3753,buq,qns-item-noham,10,85567,0.0-1.0-0.9,65ce202f5407cc4cb6627879,AWAITING REVIEW,2024-02-15T14:32:10.783000Z,2024-02-15T14:43:58.979000Z,,2024-02-15T14:44:00.535733Z,709.0,CVPIIDEI,8,36,Female,White,DATA_EXPIRED,United States,United States,English,DATA_EXPIRED,DATA_EXPIRED,Not Applicable
632e0fd7424f2848637d173f,<b>I have lots of beliefs that I?m only sort of sure about.,Highly disagree,11/94,Somewhat agree,3,1708007643099,1708007648120,\Somewhat agree\,\Somewhat agree\,\3\,1708007647416,1708007647416,4317,4317,5021,buq,qns-item-noham,11,90589,0.0-1.0-0.10,65ce202f5407cc4cb6627879,AWAITING REVIEW,2024-02-15T14:32:10.783000Z,2024-02-15T14:43:58.979000Z,,2024-02-15T14:44:00.535733Z,709.0,CVPIIDEI,8,36,Female,White,DATA_EXPIRED,United States,United States,English,DATA_EXPIRED,DATA_EXPIRED,Not Applicable
632e0fd7424f2848637d173f,"<b>If I go to my favorite restaurant and the food is surprisingly bad, it reminds me there are many disappointments in life.",Highly disagree,12/94,Somewhat disagree,2,1708007648121,1708007657456,\Somewhat disagree\,\Somewhat disagree\,\2\,1708007656848,1708007656848,8727,8727,9335,buq,qns-item-noham,12,99925,0.0-1.0-0.11,65ce202f5407cc4cb6627879,AWAITING REVIEW,2024-02-15T14:32:10.783000Z,2024-02-15T14:43:58.979000Z,,2024-02-15T14:44:00.535733Z,709.0,CVPIIDEI,8,36,Female,White,DATA_EXPIRED,United States,United States,English,DATA_EXPIRED,DATA_EXPIRED,Not Applicable
632e0fd7424f2848637d173f,"<b>If you are paying attention, please select ?Somewhat agree?",Highly disagree,13/94,Somewhat agree,3,1708007657457,1708007662056,\Somewhat agree\,\Somewhat agree\,\3\,1708007660960,1708007660960,3503,3503,4599,buq,qns-item-noham,13,104525,0.0-1.0-0.12,65ce202f5407cc4cb6627879,AWAITING REVIEW,2024-02-15T14:32:10.783000Z,2024-02-15T14:43:58.979000Z,,2024-02-15T14:44:00.535733Z,709.0,CVPIIDEI,8,36,Female,White,DATA_EXPIRED,United States,United States,English,DATA_EXPIRED,DATA_EXPIRED,Not Applicable
632e0fd7424f2848637d173f,"<b>When I talk to others, I often worry I?ll convince them of something I didn?t mean to.",Highly disagree,14/94,Somewhat agree,3,1708007662057,1708007667888,\Somewhat agree\,\Somewhat agree\,\3\,1708007667176,1708007667176,5119,5119,5831,buq,qns-item-noham,14,110357,0.0-1.0-0.13,65ce202f5407cc4cb6627879,AWAITING REVIEW,2024-02-15T14:32:10.783000Z,2024-02-15T14:43:58.979000Z,,2024-02-15T14:44:00.535733Z,709.0,CVPIIDEI,8,36,Female,White,DATA_EXPIRED,United States,United States,English,DATA_EXPIRED,DATA_EXPIRED,Not Applicable
632e0fd7424f2848637d173f,<b>I would need to learn something utterly shocking about my party in order to change my political views.,Highly disagree,15/94,Somewhat disagree,2,1708007667889,1708007679528,\Somewhat agree\,\Somewhat disagree\,\3\,1708007676640,1708007678888,8751,10999,11639,buq,qns-item-noham,15,121997,0.0-1.0-0.14,65ce202f5407cc4cb6627879,AWAITING REVIEW,2024-02-15T14:32:10.783000Z,2024-02-15T14:43:58.979000Z,,2024-02-15T14:44:00.535733Z,709.0,CVPIIDEI,8,36,Female,White,DATA_EXPIRED,United States,United States,English,DATA_EXPIRED,DATA_EXPIRED,Not Applicable
632e0fd7424f2848637d173f,"<b>When I have new experiences, I tend to think of them as unique.",Highly disagree,16/94,Somewhat agree,3,1708007679529,1708007687056,\Somewhat agree\,\Somewhat agree\,\3\,1708007684552,1708007684552,5023,5023,7527,buq,qns-item-noham,16,129525,0.0-1.0-0.15,65ce202f5407cc4cb6627879,AWAITING REVIEW,2024-02-15T14:32:10.783000Z,2024-02-15T14:43:58.979000Z,,2024-02-15T14:44:00.535733Z,709.0,CVPIIDEI,8,36,Female,White,DATA_EXPIRED,United States,United States,English,DATA_EXPIRED,DATA_EXPIRED,Not Applicable
632e0fd7424f2848637d173f,<b>I change my mind about specific policies pretty frequently.,Highly disagree,17/94,Somewhat disagree,2,1708007687057,1708007692376,\Somewhat disagree\,\Somewhat disagree\,\2\,1708007691623,1708007691623,4566,4566,5319,buq,qns-item-noham,17,134845,0.0-1.0-0.16,65ce202f5407cc4cb6627879,AWAITING REVIEW,2024-02-15T14:32:10.783000Z,2024-02-15T14:43:58.979000Z,,2024-02-15T14:44:00.535733Z,709.0,CVPIIDEI,8,36,Female,White,DATA_EXPIRED,United States,United States,English,DATA_EXPIRED,DATA_EXPIRED,Not Applicable
632e0fd7424f2848637d173f,"<b>If a politician in my political party supports something I disagree with, I give them the benefit of the doubt, as such issues often involve hidden complexities that aren?t obvious.   ",Highly disagree,18/94,Somewhat agree,3,1708007692378,1708007706953,\Somewhat agree\,\Somewhat agree\,\3\,1708007706400,1708007706400,14022,14022,14575,buq,qns-item-noham,18,149422,0.0-1.0-0.17,65ce202f5407cc4cb6627879,AWAITING REVIEW,2024-02-15T14:32:10.783000Z,2024-02-15T14:43:58.979000Z,,2024-02-15T14:44:00.535733Z,709.0,CVPIIDEI,8,36,Female,White,DATA_EXPIRED,United States,United States,English,DATA_EXPIRED,DATA_EXPIRED,Not Applicable
632e0fd7424f2848637d173f,<b>People?s bad politics are usually motivated by hatefulness.,Highly disagree,19/94,Highly disagree,1,1708007706955,1708007711392,\Highly disagree\,\Highly disagree\,\1\,1708007710488,1708007710488,3533,3533,4437,buq,qns-item-noham,19,153861,0.0-1.0-0.18,65ce202f5407cc4cb6627879,AWAITING REVIEW,2024-02-15T14:32:10.783000Z,2024-02-15T14:43:58.979000Z,,2024-02-15T14:44:00.535733Z,709.0,CVPIIDEI,8,36,Female,White,DATA_EXPIRED,United States,United States,English,DATA_EXPIRED,DATA_EXPIRED,Not Applicable
632e0fd7424f2848637d173f,<b>I think a lot about how to reconcile my beliefs with one another.,Highly disagree,20/94,Somewhat agree,3,1708007711393,1708007717528,\Somewhat agree\,\Somewhat agree\,\3\,1708007716848,1708007716848,5455,5455,6135,buq,qns-item-noham,20,159997,0.0-1.0-0.19,65ce202f5407cc4cb6627879,AWAITING REVIEW,2024-02-15T14:32:10.783000Z,2024-02-15T14:43:58.979000Z,,2024-02-15T14:44:00.535733Z,709.0,CVPIIDEI,8,36,Female,White,DATA_EXPIRED,United States,United States,English,DATA_EXPIRED,DATA_EXPIRED,Not Applicable
632e0fd7424f2848637d173f,<b>I might have false beliefs about important topics.,Highly disagree,21/94,Somewhat agree,3,1708007717529,1708007721920,\Somewhat agree\,\Somewhat agree\,\3\,1708007721249,1708007721249,3720,3720,4391,buq,qns-item-noham,21,164389,0.0-1.0-0.20,65ce202f5407cc4cb6627879,AWAITING REVIEW,2024-02-15T14:32:10.783000Z,2024-02-15T14:43:58.979000Z,,2024-02-15T14:44:00.535733Z,709.0,CVPIIDEI,8,36,Female,White,DATA_EXPIRED,United States,United States,English,DATA_EXPIRED,DATA_EXPIRED,Not Applicable
632e0fd7424f2848637d173f,"<b>If a good friend of mine does something unexpected that upsets me, I feel like I don?t know them anymore.",Highly disagree,22/94,Highly agree,4,1708007721921,1708007730321,\Highly agree\,\Highly agree\,\4\,1708007729657,1708007729657,7736,7736,8400,buq,qns-item-noham,22,172790,0.0-1.0-0.21,65ce202f5407cc4cb6627879,AWAITING REVIEW,2024-02-15T14:32:10.783000Z,2024-02-15T14:43:58.979000Z,,2024-02-15T14:44:00.535733Z,709.0,CVPIIDEI,8,36,Female,White,DATA_EXPIRED,United States,United States,English,DATA_EXPIRED,DATA_EXPIRED,Not Applicable
632e0fd7424f2848637d173f,<b>Other people?s beliefs are often incoherent.,Highly disagree,23/94,Somewhat disagree,2,1708007730323,1708007735672,\Somewhat disagree\,\Somewhat disagree\,\2\,1708007735081,1708007735081,4758,4758,5349,buq,qns-item-noham,23,178141,0.0-1.0-0.22,65ce202f5407cc4cb6627879,AWAITING REVIEW,2024-02-15T14:32:10.783000Z,2024-02-15T14:43:58.979000Z,,2024-02-15T14:44:00.535733Z,709.0,CVPIIDEI,8,36,Female,White,DATA_EXPIRED,United States,United States,English,DATA_EXPIRED,DATA_EXPIRED,Not Applicable
632e0fd7424f2848637d173f,"<b>Every now and then, a new experience will unsettle beliefs I?ve had for a while.",Highly disagree,24/94,Somewhat agree,3,1708007735673,1708007740736,\Somewhat agree\,\Somewhat agree\,\3\,1708007740193,1708007740193,4520,4520,5063,buq,qns-item-noham,24,183205,0.0-1.0-0.23,65ce202f5407cc4cb6627879,AWAITING REVIEW,2024-02-15T14:32:10.783000Z,2024-02-15T14:43:58.979000Z,,2024-02-15T14:44:00.535733Z,709.0,CVPIIDEI,8,36,Female,White,DATA_EXPIRED,United States,United States,English,DATA_EXPIRED,DATA_EXPIRED,Not Applicable
632e0fd7424f2848637d173f,<b>Some policies I agree with in principle are so bad I don?t support them. ,Highly disagree,25/94,Highly disagree,1,1708007740738,1708007748321,\Highly disagree\,\Highly disagree\,\1\,1708007747688,1708007747688,6950,6950,7583,buq,qns-item-noham,25,190790,0.0-1.0-0.24,65ce202f5407cc4cb6627879,AWAITING REVIEW,2024-02-15T14:32:10.783000Z,2024-02-15T14:43:58.979000Z,,2024-02-15T14:44:00.535733Z,709.0,CVPIIDEI,8,36,Female,White,DATA_EXPIRED,United States,United States,English,DATA_EXPIRED,DATA_EXPIRED,Not Applicable
632e0fd7424f2848637d173f,<b>I?m pretty sure I?ve accidentally spread false information.,Highly disagree,26/94,Somewhat agree,3,1708007748322,1708007754344,\Somewhat agree\,\Somewhat agree\,\3\,1708007753777,1708007753777,5455,5455,6022,buq,qns-item-noham,26,196813,0.0-1.0-0.25,65ce202f5407cc4cb6627879,AWAITING REVIEW,2024-02-15T14:32:10.783000Z,2024-02-15T14:43:58.979000Z,,2024-02-15T14:44:00.535733Z,709.0,CVPIIDEI,8,36,Female,White,DATA_EXPIRED,United States,United States,English,DATA_EXPIRED,DATA_EXPIRED,Not Applicable
632e0fd7424f2848637d173f,"<b>If I go to my favorite restaurant and the food is unexpectedly bad, then they have changed owners.",Highly disagree,27/94,Highly disagree,1,1708007754346,1708007763594,\Highly disagree\,\Highly disagree\,\1\,1708007762752,1708007762752,8406,8406,9248,buq,qns-item-noham,27,206063,0.0-1.0-0.26,65ce202f5407cc4cb6627879,AWAITING REVIEW,2024-02-15T14:32:10.783000Z,2024-02-15T14:43:58.979000Z,,2024-02-15T14:44:00.535733Z,709.0,CVPIIDEI,8,36,Female,White,DATA_EXPIRED,United States,United States,English,DATA_EXPIRED,DATA_EXPIRED,Not Applicable
632e0fd7424f2848637d173f,"<b>In politics, it?s important to trust your friends and family.",Highly disagree,28/94,Somewhat disagree,2,1708007763596,1708007771641,\Somewhat disagree\,\Somewhat disagree\,\2\,1708007769768,1708007769768,6172,6172,8045,buq,qns-item-noham,28,214110,0.0-1.0-0.27,65ce202f5407cc4cb6627879,AWAITING REVIEW,2024-02-15T14:32:10.783000Z,2024-02-15T14:43:58.979000Z,,2024-02-15T14:44:00.535733Z,709.0,CVPIIDEI,8,36,Female,White,DATA_EXPIRED,United States,United States,English,DATA_EXPIRED,DATA_EXPIRED,Not Applicable
632e0fd7424f2848637d173f,<b>It?s OK to have some conflicting beliefs.,Highly disagree,29/94,Somewhat agree,3,1708007771642,1708007776937,\Highly agree\,\Somewhat agree\,\4\,1708007775048,1708007776296,3406,4654,5295,buq,qns-item-noham,29,219406,0.0-1.0-0.28,65ce202f5407cc4cb6627879,AWAITING REVIEW,2024-02-15T14:32:10.783000Z,2024-02-15T14:43:58.979000Z,,2024-02-15T14:44:00.535733Z,709.0,CVPIIDEI,8,36,Female,White,DATA_EXPIRED,United States,United States,English,DATA_EXPIRED,DATA_EXPIRED,Not Applicable
632e0fd7424f2848637d173f,<b>Listening to people I disagree with makes my opinions better.,Highly disagree,30/94,Highly agree,4,1708007776938,1708007781856,\Highly agree\,\Highly agree\,\4\,1708007781360,1708007781360,4422,4422,4918,buq,qns-item-noham,30,224326,0.0-1.0-0.29,65ce202f5407cc4cb6627879,AWAITING REVIEW,2024-02-15T14:32:10.783000Z,2024-02-15T14:43:58.979000Z,,2024-02-15T14:44:00.535733Z,709.0,CVPIIDEI,8,36,Female,White,DATA_EXPIRED,United States,United States,English,DATA_EXPIRED,DATA_EXPIRED,Not Applicable
632e0fd7424f2848637d173f,<b>My moral compass sometimes makes it harder to determine what?s true.,Highly disagree,31/94,Somewhat disagree,2,1708007781858,1708007789904,\Somewhat disagree\,\Somewhat disagree\,\2\,1708007787935,1708007787935,6077,6077,8046,buq,qns-item-noham,31,232373,0.0-1.0-0.30,65ce202f5407cc4cb6627879,AWAITING REVIEW,2024-02-15T14:32:10.783000Z,2024-02-15T14:43:58.979000Z,,2024-02-15T14:44:00.535733Z,709.0,CVPIIDEI,8,36,Female,White,DATA_EXPIRED,United States,United States,English,DATA_EXPIRED,DATA_EXPIRED,Not Applicable
632e0fd7424f2848637d173f,<b>Evidence pointing in the wrong direction isn?t really evidence at all.,Highly disagree,32/94,Highly disagree,1,1708007789905,1708007798009,\Highly disagree\,\Highly disagree\,\1\,1708007797320,1708007797320,7415,7415,8104,buq,qns-item-noham,32,240478,0.0-1.0-0.31,65ce202f5407cc4cb6627879,AWAITING REVIEW,2024-02-15T14:32:10.783000Z,2024-02-15T14:43:58.979000Z,,2024-02-15T14:44:00.535733Z,709.0,CVPIIDEI,8,36,Female,White,DATA_EXPIRED,United States,United States,English,DATA_EXPIRED,DATA_EXPIRED,Not Applicable
632e0fd7424f2848637d173f,"<b>If the political party I support messes up, it makes me think politics is rotten.",Highly disagree,33/94,Somewhat disagree,2,1708007798010,1708007812591,\Somewhat disagree\,\Somewhat disagree\,\2\,1708007811368,1708007811368,13358,13358,14581,buq,qns-item-noham,33,255060,0.0-1.0-0.32,65ce202f5407cc4cb6627879,AWAITING REVIEW,2024-02-15T14:32:10.783000Z,2024-02-15T14:43:58.979000Z,,2024-02-15T14:44:00.535733Z,709.0,CVPIIDEI,8,36,Female,White,DATA_EXPIRED,United States,United States,English,DATA_EXPIRED,DATA_EXPIRED,Not Applicable
632e0fd7424f2848637d173f,<b>Lots of important topics can only really be understood by some groups of people.,Highly disagree,34/94,Somewhat agree,3,1708007812593,1708007823736,\Somewhat agree\,\Somewhat agree\,\3\,1708007823176,1708007823176,10583,10583,11143,buq,qns-item-noham,34,266205,0.0-1.0-0.33,65ce202f5407cc4cb6627879,AWAITING REVIEW,2024-02-15T14:32:10.783000Z,2024-02-15T14:43:58.979000Z,,2024-02-15T14:44:00.535733Z,709.0,CVPIIDEI,8,36,Female,White,DATA_EXPIRED,United States,United States,English,DATA_EXPIRED,DATA_EXPIRED,Not Applicable
632e0fd7424f2848637d173f,<b>Having conflicting beliefs means you haven?t thought about them enough.,Highly disagree,35/94,Highly disagree,1,1708007823737,1708007828528,\Highly disagree\,\Highly disagree\,\1\,1708007827928,1708007827928,4191,4191,4791,buq,qns-item-noham,35,270997,0.0-1.0-0.34,65ce202f5407cc4cb6627879,AWAITING REVIEW,2024-02-15T14:32:10.783000Z,2024-02-15T14:43:58.979000Z,,2024-02-15T14:44:00.535733Z,709.0,CVPIIDEI,8,36,Female,White,DATA_EXPIRED,United States,United States,English,DATA_EXPIRED,DATA_EXPIRED,Not Applicable
632e0fd7424f2848637d173f,<b>I do not often change my political opinions.,Highly disagree,36/94,Somewhat agree,3,1708007828529,1708007833360,\Somewhat agree\,\Somewhat agree\,\3\,1708007832688,1708007832688,4159,4159,4831,buq,qns-item-noham,36,275829,0.0-1.0-0.35,65ce202f5407cc4cb6627879,AWAITING REVIEW,2024-02-15T14:32:10.783000Z,2024-02-15T14:43:58.979000Z,,2024-02-15T14:44:00.535733Z,709.0,CVPIIDEI,8,36,Female,White,DATA_EXPIRED,United States,United States,English,DATA_EXPIRED,DATA_EXPIRED,Not Applicable
632e0fd7424f2848637d173f,<b>It?s difficult to not have at least some conflicting beliefs.,Highly disagree,37/94,Somewhat agree,3,1708007833361,1708007838897,\Somewhat agree\,\Somewhat agree\,\3\,1708007838384,1708007838384,5023,5023,5536,buq,qns-item-noham,37,281366,0.0-1.0-0.36,65ce202f5407cc4cb6627879,AWAITING REVIEW,2024-02-15T14:32:10.783000Z,2024-02-15T14:43:58.979000Z,,2024-02-15T14:44:00.535733Z,709.0,CVPIIDEI,8,36,Female,White,DATA_EXPIRED,United States,United States,English,DATA_EXPIRED,DATA_EXPIRED,Not Applicable
632e0fd7424f2848637d173f,<b>Wishful thinking causes a lot of problems.,Highly disagree,38/94,Highly agree,4,1708007838899,1708007843792,\Highly agree\,\Highly agree\,\4\,1708007843088,1708007843088,4189,4189,4893,buq,qns-item-noham,38,286261,0.0-1.0-0.37,65ce202f5407cc4cb6627879,AWAITING REVIEW,2024-02-15T14:32:10.783000Z,2024-02-15T14:43:58.979000Z,,2024-02-15T14:44:00.535733Z,709.0,CVPIIDEI,8,36,Female,White,DATA_EXPIRED,United States,United States,English,DATA_EXPIRED,DATA_EXPIRED,Not Applicable
632e0fd7424f2848637d173f,<b>I judge a food item only once I try it many times.,Highly disagree,39/94,Highly disagree,1,1708007843793,1708007850032,\Highly disagree\,\Highly disagree\,\1\,1708007849192,1708007849192,5399,5399,6239,buq,qns-item-noham,39,292501,0.0-1.0-0.38,65ce202f5407cc4cb6627879,AWAITING REVIEW,2024-02-15T14:32:10.783000Z,2024-02-15T14:43:58.979000Z,,2024-02-15T14:44:00.535733Z,709.0,CVPIIDEI,8,36,Female,White,DATA_EXPIRED,United States,United States,English,DATA_EXPIRED,DATA_EXPIRED,Not Applicable
632e0fd7424f2848637d173f,"<b>When a person holds conflicting beliefs, they should really try to figure out what?s wrong.",Highly disagree,40/94,Somewhat agree,3,1708007850034,1708007859136,\Somewhat agree\,\Somewhat agree\,\3\,1708007858488,1708007858488,8454,8454,9102,buq,qns-item-noham,40,301605,0.0-1.0-0.39,65ce202f5407cc4cb6627879,AWAITING REVIEW,2024-02-15T14:32:10.783000Z,2024-02-15T14:43:58.979000Z,,2024-02-15T14:44:00.535733Z,709.0,CVPIIDEI,8,36,Female,White,DATA_EXPIRED,United States,United States,English,DATA_EXPIRED,DATA_EXPIRED,Not Applicable
632e0fd7424f2848637d173f,<b>Knowing what?s important in life is easy.,Highly disagree,41/94,Highly agree,4,1708007859137,1708007865696,\Somewhat agree\,\Highly agree\,\3\,1708007864464,1708007865088,5327,5951,6559,buq,qns-item-noham,41,308165,0.0-1.0-0.40,65ce202f5407cc4cb6627879,AWAITING REVIEW,2024-02-15T14:32:10.783000Z,2024-02-15T14:43:58.979000Z,,2024-02-15T14:44:00.535733Z,709.0,CVPIIDEI,8,36,Female,White,DATA_EXPIRED,United States,United States,English,DATA_EXPIRED,DATA_EXPIRED,Not Applicable
632e0fd7424f2848637d173f,<b>I swim across the Atlantic Ocean to get to work every day.,Highly disagree,42/94,Highly disagree,1,1708007865697,1708007870751,\Highly disagree\,\Highly disagree\,\1\,1708007869600,1708007869600,3903,3903,5054,buq,qns-item-noham,42,313220,0.0-1.0-0.41,65ce202f5407cc4cb6627879,AWAITING REVIEW,2024-02-15T14:32:10.783000Z,2024-02-15T14:43:58.979000Z,,2024-02-15T14:44:00.535733Z,709.0,CVPIIDEI,8,36,Female,White,DATA_EXPIRED,United States,United States,English,DATA_EXPIRED,DATA_EXPIRED,Not Applicable
632e0fd7424f2848637d173f,"<b>Sometimes, you just have to ignore evidence that you know is wrong.",Highly disagree,43/94,Highly disagree,1,1708007870752,1708007877304,\Highly disagree\,\Highly disagree\,\1\,1708007876744,1708007876744,5992,5992,6552,buq,qns-item-noham,43,319773,0.0-1.0-0.42,65ce202f5407cc4cb6627879,AWAITING REVIEW,2024-02-15T14:32:10.783000Z,2024-02-15T14:43:58.979000Z,,2024-02-15T14:44:00.535733Z,709.0,CVPIIDEI,8,36,Female,White,DATA_EXPIRED,United States,United States,English,DATA_EXPIRED,DATA_EXPIRED,Not Applicable
632e0fd7424f2848637d173f,<b>I have had some false beliefs.,Highly disagree,44/94,Highly agree,4,1708007877305,1708007880783,\Highly agree\,\Highly agree\,\4\,1708007880216,1708007880216,2911,2911,3478,buq,qns-item-noham,44,323252,0.0-1.0-0.43,65ce202f5407cc4cb6627879,AWAITING REVIEW,2024-02-15T14:32:10.783000Z,2024-02-15T14:43:58.979000Z,,2024-02-15T14:44:00.535733Z,709.0,CVPIIDEI,8,36,Female,White,DATA_EXPIRED,United States,United States,English,DATA_EXPIRED,DATA_EXPIRED,Not Applicable
632e0fd7424f2848637d173f,"<b>If one friend does something that upsets me, I sometimes start to distrust people in general.",Highly disagree,45/94,Somewhat agree,3,1708007880785,1708007891752,\Somewhat agree\,\Somewhat agree\,\3\,1708007891128,1708007891128,10343,10343,10967,buq,qns-item-noham,45,334222,0.0-1.0-0.44,65ce202f5407cc4cb6627879,AWAITING REVIEW,2024-02-15T14:32:10.783000Z,2024-02-15T14:43:58.979000Z,,2024-02-15T14:44:00.535733Z,709.0,CVPIIDEI,8,36,Female,White,DATA_EXPIRED,United States,United States,English,DATA_EXPIRED,DATA_EXPIRED,Not Applicable
632e0fd7424f2848637d173f,<b>The facts about most important matters are easy to find.,Highly disagree,46/94,Somewhat disagree,2,1708007891754,1708007902441,\Somewhat disagree\,\Somewhat disagree\,\2\,1708007901888,1708007901888,10134,10134,10687,buq,qns-item-noham,46,344910,0.0-1.0-0.45,65ce202f5407cc4cb6627879,AWAITING REVIEW,2024-02-15T14:32:10.783000Z,2024-02-15T14:43:58.979000Z,,2024-02-15T14:44:00.535733Z,709.0,CVPIIDEI,8,36,Female,White,DATA_EXPIRED,United States,United States,English,DATA_EXPIRED,DATA_EXPIRED,Not Applicable
632e0fd7424f2848637d173f,<b>It?s better to know what?s true than to know what?s moral.,Highly disagree,47/94,Somewhat disagree,2,1708007902443,1708007907424,\Somewhat disagree\,\Somewhat disagree\,\2\,1708007906800,1708007906800,4357,4357,4981,buq,qns-item-noham,47,349893,0.0-1.0-0.46,65ce202f5407cc4cb6627879,AWAITING REVIEW,2024-02-15T14:32:10.783000Z,2024-02-15T14:43:58.979000Z,,2024-02-15T14:44:00.535733Z,709.0,CVPIIDEI,8,36,Female,White,DATA_EXPIRED,United States,United States,English,DATA_EXPIRED,DATA_EXPIRED,Not Applicable
632e0fd7424f2848637d173f,<b>I used to think the world was less complicated than I do now.,Highly disagree,48/94,Somewhat agree,3,1708007907425,1708007914056,\Somewhat agree\,\Somewhat agree\,\3\,1708007913489,1708007913489,6064,6064,6631,buq,qns-item-noham,48,356526,0.0-1.0-0.47,65ce202f5407cc4cb6627879,AWAITING REVIEW,2024-02-15T14:32:10.783000Z,2024-02-15T14:43:58.979000Z,,2024-02-15T14:44:00.535733Z,709.0,CVPIIDEI,8,36,Female,White,DATA_EXPIRED,United States,United States,English,DATA_EXPIRED,DATA_EXPIRED,Not Applicable
632e0fd7424f2848637d173f,<b>People are usually completely right or completely wrong.,Highly disagree,49/94,Somewhat disagree,2,1708007914058,1708007917882,\Somewhat disagree\,\Somewhat disagree\,\2\,1708007917264,1708007917264,3206,3206,3824,buq,qns-item-noham,49,360351,0.0-1.0-0.48,65ce202f5407cc4cb6627879,AWAITING REVIEW,2024-02-15T14:32:10.783000Z,2024-02-15T14:43:58.979000Z,,2024-02-15T14:44:00.535733Z,709.0,CVPIIDEI,8,36,Female,White,DATA_EXPIRED,United States,United States,English,DATA_EXPIRED,DATA_EXPIRED,Not Applicable
632e0fd7424f2848637d173f,<b>I spend a lot of time considering alternatives to my beliefs.,Highly disagree,50/94,Somewhat agree,3,1708007917884,1708007922912,\Somewhat agree\,\Somewhat agree\,\3\,1708007922360,1708007922360,4476,4476,5028,buq,qns-item-noham,50,365381,0.0-1.0-0.49,65ce202f5407cc4cb6627879,AWAITING REVIEW,2024-02-15T14:32:10.783000Z,2024-02-15T14:43:58.979000Z,,2024-02-15T14:44:00.535733Z,709.0,CVPIIDEI,8,36,Female,White,DATA_EXPIRED,United States,United States,English,DATA_EXPIRED,DATA_EXPIRED,Not Applicable
632e0fd7424f2848637d173f,"<b>Political enemies need to be defeated, not convinced.",Highly disagree,51/94,Highly disagree,1,1708007922913,1708007927776,\Somewhat disagree\,\Highly disagree\,\2\,1708007926169,1708007927049,3256,4136,4863,buq,qns-item-noham,51,370245,0.0-1.0-0.50,65ce202f5407cc4cb6627879,AWAITING REVIEW,2024-02-15T14:32:10.783000Z,2024-02-15T14:43:58.979000Z,,2024-02-15T14:44:00.535733Z,709.0,CVPIIDEI,8,36,Female,White,DATA_EXPIRED,United States,United States,English,DATA_EXPIRED,DATA_EXPIRED,Not Applicable
632e0fd7424f2848637d173f,<b>I form my political views only after meticulously gathering historical and present information about their policies.,Highly disagree,52/94,Somewhat disagree,2,1708007927777,1708007942977,\Somewhat disagree\,\Somewhat disagree\,\2\,1708007942312,1708007942312,14535,14535,15200,buq,qns-item-noham,52,385446,0.0-1.0-0.51,65ce202f5407cc4cb6627879,AWAITING REVIEW,2024-02-15T14:32:10.783000Z,2024-02-15T14:43:58.979000Z,,2024-02-15T14:44:00.535733Z,709.0,CVPIIDEI,8,36,Female,White,DATA_EXPIRED,United States,United States,English,DATA_EXPIRED,DATA_EXPIRED,Not Applicable
632e0fd7424f2848637d173f,<b>It is difficult for me to remember the last time I was surprised by politics.,Highly disagree,53/94,Highly disagree,1,1708007942978,1708007947625,\Highly disagree\,\Highly disagree\,\1\,1708007946344,1708007946344,3366,3366,4647,buq,qns-item-noham,53,390094,0.0-1.0-0.52,65ce202f5407cc4cb6627879,AWAITING REVIEW,2024-02-15T14:32:10.783000Z,2024-02-15T14:43:58.979000Z,,2024-02-15T14:44:00.535733Z,709.0,CVPIIDEI,8,36,Female,White,DATA_EXPIRED,United States,United States,English,DATA_EXPIRED,DATA_EXPIRED,Not Applicable
632e0fd7424f2848637d173f,"<b>When I find out I?m wrong, I think a lot about my related beliefs.",Highly disagree,54/94,Highly agree,4,1708007947626,1708007956496,\Highly agree\,\Highly agree\,\4\,1708007955768,1708007955768,8142,8142,8870,buq,qns-item-noham,54,398965,0.0-1.0-0.53,65ce202f5407cc4cb6627879,AWAITING REVIEW,2024-02-15T14:32:10.783000Z,2024-02-15T14:43:58.979000Z,,2024-02-15T14:44:00.535733Z,709.0,CVPIIDEI,8,36,Female,White,DATA_EXPIRED,United States,United States,English,DATA_EXPIRED,DATA_EXPIRED,Not Applicable
632e0fd7424f2848637d173f,"<b>If the political party I support messes up, it makes me think you can?t trust anyone these days",Highly disagree,55/94,Somewhat disagree,2,1708007956499,1708007964409,\Somewhat disagree\,\Somewhat disagree\,\2\,1708007963888,1708007963888,7389,7389,7910,buq,qns-item-noham,55,406878,0.0-1.0-0.54,65ce202f5407cc4cb6627879,AWAITING REVIEW,2024-02-15T14:32:10.783000Z,2024-02-15T14:43:58.979000Z,,2024-02-15T14:44:00.535733Z,709.0,CVPIIDEI,8,36,Female,White,DATA_EXPIRED,United States,United States,English,DATA_EXPIRED,DATA_EXPIRED,Not Applicable
632e0fd7424f2848637d173f,<b>People?s brains turn off when they talk about politics.,Highly disagree,56/94,Highly disagree,1,1708007964410,1708007968992,\Highly disagree\,\Highly disagree\,\1\,1708007968200,1708007968200,3790,3790,4582,buq,qns-item-noham,56,411461,0.0-1.0-0.55,65ce202f5407cc4cb6627879,AWAITING REVIEW,2024-02-15T14:32:10.783000Z,2024-02-15T14:43:58.979000Z,,2024-02-15T14:44:00.535733Z,709.0,CVPIIDEI,8,36,Female,White,DATA_EXPIRED,United States,United States,English,DATA_EXPIRED,DATA_EXPIRED,Not Applicable
632e0fd7424f2848637d173f,<b>People who are wrong are usually just ignoring the obvious.,Highly disagree,57/94,Highly disagree,1,1708007968994,1708007975008,\Highly disagree\,\Highly disagree\,\1\,1708007974336,1708007974336,5342,5342,6014,buq,qns-item-noham,57,417477,0.0-1.0-0.56,65ce202f5407cc4cb6627879,AWAITING REVIEW,2024-02-15T14:32:10.783000Z,2024-02-15T14:43:58.979000Z,,2024-02-15T14:44:00.535733Z,709.0,CVPIIDEI,8,36,Female,White,DATA_EXPIRED,United States,United States,English,DATA_EXPIRED,DATA_EXPIRED,Not Applicable
632e0fd7424f2848637d173f,"<b>When forming my views on people, I rely more on what they are like now rather than rely on my past experience with them.",Highly disagree,58/94,Somewhat disagree,2,1708007975009,1708007985225,\Highly disagree\,\Somewhat disagree\,\1\,1708007982608,1708007984240,7599,9231,10216,buq,qns-item-noham,58,427694,0.0-1.0-0.57,65ce202f5407cc4cb6627879,AWAITING REVIEW,2024-02-15T14:32:10.783000Z,2024-02-15T14:43:58.979000Z,,2024-02-15T14:44:00.535733Z,709.0,CVPIIDEI,8,36,Female,White,DATA_EXPIRED,United States,United States,English,DATA_EXPIRED,DATA_EXPIRED,Not Applicable
632e0fd7424f2848637d173f,"<b>When people contradict my beliefs, I usually know about their evidence already.",Highly disagree,59/94,Somewhat disagree,2,1708007985226,1708007992313,\Somewhat disagree\,\Somewhat disagree\,\2\,1708007991680,1708007991680,6454,6454,7087,buq,qns-item-noham,59,434782,0.0-1.0-0.58,65ce202f5407cc4cb6627879,AWAITING REVIEW,2024-02-15T14:32:10.783000Z,2024-02-15T14:43:58.979000Z,,2024-02-15T14:44:00.535733Z,709.0,CVPIIDEI,8,36,Female,White,DATA_EXPIRED,United States,United States,English,DATA_EXPIRED,DATA_EXPIRED,Not Applicable
632e0fd7424f2848637d173f,<b>Figuring out what?s true and what?s false mainly requires a strong moral compass.,Highly disagree,60/94,Somewhat disagree,2,1708007992314,1708008002768,\Somewhat disagree\,\Somewhat disagree\,\2\,1708008000968,1708008000968,8654,8654,10454,buq,qns-item-noham,60,445237,0.0-1.0-0.59,65ce202f5407cc4cb6627879,AWAITING REVIEW,2024-02-15T14:32:10.783000Z,2024-02-15T14:43:58.979000Z,,2024-02-15T14:44:00.535733Z,709.0,CVPIIDEI,8,36,Female,White,DATA_EXPIRED,United States,United States,English,DATA_EXPIRED,DATA_EXPIRED,Not Applicable
632e0fd7424f2848637d173f,"<b>Usually I?m wrong about simple things, not complicated ones.",Highly disagree,61/94,Somewhat disagree,2,1708008002769,1708008012201,\Somewhat disagree\,\Somewhat disagree\,\2\,1708008011624,1708008011624,8855,8855,9432,buq,qns-item-noham,61,454670,0.0-1.0-0.60,65ce202f5407cc4cb6627879,AWAITING REVIEW,2024-02-15T14:32:10.783000Z,2024-02-15T14:43:58.979000Z,,2024-02-15T14:44:00.535733Z,709.0,CVPIIDEI,8,36,Female,White,DATA_EXPIRED,United States,United States,English,DATA_EXPIRED,DATA_EXPIRED,Not Applicable
632e0fd7424f2848637d173f,<b>Getting all the information I want about important things is hard.,Highly disagree,62/94,Somewhat agree,3,1708008012203,1708008023465,\Somewhat agree\,\Somewhat agree\,\3\,1708008022952,1708008022952,10749,10749,11262,buq,qns-item-noham,62,465934,0.0-1.0-0.61,65ce202f5407cc4cb6627879,AWAITING REVIEW,2024-02-15T14:32:10.783000Z,2024-02-15T14:43:58.979000Z,,2024-02-15T14:44:00.535733Z,709.0,CVPIIDEI,8,36,Female,White,DATA_EXPIRED,United States,United States,English,DATA_EXPIRED,DATA_EXPIRED,Not Applicable
632e0fd7424f2848637d173f,<b>Most false beliefs spread because people try to deceive one another.,Highly disagree,63/94,Somewhat disagree,2,1708008023467,1708008032280,\Somewhat disagree\,\Somewhat disagree\,\2\,1708008030209,1708008030209,6742,6742,8813,buq,qns-item-noham,63,474749,0.0-1.0-0.62,65ce202f5407cc4cb6627879,AWAITING REVIEW,2024-02-15T14:32:10.783000Z,2024-02-15T14:43:58.979000Z,,2024-02-15T14:44:00.535733Z,709.0,CVPIIDEI,8,36,Female,White,DATA_EXPIRED,United States,United States,English,DATA_EXPIRED,DATA_EXPIRED,Not Applicable
632e0fd7424f2848637d173f,<b>I can usually find something to agree with in most people?s beliefs.,Highly disagree,64/94,Highly agree,4,1708008032281,1708008036872,\Highly agree\,\Highly agree\,\4\,1708008036360,1708008036360,4079,4079,4591,buq,qns-item-noham,64,479341,0.0-1.0-0.63,65ce202f5407cc4cb6627879,AWAITING REVIEW,2024-02-15T14:32:10.783000Z,2024-02-15T14:43:58.979000Z,,2024-02-15T14:44:00.535733Z,709.0,CVPIIDEI,8,36,Female,White,DATA_EXPIRED,United States,United States,English,DATA_EXPIRED,DATA_EXPIRED,Not Applicable
632e0fd7424f2848637d173f,<b>I only form my views of people once I get to know them very well.,Highly disagree,65/94,Somewhat disagree,2,1708008036873,1708008042121,\Somewhat disagree\,\Somewhat disagree\,\2\,1708008041432,1708008041432,4559,4559,5248,buq,qns-item-noham,65,484590,0.0-1.0-0.64,65ce202f5407cc4cb6627879,AWAITING REVIEW,2024-02-15T14:32:10.783000Z,2024-02-15T14:43:58.979000Z,,2024-02-15T14:44:00.535733Z,709.0,CVPIIDEI,8,36,Female,White,DATA_EXPIRED,United States,United States,English,DATA_EXPIRED,DATA_EXPIRED,Not Applicable
632e0fd7424f2848637d173f,"<b>When people tell me important things about the world, I usually believe them.",Highly disagree,66/94,Somewhat agree,3,1708008042122,1708008050144,\Somewhat agree\,\Somewhat agree\,\3\,1708008049584,1708008049584,7462,7462,8022,buq,qns-item-noham,66,492613,0.0-1.0-0.65,65ce202f5407cc4cb6627879,AWAITING REVIEW,2024-02-15T14:32:10.783000Z,2024-02-15T14:43:58.979000Z,,2024-02-15T14:44:00.535733Z,709.0,CVPIIDEI,8,36,Female,White,DATA_EXPIRED,United States,United States,English,DATA_EXPIRED,DATA_EXPIRED,Not Applicable
632e0fd7424f2848637d173f,"<b>If a friend does something that upsets me, it reminds me what an unpredictable place the world is.",Highly disagree,67/94,Somewhat agree,3,1708008050145,1708008058281,\Somewhat agree\,\Somewhat agree\,\3\,1708008057776,1708008057776,7631,7631,8136,buq,qns-item-noham,67,500750,0.0-1.0-0.66,65ce202f5407cc4cb6627879,AWAITING REVIEW,2024-02-15T14:32:10.783000Z,2024-02-15T14:43:58.979000Z,,2024-02-15T14:44:00.535733Z,709.0,CVPIIDEI,8,36,Female,White,DATA_EXPIRED,United States,United States,English,DATA_EXPIRED,DATA_EXPIRED,Not Applicable
632e0fd7424f2848637d173f,<b>People tend to believe whatever is good for their friends.,Highly disagree,68/94,Somewhat disagree,2,1708008058282,1708008064696,\Somewhat disagree\,\Somewhat disagree\,\2\,1708008064072,1708008064072,5790,5790,6414,buq,qns-item-noham,68,507165,0.0-1.0-0.67,65ce202f5407cc4cb6627879,AWAITING REVIEW,2024-02-15T14:32:10.783000Z,2024-02-15T14:43:58.979000Z,,2024-02-15T14:44:00.535733Z,709.0,CVPIIDEI,8,36,Female,White,DATA_EXPIRED,United States,United States,English,DATA_EXPIRED,DATA_EXPIRED,Not Applicable
632e0fd7424f2848637d173f,<b>I used to be more certain my beliefs were true.,Highly disagree,69/94,Somewhat agree,3,1708008064697,1708008070049,\Somewhat agree\,\Somewhat agree\,\3\,1708008069480,1708008069480,4783,4783,5352,buq,qns-item-noham,69,512518,0.0-1.0-0.68,65ce202f5407cc4cb6627879,AWAITING REVIEW,2024-02-15T14:32:10.783000Z,2024-02-15T14:43:58.979000Z,,2024-02-15T14:44:00.535733Z,709.0,CVPIIDEI,8,36,Female,White,DATA_EXPIRED,United States,United States,English,DATA_EXPIRED,DATA_EXPIRED,Not Applicable
632e0fd7424f2848637d173f,<b>It?s often pretty easy to figure out whether something is true based on who said it.,Highly disagree,70/94,Highly disagree,1,1708008070050,1708008078146,\Highly disagree\,\Highly disagree\,\1\,1708008077480,1708008077480,7430,7430,8096,buq,qns-item-noham,70,520615,0.0-1.0-0.69,65ce202f5407cc4cb6627879,AWAITING REVIEW,2024-02-15T14:32:10.783000Z,2024-02-15T14:43:58.979000Z,,2024-02-15T14:44:00.535733Z,709.0,CVPIIDEI,8,36,Female,White,DATA_EXPIRED,United States,United States,English,DATA_EXPIRED,DATA_EXPIRED,Not Applicable
632e0fd7424f2848637d173f,<b>I transform into a hummingbird every day.,Highly disagree,71/94,Highly disagree,1,1708008078147,1708008082417,\Highly disagree\,\Highly disagree\,\1\,1708008080473,1708008080473,2326,2326,4270,buq,qns-item-noham,71,524886,0.0-1.0-0.70,65ce202f5407cc4cb6627879,AWAITING REVIEW,2024-02-15T14:32:10.783000Z,2024-02-15T14:43:58.979000Z,,2024-02-15T14:44:00.535733Z,709.0,CVPIIDEI,8,36,Female,White,DATA_EXPIRED,United States,United States,English,DATA_EXPIRED,DATA_EXPIRED,Not Applicable
632e0fd7424f2848637d173f,<b>I think a lot about arguments against my views.,Highly disagree,72/94,Somewhat agree,3,1708008082419,1708008093481,\Somewhat agree\,\Somewhat agree\,\3\,1708008092929,1708008092929,10510,10510,11062,buq,qns-item-noham,72,535950,0.0-1.0-0.71,65ce202f5407cc4cb6627879,AWAITING REVIEW,2024-02-15T14:32:10.783000Z,2024-02-15T14:43:58.979000Z,,2024-02-15T14:44:00.535733Z,709.0,CVPIIDEI,8,36,Female,White,DATA_EXPIRED,United States,United States,English,DATA_EXPIRED,DATA_EXPIRED,Not Applicable
632e0fd7424f2848637d173f,<b>Personal experience is usually more important than facts and figures.,Highly disagree,73/94,Somewhat disagree,2,1708008093483,1708008099736,\Somewhat disagree\,\Somewhat disagree\,\2\,1708008098593,1708008098593,5110,5110,6253,buq,qns-item-noham,73,542205,0.0-1.0-0.72,65ce202f5407cc4cb6627879,AWAITING REVIEW,2024-02-15T14:32:10.783000Z,2024-02-15T14:43:58.979000Z,,2024-02-15T14:44:00.535733Z,709.0,CVPIIDEI,8,36,Female,White,DATA_EXPIRED,United States,United States,English,DATA_EXPIRED,DATA_EXPIRED,Not Applicable
632e0fd7424f2848637d173f,<b>I?ve been tricked before about important matters.,Highly disagree,74/94,Somewhat agree,3,1708008099738,1708008103041,\Somewhat agree\,\Somewhat agree\,\3\,1708008102545,1708008102545,2807,2807,3303,buq,qns-item-noham,74,545510,0.0-1.0-0.73,65ce202f5407cc4cb6627879,AWAITING REVIEW,2024-02-15T14:32:10.783000Z,2024-02-15T14:43:58.979000Z,,2024-02-15T14:44:00.535733Z,709.0,CVPIIDEI,8,36,Female,White,DATA_EXPIRED,United States,United States,English,DATA_EXPIRED,DATA_EXPIRED,Not Applicable
632e0fd7424f2848637d173f,<b>I would need to be totally wowed if I were to change my opinion of a restaurant I don?t like.,Highly disagree,75/94,Highly agree,4,1708008103043,1708008111434,\Highly agree\,\Highly agree\,\4\,1708008110497,1708008110497,7454,7454,8391,buq,qns-item-noham,75,553903,0.0-1.0-0.74,65ce202f5407cc4cb6627879,AWAITING REVIEW,2024-02-15T14:32:10.783000Z,2024-02-15T14:43:58.979000Z,,2024-02-15T14:44:00.535733Z,709.0,CVPIIDEI,8,36,Female,White,DATA_EXPIRED,United States,United States,English,DATA_EXPIRED,DATA_EXPIRED,Not Applicable
632e0fd7424f2848637d173f,<b>I care a lot about politics.,Highly disagree,76/94,Somewhat disagree,2,1708008111436,1708008115609,\Somewhat disagree\,\Somewhat disagree\,\2\,1708008115113,1708008115113,3677,3677,4173,buq,qns-item-noham,76,558078,0.0-1.0-0.75,65ce202f5407cc4cb6627879,AWAITING REVIEW,2024-02-15T14:32:10.783000Z,2024-02-15T14:43:58.979000Z,,2024-02-15T14:44:00.535733Z,709.0,CVPIIDEI,8,36,Female,White,DATA_EXPIRED,United States,United States,English,DATA_EXPIRED,DATA_EXPIRED,Not Applicable
632e0fd7424f2848637d173f,<b>There are some topics I?ve been really wrong about.,Highly disagree,77/94,Somewhat agree,3,1708008115610,1708008118801,\Somewhat agree\,\Somewhat agree\,\3\,1708008118353,1708008118353,2743,2743,3191,buq,qns-item-noham,77,561270,0.0-1.0-0.76,65ce202f5407cc4cb6627879,AWAITING REVIEW,2024-02-15T14:32:10.783000Z,2024-02-15T14:43:58.979000Z,,2024-02-15T14:44:00.535733Z,709.0,CVPIIDEI,8,36,Female,White,DATA_EXPIRED,United States,United States,English,DATA_EXPIRED,DATA_EXPIRED,Not Applicable
632e0fd7424f2848637d173f,<b>Most beliefs can be supported with at least some evidence.,Highly disagree,78/94,Highly agree,4,1708008118802,1708008126361,\Highly agree\,\Highly agree\,\4\,1708008125609,1708008125609,6807,6807,7559,buq,qns-item-noham,78,568830,0.0-1.0-0.77,65ce202f5407cc4cb6627879,AWAITING REVIEW,2024-02-15T14:32:10.783000Z,2024-02-15T14:43:58.979000Z,,2024-02-15T14:44:00.535733Z,709.0,CVPIIDEI,8,36,Female,White,DATA_EXPIRED,United States,United States,English,DATA_EXPIRED,DATA_EXPIRED,Not Applicable
632e0fd7424f2848637d173f,<b>Other people make life out to be more complicated than it really is.,Highly disagree,79/94,Highly disagree,1,1708008126363,1708008131369,\Somewhat disagree\,\Highly disagree\,\2\,1708008130041,1708008130825,3678,4462,5006,buq,qns-item-noham,79,573838,0.0-1.0-0.78,65ce202f5407cc4cb6627879,AWAITING REVIEW,2024-02-15T14:32:10.783000Z,2024-02-15T14:43:58.979000Z,,2024-02-15T14:44:00.535733Z,709.0,CVPIIDEI,8,36,Female,White,DATA_EXPIRED,United States,United States,English,DATA_EXPIRED,DATA_EXPIRED,Not Applicable
632e0fd7424f2848637d173f,"<b>Policy details don?t matter much, just the big picture.",Highly disagree,80/94,Highly disagree,1,1708008131371,1708008136465,\Highly disagree\,\Highly disagree\,\1\,1708008135921,1708008135921,4550,4550,5094,buq,qns-item-noham,80,578934,0.0-1.0-0.79,65ce202f5407cc4cb6627879,AWAITING REVIEW,2024-02-15T14:32:10.783000Z,2024-02-15T14:43:58.979000Z,,2024-02-15T14:44:00.535733Z,709.0,CVPIIDEI,8,36,Female,White,DATA_EXPIRED,United States,United States,English,DATA_EXPIRED,DATA_EXPIRED,Not Applicable
632e0fd7424f2848637d173f,<b>I know my friends so well they can hardly ever surprise me.,Highly disagree,81/94,Highly disagree,1,1708008136467,1708008142753,\Highly disagree\,\Highly disagree\,\1\,1708008141936,1708008141936,5469,5469,6286,buq,qns-item-noham,81,585222,0.0-1.0-0.80,65ce202f5407cc4cb6627879,AWAITING REVIEW,2024-02-15T14:32:10.783000Z,2024-02-15T14:43:58.979000Z,,2024-02-15T14:44:00.535733Z,709.0,CVPIIDEI,8,36,Female,White,DATA_EXPIRED,United States,United States,English,DATA_EXPIRED,DATA_EXPIRED,Not Applicable
632e0fd7424f2848637d173f,<b>I do not often change my views on people.,Highly disagree,82/94,Somewhat agree,3,1708008142754,1708008147200,\Somewhat agree\,\Somewhat agree\,\3\,1708008146609,1708008146609,3855,3855,4446,buq,qns-item-noham,82,589669,0.0-1.0-0.81,65ce202f5407cc4cb6627879,AWAITING REVIEW,2024-02-15T14:32:10.783000Z,2024-02-15T14:43:58.979000Z,,2024-02-15T14:44:00.535733Z,709.0,CVPIIDEI,8,36,Female,White,DATA_EXPIRED,United States,United States,English,DATA_EXPIRED,DATA_EXPIRED,Not Applicable
632e0fd7424f2848637d173f,<b>I?m more certain about my beliefs than I used to be.,Highly disagree,83/94,Somewhat disagree,2,1708008147202,1708008151873,\Somewhat disagree\,\Somewhat disagree\,\2\,1708008150929,1708008150929,3727,3727,4671,buq,qns-item-noham,83,594342,0.0-1.0-0.82,65ce202f5407cc4cb6627879,AWAITING REVIEW,2024-02-15T14:32:10.783000Z,2024-02-15T14:43:58.979000Z,,2024-02-15T14:44:00.535733Z,709.0,CVPIIDEI,8,36,Female,White,DATA_EXPIRED,United States,United States,English,DATA_EXPIRED,DATA_EXPIRED,Not Applicable
632e0fd7424f2848637d173f,<b>People often tell falsehoods unintentionally.,Highly disagree,84/94,Highly agree,4,1708008151874,1708008156153,\Highly agree\,\Highly agree\,\4\,1708008155609,1708008155609,3735,3735,4279,buq,qns-item-noham,84,598622,0.0-1.0-0.83,65ce202f5407cc4cb6627879,AWAITING REVIEW,2024-02-15T14:32:10.783000Z,2024-02-15T14:43:58.979000Z,,2024-02-15T14:44:00.535733Z,709.0,CVPIIDEI,8,36,Female,White,DATA_EXPIRED,United States,United States,English,DATA_EXPIRED,DATA_EXPIRED,Not Applicable
632e0fd7424f2848637d173f,<b>Most people don?t know much about most things.,Highly disagree,85/94,Somewhat agree,3,1708008156154,1708008163914,\Somewhat agree\,\Somewhat agree\,\3\,1708008163465,1708008163465,7311,7311,7760,buq,qns-item-noham,85,606383,0.0-1.0-0.84,65ce202f5407cc4cb6627879,AWAITING REVIEW,2024-02-15T14:32:10.783000Z,2024-02-15T14:43:58.979000Z,,2024-02-15T14:44:00.535733Z,709.0,CVPIIDEI,8,36,Female,White,DATA_EXPIRED,United States,United States,English,DATA_EXPIRED,DATA_EXPIRED,Not Applicable
632e0fd7424f2848637d173f,"<b>If I find out something new about someone, I easily change my views about them.",Highly disagree,86/94,Somewhat agree,3,1708008163915,1708008170497,\Somewhat agree\,\Somewhat agree\,\3\,1708008169529,1708008169529,5614,5614,6582,buq,qns-item-noham,86,612966,0.0-1.0-0.85,65ce202f5407cc4cb6627879,AWAITING REVIEW,2024-02-15T14:32:10.783000Z,2024-02-15T14:43:58.979000Z,,2024-02-15T14:44:00.535733Z,709.0,CVPIIDEI,8,36,Female,White,DATA_EXPIRED,United States,United States,English,DATA_EXPIRED,DATA_EXPIRED,Not Applicable
632e0fd7424f2848637d173f,<b>Having true beliefs is difficult.,Highly disagree,87/94,Somewhat disagree,2,1708008170498,1708008177657,\Somewhat disagree\,\Somewhat disagree\,\2\,1708008176985,1708008176985,6487,6487,7159,buq,qns-item-noham,87,620126,0.0-1.0-0.86,65ce202f5407cc4cb6627879,AWAITING REVIEW,2024-02-15T14:32:10.783000Z,2024-02-15T14:43:58.979000Z,,2024-02-15T14:44:00.535733Z,709.0,CVPIIDEI,8,36,Female,White,DATA_EXPIRED,United States,United States,English,DATA_EXPIRED,DATA_EXPIRED,Not Applicable
632e0fd7424f2848637d173f,<b>I don?t try new foods since I know I won?t like them.,Highly disagree,88/94,Somewhat agree,3,1708008177659,1708008181506,\Somewhat agree\,\Somewhat agree\,\3\,1708008180937,1708008180937,3278,3278,3847,buq,qns-item-noham,88,623975,0.0-1.0-0.87,65ce202f5407cc4cb6627879,AWAITING REVIEW,2024-02-15T14:32:10.783000Z,2024-02-15T14:43:58.979000Z,,2024-02-15T14:44:00.535733Z,709.0,CVPIIDEI,8,36,Female,White,DATA_EXPIRED,United States,United States,English,DATA_EXPIRED,DATA_EXPIRED,Not Applicable
632e0fd7424f2848637d173f,<b>Other people trick each other a lot.,Highly disagree,89/94,Somewhat disagree,2,1708008181507,1708008189297,\Somewhat disagree\,\Somewhat disagree\,\2\,1708008188681,1708008188681,7174,7174,7790,buq,qns-item-noham,89,631766,0.0-1.0-0.88,65ce202f5407cc4cb6627879,AWAITING REVIEW,2024-02-15T14:32:10.783000Z,2024-02-15T14:43:58.979000Z,,2024-02-15T14:44:00.535733Z,709.0,CVPIIDEI,8,36,Female,White,DATA_EXPIRED,United States,United States,English,DATA_EXPIRED,DATA_EXPIRED,Not Applicable
632e0fd7424f2848637d173f,<b>I would need to learn a lot about a person for my opinion of them to be swayed.,Highly disagree,90/94,Somewhat disagree,2,1708008189298,1708008195800,\Somewhat disagree\,\Somewhat disagree\,\2\,1708008195161,1708008195161,5863,5863,6502,buq,qns-item-noham,90,638270,0.0-1.0-0.89,65ce202f5407cc4cb6627879,AWAITING REVIEW,2024-02-15T14:32:10.783000Z,2024-02-15T14:43:58.979000Z,,2024-02-15T14:44:00.535733Z,709.0,CVPIIDEI,8,36,Female,White,DATA_EXPIRED,United States,United States,English,DATA_EXPIRED,DATA_EXPIRED,Not Applicable
632e0fd7424f2848637d173f,<b>People can?t usually trick me when it comes to topics I care about.,Highly disagree,91/94,Somewhat agree,3,1708008195802,1708008201656,\Somewhat agree\,\Somewhat agree\,\3\,1708008201128,1708008201128,5326,5326,5854,buq,qns-item-noham,91,644125,0.0-1.0-0.90,65ce202f5407cc4cb6627879,AWAITING REVIEW,2024-02-15T14:32:10.783000Z,2024-02-15T14:43:58.979000Z,,2024-02-15T14:44:00.535733Z,709.0,CVPIIDEI,8,36,Female,White,DATA_EXPIRED,United States,United States,English,DATA_EXPIRED,DATA_EXPIRED,Not Applicable
632e0fd7424f2848637d173f,<b>I do not often change my views on food.,Highly disagree,92/94,Highly agree,4,1708008201657,1708008205424,\Highly agree\,\Highly agree\,\4\,1708008204848,1708008204848,3191,3191,3767,buq,qns-item-noham,92,647893,0.0-1.0-0.91,65ce202f5407cc4cb6627879,AWAITING REVIEW,2024-02-15T14:32:10.783000Z,2024-02-15T14:43:58.979000Z,,2024-02-15T14:44:00.535733Z,709.0,CVPIIDEI,8,36,Female,White,DATA_EXPIRED,United States,United States,English,DATA_EXPIRED,DATA_EXPIRED,Not Applicable
632e0fd7424f2848637d173f,<b>Specific policies are often very important to me.,Highly disagree,93/94,Somewhat agree,3,1708008205425,1708008211016,\Somewhat agree\,\Somewhat agree\,\3\,1708008210408,1708008210408,4983,4983,5591,buq,qns-item-noham,93,653485,0.0-1.0-0.92,65ce202f5407cc4cb6627879,AWAITING REVIEW,2024-02-15T14:32:10.783000Z,2024-02-15T14:43:58.979000Z,,2024-02-15T14:44:00.535733Z,709.0,CVPIIDEI,8,36,Female,White,DATA_EXPIRED,United States,United States,English,DATA_EXPIRED,DATA_EXPIRED,Not Applicable
632e0fd7424f2848637d173f,<b>Most people are woefully under-informed.,Highly disagree,94/94,Somewhat agree,3,1708008211017,1708008214904,\Somewhat agree\,\Somewhat agree\,\3\,1708008214384,1708008214384,3367,3367,3887,buq,qns-item-noham,94,657373,0.0-1.0-0.93,65ce202f5407cc4cb6627879,AWAITING REVIEW,2024-02-15T14:32:10.783000Z,2024-02-15T14:43:58.979000Z,,2024-02-15T14:44:00.535733Z,709.0,CVPIIDEI,8,36,Female,White,DATA_EXPIRED,United States,United States,English,DATA_EXPIRED,DATA_EXPIRED,Not Applicable
632e0fd7424f2848637d173f,,,,,,,,,,,,,,,,,,,,,65ce202f5407cc4cb6627879,AWAITING REVIEW,2024-02-15T14:32:10.783000Z,2024-02-15T14:43:58.979000Z,,2024-02-15T14:44:00.535733Z,709.0,CVPIIDEI,8,36,Female,White,DATA_EXPIRED,United States,United States,English,DATA_EXPIRED,DATA_EXPIRED,Not Applicable
