PROLIFIC_PID,Question,qns_options,quest_num,answer,answer_num,question_load_timestamp,next_btn_timestamp,text_selected,final_text_selected,option_num_selected,preview_timestamps,final_text_selected_time_stamp,rt_first_option_click,rt_final_option_click,rt_submit_click,questionnaire,trial_type,trial_index,time_elapsed,internal_node_id,Demographic_Submission id,Demographic_Status,Demographic_Started at,Demographic_Completed at,Demographic_Reviewed at,Demographic_Archived at,Demographic_Time taken,Demographic_Completion code,Demographic_Total approvals,Demographic_Age,Demographic_Sex,Demographic_Ethnicity simplified,Demographic_Country of birth,Demographic_Country of residence,Demographic_Nationality,Demographic_Language,Demographic_Student status,Demographic_Employment status,Demographic_Custom study tncs accepted at
5dd0749782569a156ed4f658,<b>Knowing what?s true and knowing what to do about it are usually basically the same.,Highly disagree,1/94,Somewhat disagree,2,1708007578946,1708007587789,\Somewhat disagree\,\Somewhat disagree\,\2\,1708007586326,1708007586326,7380,7380,8843,buq,qns-item-noham,1,13121,0.0-1.0-0.0,65ce20787311e0807fe3bf8b,AWAITING REVIEW,2024-02-15T14:32:31.249000Z,2024-02-15T14:41:09.699000Z,,2024-02-15T14:41:10.490522Z,519.0,CVPIIDEI,1805,30,Male,White,United States,United States,United States,English,No,Full-Time,Not Applicable
5dd0749782569a156ed4f658,<b>Most people just believe whatever is convenient for them.,Highly disagree,2/94,Somewhat agree,3,1708007587792,1708007590720,\Somewhat agree\,\Somewhat agree\,\3\,1708007589998,1708007589998,2206,2206,2928,buq,qns-item-noham,2,16052,0.0-1.0-0.1,65ce20787311e0807fe3bf8b,AWAITING REVIEW,2024-02-15T14:32:31.249000Z,2024-02-15T14:41:09.699000Z,,2024-02-15T14:41:10.490522Z,519.0,CVPIIDEI,1805,30,Male,White,United States,United States,United States,English,No,Full-Time,Not Applicable
5dd0749782569a156ed4f658,<b>Having some big beliefs helps me sort out minor ones.,Highly disagree,3/94,Somewhat agree,3,1708007590725,1708007594041,\Somewhat agree\,\Somewhat agree\,\3\,1708007593384,1708007593384,2659,2659,3316,buq,qns-item-noham,3,19373,0.0-1.0-0.2,65ce20787311e0807fe3bf8b,AWAITING REVIEW,2024-02-15T14:32:31.249000Z,2024-02-15T14:41:09.699000Z,,2024-02-15T14:41:10.490522Z,519.0,CVPIIDEI,1805,30,Male,White,United States,United States,United States,English,No,Full-Time,Not Applicable
5dd0749782569a156ed4f658,<b>Political questions are usually pretty complicated.,Highly disagree,4/94,Somewhat agree,3,1708007594053,1708007597885,\Somewhat agree\,\Somewhat agree\,\3\,1708007597257,1708007597257,3204,3204,3832,buq,qns-item-noham,4,23218,0.0-1.0-0.3,65ce20787311e0807fe3bf8b,AWAITING REVIEW,2024-02-15T14:32:31.249000Z,2024-02-15T14:41:09.699000Z,,2024-02-15T14:41:10.490522Z,519.0,CVPIIDEI,1805,30,Male,White,United States,United States,United States,English,No,Full-Time,Not Applicable
5dd0749782569a156ed4f658,<b>Figuring out what?s important in life requires learning a lot of facts.,Highly disagree,5/94,Somewhat agree,3,1708007597890,1708007602329,\Somewhat agree\,\Somewhat agree\,\3\,1708007601544,1708007601544,3654,3654,4439,buq,qns-item-noham,5,27661,0.0-1.0-0.4,65ce20787311e0807fe3bf8b,AWAITING REVIEW,2024-02-15T14:32:31.249000Z,2024-02-15T14:41:09.699000Z,,2024-02-15T14:41:10.490522Z,519.0,CVPIIDEI,1805,30,Male,White,United States,United States,United States,English,No,Full-Time,Not Applicable
5dd0749782569a156ed4f658,<b>It is difficult for me to remember the last time I was surprised by politics.,Highly disagree,6/94,Somewhat agree,3,1708007602333,1708007609072,\Somewhat agree\,\Somewhat agree\,\3\,1708007606475,1708007606475,4142,4142,6739,buq,qns-item-noham,6,34404,0.0-1.0-0.5,65ce20787311e0807fe3bf8b,AWAITING REVIEW,2024-02-15T14:32:31.249000Z,2024-02-15T14:41:09.699000Z,,2024-02-15T14:41:10.490522Z,519.0,CVPIIDEI,1805,30,Male,White,United States,United States,United States,English,No,Full-Time,Not Applicable
5dd0749782569a156ed4f658,<b>People?s false beliefs are understandable.,Highly disagree,7/94,Somewhat agree,3,1708007609075,1708007612809,\Somewhat agree\,\Somewhat agree\,\3\,1708007611909,1708007611909,2834,2834,3734,buq,qns-item-noham,7,38141,0.0-1.0-0.6,65ce20787311e0807fe3bf8b,AWAITING REVIEW,2024-02-15T14:32:31.249000Z,2024-02-15T14:41:09.699000Z,,2024-02-15T14:41:10.490522Z,519.0,CVPIIDEI,1805,30,Male,White,United States,United States,United States,English,No,Full-Time,Not Applicable
5dd0749782569a156ed4f658,<b>I spend a lot of time trying to be informed about politics.,Highly disagree,8/94,Somewhat disagree,2,1708007612816,1708007616570,\Somewhat disagree\,\Somewhat disagree\,\2\,1708007615697,1708007615697,2881,2881,3754,buq,qns-item-noham,8,41902,0.0-1.0-0.7,65ce20787311e0807fe3bf8b,AWAITING REVIEW,2024-02-15T14:32:31.249000Z,2024-02-15T14:41:09.699000Z,,2024-02-15T14:41:10.490522Z,519.0,CVPIIDEI,1805,30,Male,White,United States,United States,United States,English,No,Full-Time,Not Applicable
5dd0749782569a156ed4f658,<b>I think a lot about whether my beliefs are right.,Highly disagree,9/94,Somewhat agree,3,1708007616573,1708007620200,\Somewhat agree\,\Somewhat agree\,\3\,1708007619463,1708007619463,2890,2890,3627,buq,qns-item-noham,9,45532,0.0-1.0-0.8,65ce20787311e0807fe3bf8b,AWAITING REVIEW,2024-02-15T14:32:31.249000Z,2024-02-15T14:41:09.699000Z,,2024-02-15T14:41:10.490522Z,519.0,CVPIIDEI,1805,30,Male,White,United States,United States,United States,English,No,Full-Time,Not Applicable
5dd0749782569a156ed4f658,<b>Statistics can be pretty misleading sometimes.,Highly disagree,10/94,Highly agree,4,1708007620203,1708007623605,\Highly agree\,\Highly agree\,\4\,1708007622693,1708007622693,2490,2490,3402,buq,qns-item-noham,10,48937,0.0-1.0-0.9,65ce20787311e0807fe3bf8b,AWAITING REVIEW,2024-02-15T14:32:31.249000Z,2024-02-15T14:41:09.699000Z,,2024-02-15T14:41:10.490522Z,519.0,CVPIIDEI,1805,30,Male,White,United States,United States,United States,English,No,Full-Time,Not Applicable
5dd0749782569a156ed4f658,<b>I have lots of beliefs that I?m only sort of sure about.,Highly disagree,11/94,Somewhat agree,3,1708007623608,1708007630319,\Somewhat agree\,\Somewhat agree\,\3\,1708007628883,1708007628883,5275,5275,6711,buq,qns-item-noham,11,55651,0.0-1.0-0.10,65ce20787311e0807fe3bf8b,AWAITING REVIEW,2024-02-15T14:32:31.249000Z,2024-02-15T14:41:09.699000Z,,2024-02-15T14:41:10.490522Z,519.0,CVPIIDEI,1805,30,Male,White,United States,United States,United States,English,No,Full-Time,Not Applicable
5dd0749782569a156ed4f658,"<b>If I go to my favorite restaurant and the food is surprisingly bad, it reminds me there are many disappointments in life.",Highly disagree,12/94,Somewhat agree,3,1708007630323,1708007635168,\Somewhat agree\,\Somewhat agree\,\3\,1708007634501,1708007634501,4178,4178,4845,buq,qns-item-noham,12,60500,0.0-1.0-0.11,65ce20787311e0807fe3bf8b,AWAITING REVIEW,2024-02-15T14:32:31.249000Z,2024-02-15T14:41:09.699000Z,,2024-02-15T14:41:10.490522Z,519.0,CVPIIDEI,1805,30,Male,White,United States,United States,United States,English,No,Full-Time,Not Applicable
5dd0749782569a156ed4f658,"<b>If you are paying attention, please select ?Somewhat agree?",Highly disagree,13/94,Somewhat agree,3,1708007635171,1708007638408,\Somewhat agree\,\Somewhat agree\,\3\,1708007637806,1708007637806,2635,2635,3237,buq,qns-item-noham,13,63740,0.0-1.0-0.12,65ce20787311e0807fe3bf8b,AWAITING REVIEW,2024-02-15T14:32:31.249000Z,2024-02-15T14:41:09.699000Z,,2024-02-15T14:41:10.490522Z,519.0,CVPIIDEI,1805,30,Male,White,United States,United States,United States,English,No,Full-Time,Not Applicable
5dd0749782569a156ed4f658,"<b>When I talk to others, I often worry I?ll convince them of something I didn?t mean to.",Highly disagree,14/94,Somewhat disagree,2,1708007638411,1708007647164,\Somewhat disagree\,\Somewhat disagree\,\2\,1708007646488,1708007646488,8077,8077,8753,buq,qns-item-noham,14,72496,0.0-1.0-0.13,65ce20787311e0807fe3bf8b,AWAITING REVIEW,2024-02-15T14:32:31.249000Z,2024-02-15T14:41:09.699000Z,,2024-02-15T14:41:10.490522Z,519.0,CVPIIDEI,1805,30,Male,White,United States,United States,United States,English,No,Full-Time,Not Applicable
5dd0749782569a156ed4f658,<b>I would need to learn something utterly shocking about my party in order to change my political views.,Highly disagree,15/94,Somewhat agree,3,1708007647167,1708007652639,\Somewhat agree\,\Somewhat agree\,\3\,1708007651869,1708007651869,4702,4702,5472,buq,qns-item-noham,15,77971,0.0-1.0-0.14,65ce20787311e0807fe3bf8b,AWAITING REVIEW,2024-02-15T14:32:31.249000Z,2024-02-15T14:41:09.699000Z,,2024-02-15T14:41:10.490522Z,519.0,CVPIIDEI,1805,30,Male,White,United States,United States,United States,English,No,Full-Time,Not Applicable
5dd0749782569a156ed4f658,"<b>When I have new experiences, I tend to think of them as unique.",Highly disagree,16/94,Somewhat agree,3,1708007652642,1708007656674,\Somewhat agree\,\Somewhat agree\,\3\,1708007655828,1708007655828,3186,3186,4032,buq,qns-item-noham,16,82006,0.0-1.0-0.15,65ce20787311e0807fe3bf8b,AWAITING REVIEW,2024-02-15T14:32:31.249000Z,2024-02-15T14:41:09.699000Z,,2024-02-15T14:41:10.490522Z,519.0,CVPIIDEI,1805,30,Male,White,United States,United States,United States,English,No,Full-Time,Not Applicable
5dd0749782569a156ed4f658,<b>I change my mind about specific policies pretty frequently.,Highly disagree,17/94,Somewhat disagree,2,1708007656677,1708007660132,\Somewhat disagree\,\Somewhat disagree\,\2\,1708007659360,1708007659360,2683,2683,3455,buq,qns-item-noham,17,85464,0.0-1.0-0.16,65ce20787311e0807fe3bf8b,AWAITING REVIEW,2024-02-15T14:32:31.249000Z,2024-02-15T14:41:09.699000Z,,2024-02-15T14:41:10.490522Z,519.0,CVPIIDEI,1805,30,Male,White,United States,United States,United States,English,No,Full-Time,Not Applicable
5dd0749782569a156ed4f658,"<b>If a politician in my political party supports something I disagree with, I give them the benefit of the doubt, as such issues often involve hidden complexities that aren?t obvious.   ",Highly disagree,18/94,Somewhat agree,3,1708007660135,1708007665682,\Somewhat agree\,\Somewhat agree\,\3\,1708007665054,1708007665054,4919,4919,5547,buq,qns-item-noham,18,91014,0.0-1.0-0.17,65ce20787311e0807fe3bf8b,AWAITING REVIEW,2024-02-15T14:32:31.249000Z,2024-02-15T14:41:09.699000Z,,2024-02-15T14:41:10.490522Z,519.0,CVPIIDEI,1805,30,Male,White,United States,United States,United States,English,No,Full-Time,Not Applicable
5dd0749782569a156ed4f658,<b>People?s bad politics are usually motivated by hatefulness.,Highly disagree,19/94,Somewhat disagree,2,1708007665686,1708007670778,\Somewhat disagree\,\Somewhat disagree\,\2\,1708007670089,1708007670089,4403,4403,5092,buq,qns-item-noham,19,96110,0.0-1.0-0.18,65ce20787311e0807fe3bf8b,AWAITING REVIEW,2024-02-15T14:32:31.249000Z,2024-02-15T14:41:09.699000Z,,2024-02-15T14:41:10.490522Z,519.0,CVPIIDEI,1805,30,Male,White,United States,United States,United States,English,No,Full-Time,Not Applicable
5dd0749782569a156ed4f658,<b>I think a lot about how to reconcile my beliefs with one another.,Highly disagree,20/94,Somewhat agree,3,1708007670781,1708007675848,\Somewhat agree\,\Somewhat agree\,\3\,1708007675085,1708007675085,4304,4304,5067,buq,qns-item-noham,20,101180,0.0-1.0-0.19,65ce20787311e0807fe3bf8b,AWAITING REVIEW,2024-02-15T14:32:31.249000Z,2024-02-15T14:41:09.699000Z,,2024-02-15T14:41:10.490522Z,519.0,CVPIIDEI,1805,30,Male,White,United States,United States,United States,English,No,Full-Time,Not Applicable
5dd0749782569a156ed4f658,<b>I might have false beliefs about important topics.,Highly disagree,21/94,Somewhat disagree,2,1708007675850,1708007684447,\Somewhat disagree\,\Somewhat disagree\,\2\,1708007678107,1708007678107,2257,2257,8597,buq,qns-item-noham,21,109779,0.0-1.0-0.20,65ce20787311e0807fe3bf8b,AWAITING REVIEW,2024-02-15T14:32:31.249000Z,2024-02-15T14:41:09.699000Z,,2024-02-15T14:41:10.490522Z,519.0,CVPIIDEI,1805,30,Male,White,United States,United States,United States,English,No,Full-Time,Not Applicable
5dd0749782569a156ed4f658,"<b>If a good friend of mine does something unexpected that upsets me, I feel like I don?t know them anymore.",Highly disagree,22/94,Somewhat disagree,2,1708007684451,1708007692193,\Somewhat disagree\,\Somewhat disagree\,\2\,1708007691483,1708007691483,7032,7032,7742,buq,qns-item-noham,22,117525,0.0-1.0-0.21,65ce20787311e0807fe3bf8b,AWAITING REVIEW,2024-02-15T14:32:31.249000Z,2024-02-15T14:41:09.699000Z,,2024-02-15T14:41:10.490522Z,519.0,CVPIIDEI,1805,30,Male,White,United States,United States,United States,English,No,Full-Time,Not Applicable
5dd0749782569a156ed4f658,<b>Other people?s beliefs are often incoherent.,Highly disagree,23/94,Somewhat agree,3,1708007692197,1708007695076,\Somewhat agree\,\Somewhat agree\,\3\,1708007694285,1708007694285,2088,2088,2879,buq,qns-item-noham,23,120408,0.0-1.0-0.22,65ce20787311e0807fe3bf8b,AWAITING REVIEW,2024-02-15T14:32:31.249000Z,2024-02-15T14:41:09.699000Z,,2024-02-15T14:41:10.490522Z,519.0,CVPIIDEI,1805,30,Male,White,United States,United States,United States,English,No,Full-Time,Not Applicable
5dd0749782569a156ed4f658,"<b>Every now and then, a new experience will unsettle beliefs I?ve had for a while.",Highly disagree,24/94,Somewhat agree,3,1708007695079,1708007701823,\Somewhat agree\,\Somewhat agree\,\3\,1708007701263,1708007701263,6184,6184,6744,buq,qns-item-noham,24,127155,0.0-1.0-0.23,65ce20787311e0807fe3bf8b,AWAITING REVIEW,2024-02-15T14:32:31.249000Z,2024-02-15T14:41:09.699000Z,,2024-02-15T14:41:10.490522Z,519.0,CVPIIDEI,1805,30,Male,White,United States,United States,United States,English,No,Full-Time,Not Applicable
5dd0749782569a156ed4f658,<b>Some policies I agree with in principle are so bad I don?t support them. ,Highly disagree,25/94,Somewhat agree,3,1708007701825,1708007705582,\Somewhat agree\,\Somewhat agree\,\3\,1708007704711,1708007704711,2886,2886,3757,buq,qns-item-noham,25,130915,0.0-1.0-0.24,65ce20787311e0807fe3bf8b,AWAITING REVIEW,2024-02-15T14:32:31.249000Z,2024-02-15T14:41:09.699000Z,,2024-02-15T14:41:10.490522Z,519.0,CVPIIDEI,1805,30,Male,White,United States,United States,United States,English,No,Full-Time,Not Applicable
5dd0749782569a156ed4f658,<b>I?m pretty sure I?ve accidentally spread false information.,Highly disagree,26/94,Highly disagree,1,1708007705585,1708007709002,\Highly disagree\,\Highly disagree\,\1\,1708007708327,1708007708327,2742,2742,3417,buq,qns-item-noham,26,134334,0.0-1.0-0.25,65ce20787311e0807fe3bf8b,AWAITING REVIEW,2024-02-15T14:32:31.249000Z,2024-02-15T14:41:09.699000Z,,2024-02-15T14:41:10.490522Z,519.0,CVPIIDEI,1805,30,Male,White,United States,United States,United States,English,No,Full-Time,Not Applicable
5dd0749782569a156ed4f658,"<b>If I go to my favorite restaurant and the food is unexpectedly bad, then they have changed owners.",Highly disagree,27/94,Somewhat disagree,2,1708007709018,1708007714475,\Somewhat disagree\,\Somewhat disagree\,\2\,1708007712561,1708007712561,3543,3543,5457,buq,qns-item-noham,27,139807,0.0-1.0-0.26,65ce20787311e0807fe3bf8b,AWAITING REVIEW,2024-02-15T14:32:31.249000Z,2024-02-15T14:41:09.699000Z,,2024-02-15T14:41:10.490522Z,519.0,CVPIIDEI,1805,30,Male,White,United States,United States,United States,English,No,Full-Time,Not Applicable
5dd0749782569a156ed4f658,"<b>In politics, it?s important to trust your friends and family.",Highly disagree,28/94,Somewhat disagree,2,1708007714478,1708007718736,\Somewhat disagree\,\Somewhat disagree\,\2\,1708007717925,1708007717925,3447,3447,4258,buq,qns-item-noham,28,144068,0.0-1.0-0.27,65ce20787311e0807fe3bf8b,AWAITING REVIEW,2024-02-15T14:32:31.249000Z,2024-02-15T14:41:09.699000Z,,2024-02-15T14:41:10.490522Z,519.0,CVPIIDEI,1805,30,Male,White,United States,United States,United States,English,No,Full-Time,Not Applicable
5dd0749782569a156ed4f658,<b>It?s OK to have some conflicting beliefs.,Highly disagree,29/94,Somewhat agree,3,1708007718738,1708007721504,\Somewhat agree\,\Somewhat agree\,\3\,1708007720793,1708007720793,2055,2055,2766,buq,qns-item-noham,29,146836,0.0-1.0-0.28,65ce20787311e0807fe3bf8b,AWAITING REVIEW,2024-02-15T14:32:31.249000Z,2024-02-15T14:41:09.699000Z,,2024-02-15T14:41:10.490522Z,519.0,CVPIIDEI,1805,30,Male,White,United States,United States,United States,English,No,Full-Time,Not Applicable
5dd0749782569a156ed4f658,<b>Listening to people I disagree with makes my opinions better.,Highly disagree,30/94,Somewhat agree,3,1708007721507,1708007725203,\Somewhat agree\,\Somewhat agree\,\3\,1708007724497,1708007724497,2990,2990,3696,buq,qns-item-noham,30,150535,0.0-1.0-0.29,65ce20787311e0807fe3bf8b,AWAITING REVIEW,2024-02-15T14:32:31.249000Z,2024-02-15T14:41:09.699000Z,,2024-02-15T14:41:10.490522Z,519.0,CVPIIDEI,1805,30,Male,White,United States,United States,United States,English,No,Full-Time,Not Applicable
5dd0749782569a156ed4f658,<b>My moral compass sometimes makes it harder to determine what?s true.,Highly disagree,31/94,Somewhat agree,3,1708007725213,1708007732373,\Somewhat agree\,\Somewhat agree\,\3\,1708007731178,1708007731178,5965,5965,7160,buq,qns-item-noham,31,157705,0.0-1.0-0.30,65ce20787311e0807fe3bf8b,AWAITING REVIEW,2024-02-15T14:32:31.249000Z,2024-02-15T14:41:09.699000Z,,2024-02-15T14:41:10.490522Z,519.0,CVPIIDEI,1805,30,Male,White,United States,United States,United States,English,No,Full-Time,Not Applicable
5dd0749782569a156ed4f658,<b>Evidence pointing in the wrong direction isn?t really evidence at all.,Highly disagree,32/94,Somewhat disagree,2,1708007732376,1708007739975,\Somewhat agree\,\Somewhat disagree\,\3\,1708007738395,1708007739328,6019,6952,7599,buq,qns-item-noham,32,165307,0.0-1.0-0.31,65ce20787311e0807fe3bf8b,AWAITING REVIEW,2024-02-15T14:32:31.249000Z,2024-02-15T14:41:09.699000Z,,2024-02-15T14:41:10.490522Z,519.0,CVPIIDEI,1805,30,Male,White,United States,United States,United States,English,No,Full-Time,Not Applicable
5dd0749782569a156ed4f658,"<b>If the political party I support messes up, it makes me think politics is rotten.",Highly disagree,33/94,Somewhat disagree,2,1708007739978,1708007745097,\Somewhat disagree\,\Somewhat disagree\,\2\,1708007744446,1708007744446,4468,4468,5119,buq,qns-item-noham,33,170430,0.0-1.0-0.32,65ce20787311e0807fe3bf8b,AWAITING REVIEW,2024-02-15T14:32:31.249000Z,2024-02-15T14:41:09.699000Z,,2024-02-15T14:41:10.490522Z,519.0,CVPIIDEI,1805,30,Male,White,United States,United States,United States,English,No,Full-Time,Not Applicable
5dd0749782569a156ed4f658,<b>Lots of important topics can only really be understood by some groups of people.,Highly disagree,34/94,Somewhat disagree,2,1708007745101,1708007751079,\Somewhat agree\,\Somewhat disagree\,\3\,1708007749331,1708007750332,4230,5231,5978,buq,qns-item-noham,34,176411,0.0-1.0-0.33,65ce20787311e0807fe3bf8b,AWAITING REVIEW,2024-02-15T14:32:31.249000Z,2024-02-15T14:41:09.699000Z,,2024-02-15T14:41:10.490522Z,519.0,CVPIIDEI,1805,30,Male,White,United States,United States,United States,English,No,Full-Time,Not Applicable
5dd0749782569a156ed4f658,<b>Having conflicting beliefs means you haven?t thought about them enough.,Highly disagree,35/94,Somewhat disagree,2,1708007751082,1708007755727,\Somewhat disagree\,\Somewhat disagree\,\2\,1708007754423,1708007754423,3341,3341,4645,buq,qns-item-noham,35,181059,0.0-1.0-0.34,65ce20787311e0807fe3bf8b,AWAITING REVIEW,2024-02-15T14:32:31.249000Z,2024-02-15T14:41:09.699000Z,,2024-02-15T14:41:10.490522Z,519.0,CVPIIDEI,1805,30,Male,White,United States,United States,United States,English,No,Full-Time,Not Applicable
5dd0749782569a156ed4f658,<b>I do not often change my political opinions.,Highly disagree,36/94,Somewhat agree,3,1708007755730,1708007759478,\Somewhat agree\,\Somewhat agree\,\3\,1708007758744,1708007758744,3014,3014,3748,buq,qns-item-noham,36,184811,0.0-1.0-0.35,65ce20787311e0807fe3bf8b,AWAITING REVIEW,2024-02-15T14:32:31.249000Z,2024-02-15T14:41:09.699000Z,,2024-02-15T14:41:10.490522Z,519.0,CVPIIDEI,1805,30,Male,White,United States,United States,United States,English,No,Full-Time,Not Applicable
5dd0749782569a156ed4f658,<b>It?s difficult to not have at least some conflicting beliefs.,Highly disagree,37/94,Somewhat agree,3,1708007759481,1708007763177,\Somewhat agree\,\Somewhat agree\,\3\,1708007762542,1708007762542,3061,3061,3696,buq,qns-item-noham,37,188509,0.0-1.0-0.36,65ce20787311e0807fe3bf8b,AWAITING REVIEW,2024-02-15T14:32:31.249000Z,2024-02-15T14:41:09.699000Z,,2024-02-15T14:41:10.490522Z,519.0,CVPIIDEI,1805,30,Male,White,United States,United States,United States,English,No,Full-Time,Not Applicable
5dd0749782569a156ed4f658,<b>Wishful thinking causes a lot of problems.,Highly disagree,38/94,Somewhat agree,3,1708007763180,1708007768131,\Somewhat agree\,\Somewhat agree\,\3\,1708007767454,1708007767454,4274,4274,4951,buq,qns-item-noham,38,193463,0.0-1.0-0.37,65ce20787311e0807fe3bf8b,AWAITING REVIEW,2024-02-15T14:32:31.249000Z,2024-02-15T14:41:09.699000Z,,2024-02-15T14:41:10.490522Z,519.0,CVPIIDEI,1805,30,Male,White,United States,United States,United States,English,No,Full-Time,Not Applicable
5dd0749782569a156ed4f658,<b>I judge a food item only once I try it many times.,Highly disagree,39/94,Somewhat agree,3,1708007768134,1708007772798,\Somewhat agree\,\Somewhat agree\,\3\,1708007771428,1708007771428,3294,3294,4664,buq,qns-item-noham,39,198130,0.0-1.0-0.38,65ce20787311e0807fe3bf8b,AWAITING REVIEW,2024-02-15T14:32:31.249000Z,2024-02-15T14:41:09.699000Z,,2024-02-15T14:41:10.490522Z,519.0,CVPIIDEI,1805,30,Male,White,United States,United States,United States,English,No,Full-Time,Not Applicable
5dd0749782569a156ed4f658,"<b>When a person holds conflicting beliefs, they should really try to figure out what?s wrong.",Highly disagree,40/94,Somewhat agree,3,1708007772801,1708007779721,\Somewhat agree\,\Somewhat agree\,\3\,1708007778932,1708007778932,6131,6131,6920,buq,qns-item-noham,40,205053,0.0-1.0-0.39,65ce20787311e0807fe3bf8b,AWAITING REVIEW,2024-02-15T14:32:31.249000Z,2024-02-15T14:41:09.699000Z,,2024-02-15T14:41:10.490522Z,519.0,CVPIIDEI,1805,30,Male,White,United States,United States,United States,English,No,Full-Time,Not Applicable
5dd0749782569a156ed4f658,<b>Knowing what?s important in life is easy.,Highly disagree,41/94,Highly disagree,1,1708007779725,1708007783220,\Highly disagree\,\Highly disagree\,\1\,1708007782325,1708007782325,2600,2600,3495,buq,qns-item-noham,41,208552,0.0-1.0-0.40,65ce20787311e0807fe3bf8b,AWAITING REVIEW,2024-02-15T14:32:31.249000Z,2024-02-15T14:41:09.699000Z,,2024-02-15T14:41:10.490522Z,519.0,CVPIIDEI,1805,30,Male,White,United States,United States,United States,English,No,Full-Time,Not Applicable
5dd0749782569a156ed4f658,<b>I swim across the Atlantic Ocean to get to work every day.,Highly disagree,42/94,Highly disagree,1,1708007783223,1708007786097,\Highly disagree\,\Highly disagree\,\1\,1708007785119,1708007785119,1896,1896,2874,buq,qns-item-noham,42,211429,0.0-1.0-0.41,65ce20787311e0807fe3bf8b,AWAITING REVIEW,2024-02-15T14:32:31.249000Z,2024-02-15T14:41:09.699000Z,,2024-02-15T14:41:10.490522Z,519.0,CVPIIDEI,1805,30,Male,White,United States,United States,United States,English,No,Full-Time,Not Applicable
5dd0749782569a156ed4f658,"<b>Sometimes, you just have to ignore evidence that you know is wrong.",Highly disagree,43/94,Somewhat disagree,2,1708007786100,1708007795916,\Somewhat agree\,\Somewhat disagree\,\3\,1708007793622,1708007795196,7522,9096,9816,buq,qns-item-noham,43,221248,0.0-1.0-0.42,65ce20787311e0807fe3bf8b,AWAITING REVIEW,2024-02-15T14:32:31.249000Z,2024-02-15T14:41:09.699000Z,,2024-02-15T14:41:10.490522Z,519.0,CVPIIDEI,1805,30,Male,White,United States,United States,United States,English,No,Full-Time,Not Applicable
5dd0749782569a156ed4f658,<b>I have had some false beliefs.,Highly disagree,44/94,Somewhat agree,3,1708007795919,1708007798508,\Somewhat agree\,\Somewhat agree\,\3\,1708007797840,1708007797840,1921,1921,2589,buq,qns-item-noham,44,223840,0.0-1.0-0.43,65ce20787311e0807fe3bf8b,AWAITING REVIEW,2024-02-15T14:32:31.249000Z,2024-02-15T14:41:09.699000Z,,2024-02-15T14:41:10.490522Z,519.0,CVPIIDEI,1805,30,Male,White,United States,United States,United States,English,No,Full-Time,Not Applicable
5dd0749782569a156ed4f658,"<b>If one friend does something that upsets me, I sometimes start to distrust people in general.",Highly disagree,45/94,Somewhat agree,3,1708007798511,1708007802582,\Somewhat agree\,\Somewhat agree\,\3\,1708007801972,1708007801972,3461,3461,4071,buq,qns-item-noham,45,227914,0.0-1.0-0.44,65ce20787311e0807fe3bf8b,AWAITING REVIEW,2024-02-15T14:32:31.249000Z,2024-02-15T14:41:09.699000Z,,2024-02-15T14:41:10.490522Z,519.0,CVPIIDEI,1805,30,Male,White,United States,United States,United States,English,No,Full-Time,Not Applicable
5dd0749782569a156ed4f658,<b>The facts about most important matters are easy to find.,Highly disagree,46/94,Somewhat disagree,2,1708007802585,1708007810289,\Somewhat disagree\,\Somewhat disagree\,\2\,1708007809728,1708007809728,7143,7143,7704,buq,qns-item-noham,46,235621,0.0-1.0-0.45,65ce20787311e0807fe3bf8b,AWAITING REVIEW,2024-02-15T14:32:31.249000Z,2024-02-15T14:41:09.699000Z,,2024-02-15T14:41:10.490522Z,519.0,CVPIIDEI,1805,30,Male,White,United States,United States,United States,English,No,Full-Time,Not Applicable
5dd0749782569a156ed4f658,<b>It?s better to know what?s true than to know what?s moral.,Highly disagree,47/94,Somewhat agree,3,1708007810292,1708007815295,\Somewhat agree\,\Somewhat agree\,\3\,1708007814687,1708007814687,4395,4395,5003,buq,qns-item-noham,47,240627,0.0-1.0-0.46,65ce20787311e0807fe3bf8b,AWAITING REVIEW,2024-02-15T14:32:31.249000Z,2024-02-15T14:41:09.699000Z,,2024-02-15T14:41:10.490522Z,519.0,CVPIIDEI,1805,30,Male,White,United States,United States,United States,English,No,Full-Time,Not Applicable
5dd0749782569a156ed4f658,<b>I used to think the world was less complicated than I do now.,Highly disagree,48/94,Somewhat agree,3,1708007815298,1708007819606,\Somewhat agree\,\Somewhat agree\,\3\,1708007818537,1708007818537,3239,3239,4308,buq,qns-item-noham,48,244938,0.0-1.0-0.47,65ce20787311e0807fe3bf8b,AWAITING REVIEW,2024-02-15T14:32:31.249000Z,2024-02-15T14:41:09.699000Z,,2024-02-15T14:41:10.490522Z,519.0,CVPIIDEI,1805,30,Male,White,United States,United States,United States,English,No,Full-Time,Not Applicable
5dd0749782569a156ed4f658,<b>People are usually completely right or completely wrong.,Highly disagree,49/94,Highly disagree,1,1708007819610,1708007822677,\Highly disagree\,\Highly disagree\,\1\,1708007822019,1708007822019,2409,2409,3067,buq,qns-item-noham,49,248009,0.0-1.0-0.48,65ce20787311e0807fe3bf8b,AWAITING REVIEW,2024-02-15T14:32:31.249000Z,2024-02-15T14:41:09.699000Z,,2024-02-15T14:41:10.490522Z,519.0,CVPIIDEI,1805,30,Male,White,United States,United States,United States,English,No,Full-Time,Not Applicable
5dd0749782569a156ed4f658,<b>I spend a lot of time considering alternatives to my beliefs.,Highly disagree,50/94,Somewhat agree,3,1708007822680,1708007825579,\Somewhat agree\,\Somewhat agree\,\3\,1708007824989,1708007824989,2309,2309,2899,buq,qns-item-noham,50,250911,0.0-1.0-0.49,65ce20787311e0807fe3bf8b,AWAITING REVIEW,2024-02-15T14:32:31.249000Z,2024-02-15T14:41:09.699000Z,,2024-02-15T14:41:10.490522Z,519.0,CVPIIDEI,1805,30,Male,White,United States,United States,United States,English,No,Full-Time,Not Applicable
5dd0749782569a156ed4f658,"<b>Political enemies need to be defeated, not convinced.",Highly disagree,51/94,Somewhat disagree,2,1708007825583,1708007828636,\Somewhat disagree\,\Somewhat disagree\,\2\,1708007827757,1708007827757,2174,2174,3053,buq,qns-item-noham,51,253968,0.0-1.0-0.50,65ce20787311e0807fe3bf8b,AWAITING REVIEW,2024-02-15T14:32:31.249000Z,2024-02-15T14:41:09.699000Z,,2024-02-15T14:41:10.490522Z,519.0,CVPIIDEI,1805,30,Male,White,United States,United States,United States,English,No,Full-Time,Not Applicable
5dd0749782569a156ed4f658,<b>I form my political views only after meticulously gathering historical and present information about their policies.,Highly disagree,52/94,Somewhat agree,3,1708007828639,1708007835418,\Somewhat agree\,\Somewhat agree\,\3\,1708007834744,1708007834744,6105,6105,6779,buq,qns-item-noham,52,260750,0.0-1.0-0.51,65ce20787311e0807fe3bf8b,AWAITING REVIEW,2024-02-15T14:32:31.249000Z,2024-02-15T14:41:09.699000Z,,2024-02-15T14:41:10.490522Z,519.0,CVPIIDEI,1805,30,Male,White,United States,United States,United States,English,No,Full-Time,Not Applicable
5dd0749782569a156ed4f658,<b>It is difficult for me to remember the last time I was surprised by politics.,Highly disagree,53/94,Somewhat agree,3,1708007835420,1708007838702,\Somewhat agree\,\Somewhat agree\,\3\,1708007838113,1708007838113,2693,2693,3282,buq,qns-item-noham,53,264034,0.0-1.0-0.52,65ce20787311e0807fe3bf8b,AWAITING REVIEW,2024-02-15T14:32:31.249000Z,2024-02-15T14:41:09.699000Z,,2024-02-15T14:41:10.490522Z,519.0,CVPIIDEI,1805,30,Male,White,United States,United States,United States,English,No,Full-Time,Not Applicable
5dd0749782569a156ed4f658,"<b>When I find out I?m wrong, I think a lot about my related beliefs.",Highly disagree,54/94,Somewhat agree,3,1708007838705,1708007842224,\Somewhat agree\,\Somewhat agree\,\3\,1708007841594,1708007841594,2889,2889,3519,buq,qns-item-noham,54,267556,0.0-1.0-0.53,65ce20787311e0807fe3bf8b,AWAITING REVIEW,2024-02-15T14:32:31.249000Z,2024-02-15T14:41:09.699000Z,,2024-02-15T14:41:10.490522Z,519.0,CVPIIDEI,1805,30,Male,White,United States,United States,United States,English,No,Full-Time,Not Applicable
5dd0749782569a156ed4f658,"<b>If the political party I support messes up, it makes me think you can?t trust anyone these days",Highly disagree,55/94,Somewhat disagree,2,1708007842227,1708007846219,\Somewhat disagree\,\Somewhat disagree\,\2\,1708007845655,1708007845655,3428,3428,3992,buq,qns-item-noham,55,271551,0.0-1.0-0.54,65ce20787311e0807fe3bf8b,AWAITING REVIEW,2024-02-15T14:32:31.249000Z,2024-02-15T14:41:09.699000Z,,2024-02-15T14:41:10.490522Z,519.0,CVPIIDEI,1805,30,Male,White,United States,United States,United States,English,No,Full-Time,Not Applicable
5dd0749782569a156ed4f658,<b>People?s brains turn off when they talk about politics.,Highly disagree,56/94,Somewhat agree,3,1708007846227,1708007850636,\Somewhat agree\,\Somewhat agree\,\3\,1708007849757,1708007849757,3530,3530,4409,buq,qns-item-noham,56,275968,0.0-1.0-0.55,65ce20787311e0807fe3bf8b,AWAITING REVIEW,2024-02-15T14:32:31.249000Z,2024-02-15T14:41:09.699000Z,,2024-02-15T14:41:10.490522Z,519.0,CVPIIDEI,1805,30,Male,White,United States,United States,United States,English,No,Full-Time,Not Applicable
5dd0749782569a156ed4f658,<b>People who are wrong are usually just ignoring the obvious.,Highly disagree,57/94,Somewhat disagree,2,1708007850639,1708007857622,\Somewhat disagree\,\Somewhat disagree\,\2\,1708007856643,1708007856643,6004,6004,6983,buq,qns-item-noham,57,282954,0.0-1.0-0.56,65ce20787311e0807fe3bf8b,AWAITING REVIEW,2024-02-15T14:32:31.249000Z,2024-02-15T14:41:09.699000Z,,2024-02-15T14:41:10.490522Z,519.0,CVPIIDEI,1805,30,Male,White,United States,United States,United States,English,No,Full-Time,Not Applicable
5dd0749782569a156ed4f658,"<b>When forming my views on people, I rely more on what they are like now rather than rely on my past experience with them.",Highly disagree,58/94,Somewhat agree,3,1708007857625,1708007867659,\Somewhat agree\,\Somewhat agree\,\3\,1708007866987,1708007866987,9362,9362,10034,buq,qns-item-noham,58,292991,0.0-1.0-0.57,65ce20787311e0807fe3bf8b,AWAITING REVIEW,2024-02-15T14:32:31.249000Z,2024-02-15T14:41:09.699000Z,,2024-02-15T14:41:10.490522Z,519.0,CVPIIDEI,1805,30,Male,White,United States,United States,United States,English,No,Full-Time,Not Applicable
5dd0749782569a156ed4f658,"<b>When people contradict my beliefs, I usually know about their evidence already.",Highly disagree,59/94,Somewhat agree,3,1708007867661,1708007871979,\Somewhat agree\,\Somewhat agree\,\3\,1708007871372,1708007871372,3711,3711,4318,buq,qns-item-noham,59,297311,0.0-1.0-0.58,65ce20787311e0807fe3bf8b,AWAITING REVIEW,2024-02-15T14:32:31.249000Z,2024-02-15T14:41:09.699000Z,,2024-02-15T14:41:10.490522Z,519.0,CVPIIDEI,1805,30,Male,White,United States,United States,United States,English,No,Full-Time,Not Applicable
5dd0749782569a156ed4f658,<b>Figuring out what?s true and what?s false mainly requires a strong moral compass.,Highly disagree,60/94,Somewhat disagree,2,1708007871995,1708007875879,\Somewhat disagree\,\Somewhat disagree\,\2\,1708007875260,1708007875260,3265,3265,3884,buq,qns-item-noham,60,301211,0.0-1.0-0.59,65ce20787311e0807fe3bf8b,AWAITING REVIEW,2024-02-15T14:32:31.249000Z,2024-02-15T14:41:09.699000Z,,2024-02-15T14:41:10.490522Z,519.0,CVPIIDEI,1805,30,Male,White,United States,United States,United States,English,No,Full-Time,Not Applicable
5dd0749782569a156ed4f658,"<b>Usually I?m wrong about simple things, not complicated ones.",Highly disagree,61/94,Somewhat disagree,2,1708007875881,1708007881901,\Somewhat disagree\,\Somewhat disagree\,\2\,1708007881213,1708007881213,5332,5332,6020,buq,qns-item-noham,61,307233,0.0-1.0-0.60,65ce20787311e0807fe3bf8b,AWAITING REVIEW,2024-02-15T14:32:31.249000Z,2024-02-15T14:41:09.699000Z,,2024-02-15T14:41:10.490522Z,519.0,CVPIIDEI,1805,30,Male,White,United States,United States,United States,English,No,Full-Time,Not Applicable
5dd0749782569a156ed4f658,<b>Getting all the information I want about important things is hard.,Highly disagree,62/94,Somewhat agree,3,1708007881904,1708007884788,\Somewhat agree\,\Somewhat agree\,\3\,1708007884221,1708007884221,2317,2317,2884,buq,qns-item-noham,62,310120,0.0-1.0-0.61,65ce20787311e0807fe3bf8b,AWAITING REVIEW,2024-02-15T14:32:31.249000Z,2024-02-15T14:41:09.699000Z,,2024-02-15T14:41:10.490522Z,519.0,CVPIIDEI,1805,30,Male,White,United States,United States,United States,English,No,Full-Time,Not Applicable
5dd0749782569a156ed4f658,<b>Most false beliefs spread because people try to deceive one another.,Highly disagree,63/94,Somewhat agree,3,1708007884791,1708007887837,\Somewhat agree\,\Somewhat agree\,\3\,1708007887247,1708007887247,2456,2456,3046,buq,qns-item-noham,63,313169,0.0-1.0-0.62,65ce20787311e0807fe3bf8b,AWAITING REVIEW,2024-02-15T14:32:31.249000Z,2024-02-15T14:41:09.699000Z,,2024-02-15T14:41:10.490522Z,519.0,CVPIIDEI,1805,30,Male,White,United States,United States,United States,English,No,Full-Time,Not Applicable
5dd0749782569a156ed4f658,<b>I can usually find something to agree with in most people?s beliefs.,Highly disagree,64/94,Somewhat agree,3,1708007887840,1708007892079,\Somewhat agree\,\Somewhat agree\,\3\,1708007891428,1708007891428,3588,3588,4239,buq,qns-item-noham,64,317411,0.0-1.0-0.63,65ce20787311e0807fe3bf8b,AWAITING REVIEW,2024-02-15T14:32:31.249000Z,2024-02-15T14:41:09.699000Z,,2024-02-15T14:41:10.490522Z,519.0,CVPIIDEI,1805,30,Male,White,United States,United States,United States,English,No,Full-Time,Not Applicable
5dd0749782569a156ed4f658,<b>I only form my views of people once I get to know them very well.,Highly disagree,65/94,Somewhat agree,3,1708007892084,1708007895569,\Somewhat agree\,\Somewhat agree\,\3\,1708007894907,1708007894907,2823,2823,3485,buq,qns-item-noham,65,320901,0.0-1.0-0.64,65ce20787311e0807fe3bf8b,AWAITING REVIEW,2024-02-15T14:32:31.249000Z,2024-02-15T14:41:09.699000Z,,2024-02-15T14:41:10.490522Z,519.0,CVPIIDEI,1805,30,Male,White,United States,United States,United States,English,No,Full-Time,Not Applicable
5dd0749782569a156ed4f658,"<b>When people tell me important things about the world, I usually believe them.",Highly disagree,66/94,Somewhat disagree,2,1708007895572,1708007900357,\Somewhat disagree\,\Somewhat disagree\,\2\,1708007899755,1708007899755,4183,4183,4785,buq,qns-item-noham,66,325689,0.0-1.0-0.65,65ce20787311e0807fe3bf8b,AWAITING REVIEW,2024-02-15T14:32:31.249000Z,2024-02-15T14:41:09.699000Z,,2024-02-15T14:41:10.490522Z,519.0,CVPIIDEI,1805,30,Male,White,United States,United States,United States,English,No,Full-Time,Not Applicable
5dd0749782569a156ed4f658,"<b>If a friend does something that upsets me, it reminds me what an unpredictable place the world is.",Highly disagree,67/94,Somewhat agree,3,1708007900360,1708007904526,\Somewhat agree\,\Somewhat agree\,\3\,1708007903971,1708007903971,3611,3611,4166,buq,qns-item-noham,67,329858,0.0-1.0-0.66,65ce20787311e0807fe3bf8b,AWAITING REVIEW,2024-02-15T14:32:31.249000Z,2024-02-15T14:41:09.699000Z,,2024-02-15T14:41:10.490522Z,519.0,CVPIIDEI,1805,30,Male,White,United States,United States,United States,English,No,Full-Time,Not Applicable
5dd0749782569a156ed4f658,<b>People tend to believe whatever is good for their friends.,Highly disagree,68/94,Somewhat agree,3,1708007904529,1708007908777,\Somewhat agree\,\Somewhat agree\,\3\,1708007908261,1708007908261,3732,3732,4248,buq,qns-item-noham,68,334109,0.0-1.0-0.67,65ce20787311e0807fe3bf8b,AWAITING REVIEW,2024-02-15T14:32:31.249000Z,2024-02-15T14:41:09.699000Z,,2024-02-15T14:41:10.490522Z,519.0,CVPIIDEI,1805,30,Male,White,United States,United States,United States,English,No,Full-Time,Not Applicable
5dd0749782569a156ed4f658,<b>I used to be more certain my beliefs were true.,Highly disagree,69/94,Somewhat agree,3,1708007908780,1708007912253,\Somewhat agree\,\Somewhat agree\,\3\,1708007911691,1708007911691,2911,2911,3473,buq,qns-item-noham,69,337585,0.0-1.0-0.68,65ce20787311e0807fe3bf8b,AWAITING REVIEW,2024-02-15T14:32:31.249000Z,2024-02-15T14:41:09.699000Z,,2024-02-15T14:41:10.490522Z,519.0,CVPIIDEI,1805,30,Male,White,United States,United States,United States,English,No,Full-Time,Not Applicable
5dd0749782569a156ed4f658,<b>It?s often pretty easy to figure out whether something is true based on who said it.,Highly disagree,70/94,Somewhat agree,3,1708007912257,1708007916823,\Somewhat agree\,\Somewhat agree\,\3\,1708007916335,1708007916335,4078,4078,4566,buq,qns-item-noham,70,342156,0.0-1.0-0.69,65ce20787311e0807fe3bf8b,AWAITING REVIEW,2024-02-15T14:32:31.249000Z,2024-02-15T14:41:09.699000Z,,2024-02-15T14:41:10.490522Z,519.0,CVPIIDEI,1805,30,Male,White,United States,United States,United States,English,No,Full-Time,Not Applicable
5dd0749782569a156ed4f658,<b>I transform into a hummingbird every day.,Highly disagree,71/94,Highly disagree,1,1708007916828,1708007919638,\Highly disagree\,\Highly disagree\,\1\,1708007918664,1708007918664,1836,1836,2810,buq,qns-item-noham,71,344971,0.0-1.0-0.70,65ce20787311e0807fe3bf8b,AWAITING REVIEW,2024-02-15T14:32:31.249000Z,2024-02-15T14:41:09.699000Z,,2024-02-15T14:41:10.490522Z,519.0,CVPIIDEI,1805,30,Male,White,United States,United States,United States,English,No,Full-Time,Not Applicable
5dd0749782569a156ed4f658,<b>I think a lot about arguments against my views.,Highly disagree,72/94,Somewhat agree,3,1708007919642,1708007922367,\Somewhat agree\,\Somewhat agree\,\3\,1708007921759,1708007921759,2117,2117,2725,buq,qns-item-noham,72,347699,0.0-1.0-0.71,65ce20787311e0807fe3bf8b,AWAITING REVIEW,2024-02-15T14:32:31.249000Z,2024-02-15T14:41:09.699000Z,,2024-02-15T14:41:10.490522Z,519.0,CVPIIDEI,1805,30,Male,White,United States,United States,United States,English,No,Full-Time,Not Applicable
5dd0749782569a156ed4f658,<b>Personal experience is usually more important than facts and figures.,Highly disagree,73/94,Somewhat disagree,2,1708007922369,1708007926541,\Somewhat disagree\,\Somewhat disagree\,\2\,1708007925648,1708007925648,3279,3279,4172,buq,qns-item-noham,73,351873,0.0-1.0-0.72,65ce20787311e0807fe3bf8b,AWAITING REVIEW,2024-02-15T14:32:31.249000Z,2024-02-15T14:41:09.699000Z,,2024-02-15T14:41:10.490522Z,519.0,CVPIIDEI,1805,30,Male,White,United States,United States,United States,English,No,Full-Time,Not Applicable
5dd0749782569a156ed4f658,<b>I?ve been tricked before about important matters.,Highly disagree,74/94,Somewhat agree,3,1708007926544,1708007932034,\Somewhat agree\,\Somewhat agree\,\3\,1708007931495,1708007931495,4951,4951,5490,buq,qns-item-noham,74,357366,0.0-1.0-0.73,65ce20787311e0807fe3bf8b,AWAITING REVIEW,2024-02-15T14:32:31.249000Z,2024-02-15T14:41:09.699000Z,,2024-02-15T14:41:10.490522Z,519.0,CVPIIDEI,1805,30,Male,White,United States,United States,United States,English,No,Full-Time,Not Applicable
5dd0749782569a156ed4f658,<b>I would need to be totally wowed if I were to change my opinion of a restaurant I don?t like.,Highly disagree,75/94,Somewhat agree,3,1708007932037,1708007936841,\Somewhat agree\,\Somewhat agree\,\3\,1708007935971,1708007935971,3934,3934,4804,buq,qns-item-noham,75,362173,0.0-1.0-0.74,65ce20787311e0807fe3bf8b,AWAITING REVIEW,2024-02-15T14:32:31.249000Z,2024-02-15T14:41:09.699000Z,,2024-02-15T14:41:10.490522Z,519.0,CVPIIDEI,1805,30,Male,White,United States,United States,United States,English,No,Full-Time,Not Applicable
5dd0749782569a156ed4f658,<b>I care a lot about politics.,Highly disagree,76/94,Somewhat disagree,2,1708007936844,1708007939257,\Somewhat disagree\,\Somewhat disagree\,\2\,1708007938567,1708007938567,1723,1723,2413,buq,qns-item-noham,76,364589,0.0-1.0-0.75,65ce20787311e0807fe3bf8b,AWAITING REVIEW,2024-02-15T14:32:31.249000Z,2024-02-15T14:41:09.699000Z,,2024-02-15T14:41:10.490522Z,519.0,CVPIIDEI,1805,30,Male,White,United States,United States,United States,English,No,Full-Time,Not Applicable
5dd0749782569a156ed4f658,<b>There are some topics I?ve been really wrong about.,Highly disagree,77/94,Somewhat agree,3,1708007939260,1708007942528,\Somewhat agree\,\Somewhat agree\,\3\,1708007941237,1708007941237,1977,1977,3268,buq,qns-item-noham,77,367861,0.0-1.0-0.76,65ce20787311e0807fe3bf8b,AWAITING REVIEW,2024-02-15T14:32:31.249000Z,2024-02-15T14:41:09.699000Z,,2024-02-15T14:41:10.490522Z,519.0,CVPIIDEI,1805,30,Male,White,United States,United States,United States,English,No,Full-Time,Not Applicable
5dd0749782569a156ed4f658,<b>Most beliefs can be supported with at least some evidence.,Highly disagree,78/94,Somewhat agree,3,1708007942533,1708007945129,\Somewhat agree\,\Somewhat agree\,\3\,1708007944586,1708007944586,2053,2053,2596,buq,qns-item-noham,78,370462,0.0-1.0-0.77,65ce20787311e0807fe3bf8b,AWAITING REVIEW,2024-02-15T14:32:31.249000Z,2024-02-15T14:41:09.699000Z,,2024-02-15T14:41:10.490522Z,519.0,CVPIIDEI,1805,30,Male,White,United States,United States,United States,English,No,Full-Time,Not Applicable
5dd0749782569a156ed4f658,<b>Other people make life out to be more complicated than it really is.,Highly disagree,79/94,Somewhat disagree,2,1708007945132,1708007953207,\Somewhat disagree\,\Somewhat disagree\,\2\,1708007951985,1708007951985,6853,6853,8075,buq,qns-item-noham,79,378539,0.0-1.0-0.78,65ce20787311e0807fe3bf8b,AWAITING REVIEW,2024-02-15T14:32:31.249000Z,2024-02-15T14:41:09.699000Z,,2024-02-15T14:41:10.490522Z,519.0,CVPIIDEI,1805,30,Male,White,United States,United States,United States,English,No,Full-Time,Not Applicable
5dd0749782569a156ed4f658,"<b>Policy details don?t matter much, just the big picture.",Highly disagree,80/94,Somewhat disagree,2,1708007953211,1708007955892,\Somewhat disagree\,\Somewhat disagree\,\2\,1708007955345,1708007955345,2134,2134,2681,buq,qns-item-noham,80,381224,0.0-1.0-0.79,65ce20787311e0807fe3bf8b,AWAITING REVIEW,2024-02-15T14:32:31.249000Z,2024-02-15T14:41:09.699000Z,,2024-02-15T14:41:10.490522Z,519.0,CVPIIDEI,1805,30,Male,White,United States,United States,United States,English,No,Full-Time,Not Applicable
5dd0749782569a156ed4f658,<b>I know my friends so well they can hardly ever surprise me.,Highly disagree,81/94,Somewhat agree,3,1708007955896,1708007959062,\Somewhat agree\,\Somewhat agree\,\3\,1708007958491,1708007958491,2595,2595,3166,buq,qns-item-noham,81,384394,0.0-1.0-0.80,65ce20787311e0807fe3bf8b,AWAITING REVIEW,2024-02-15T14:32:31.249000Z,2024-02-15T14:41:09.699000Z,,2024-02-15T14:41:10.490522Z,519.0,CVPIIDEI,1805,30,Male,White,United States,United States,United States,English,No,Full-Time,Not Applicable
5dd0749782569a156ed4f658,<b>I do not often change my views on people.,Highly disagree,82/94,Somewhat disagree,2,1708007959065,1708007963181,\Somewhat agree\,\Somewhat disagree\,\3\,1708007961700,1708007962252,2635,3187,4116,buq,qns-item-noham,82,388513,0.0-1.0-0.81,65ce20787311e0807fe3bf8b,AWAITING REVIEW,2024-02-15T14:32:31.249000Z,2024-02-15T14:41:09.699000Z,,2024-02-15T14:41:10.490522Z,519.0,CVPIIDEI,1805,30,Male,White,United States,United States,United States,English,No,Full-Time,Not Applicable
5dd0749782569a156ed4f658,<b>I?m more certain about my beliefs than I used to be.,Highly disagree,83/94,Somewhat disagree,2,1708007963185,1708007967027,\Somewhat agree\,\Somewhat disagree\,\3\,1708007965933,1708007966494,2748,3309,3842,buq,qns-item-noham,83,392359,0.0-1.0-0.82,65ce20787311e0807fe3bf8b,AWAITING REVIEW,2024-02-15T14:32:31.249000Z,2024-02-15T14:41:09.699000Z,,2024-02-15T14:41:10.490522Z,519.0,CVPIIDEI,1805,30,Male,White,United States,United States,United States,English,No,Full-Time,Not Applicable
5dd0749782569a156ed4f658,<b>People often tell falsehoods unintentionally.,Highly disagree,84/94,Somewhat agree,3,1708007967030,1708007969880,\Somewhat agree\,\Somewhat agree\,\3\,1708007969349,1708007969349,2319,2319,2850,buq,qns-item-noham,84,395212,0.0-1.0-0.83,65ce20787311e0807fe3bf8b,AWAITING REVIEW,2024-02-15T14:32:31.249000Z,2024-02-15T14:41:09.699000Z,,2024-02-15T14:41:10.490522Z,519.0,CVPIIDEI,1805,30,Male,White,United States,United States,United States,English,No,Full-Time,Not Applicable
5dd0749782569a156ed4f658,<b>Most people don?t know much about most things.,Highly disagree,85/94,Somewhat agree,3,1708007969882,1708007974478,\Somewhat agree\,\Somewhat agree\,\3\,1708007973783,1708007973783,3901,3901,4596,buq,qns-item-noham,85,399810,0.0-1.0-0.84,65ce20787311e0807fe3bf8b,AWAITING REVIEW,2024-02-15T14:32:31.249000Z,2024-02-15T14:41:09.699000Z,,2024-02-15T14:41:10.490522Z,519.0,CVPIIDEI,1805,30,Male,White,United States,United States,United States,English,No,Full-Time,Not Applicable
5dd0749782569a156ed4f658,"<b>If I find out something new about someone, I easily change my views about them.",Highly disagree,86/94,Somewhat agree,3,1708007974481,1708007979783,\Somewhat agree\,\Somewhat agree\,\3\,1708007978961,1708007978961,4480,4480,5302,buq,qns-item-noham,86,405115,0.0-1.0-0.85,65ce20787311e0807fe3bf8b,AWAITING REVIEW,2024-02-15T14:32:31.249000Z,2024-02-15T14:41:09.699000Z,,2024-02-15T14:41:10.490522Z,519.0,CVPIIDEI,1805,30,Male,White,United States,United States,United States,English,No,Full-Time,Not Applicable
5dd0749782569a156ed4f658,<b>Having true beliefs is difficult.,Highly disagree,87/94,Somewhat agree,3,1708007979787,1708007982092,\Somewhat agree\,\Somewhat agree\,\3\,1708007981555,1708007981555,1768,1768,2305,buq,qns-item-noham,87,407424,0.0-1.0-0.86,65ce20787311e0807fe3bf8b,AWAITING REVIEW,2024-02-15T14:32:31.249000Z,2024-02-15T14:41:09.699000Z,,2024-02-15T14:41:10.490522Z,519.0,CVPIIDEI,1805,30,Male,White,United States,United States,United States,English,No,Full-Time,Not Applicable
5dd0749782569a156ed4f658,<b>I don?t try new foods since I know I won?t like them.,Highly disagree,88/94,Highly disagree,1,1708007982095,1708007985531,\Highly disagree\,\Highly disagree\,\1\,1708007984533,1708007984533,2438,2438,3436,buq,qns-item-noham,88,410863,0.0-1.0-0.87,65ce20787311e0807fe3bf8b,AWAITING REVIEW,2024-02-15T14:32:31.249000Z,2024-02-15T14:41:09.699000Z,,2024-02-15T14:41:10.490522Z,519.0,CVPIIDEI,1805,30,Male,White,United States,United States,United States,English,No,Full-Time,Not Applicable
5dd0749782569a156ed4f658,<b>Other people trick each other a lot.,Highly disagree,89/94,Somewhat agree,3,1708007985536,1708007987791,\Somewhat agree\,\Somewhat agree\,\3\,1708007987205,1708007987205,1669,1669,2255,buq,qns-item-noham,89,413123,0.0-1.0-0.88,65ce20787311e0807fe3bf8b,AWAITING REVIEW,2024-02-15T14:32:31.249000Z,2024-02-15T14:41:09.699000Z,,2024-02-15T14:41:10.490522Z,519.0,CVPIIDEI,1805,30,Male,White,United States,United States,United States,English,No,Full-Time,Not Applicable
5dd0749782569a156ed4f658,<b>I would need to learn a lot about a person for my opinion of them to be swayed.,Highly disagree,90/94,Somewhat agree,3,1708007987794,1708007990919,\Somewhat agree\,\Somewhat agree\,\3\,1708007990386,1708007990386,2592,2592,3125,buq,qns-item-noham,90,416251,0.0-1.0-0.89,65ce20787311e0807fe3bf8b,AWAITING REVIEW,2024-02-15T14:32:31.249000Z,2024-02-15T14:41:09.699000Z,,2024-02-15T14:41:10.490522Z,519.0,CVPIIDEI,1805,30,Male,White,United States,United States,United States,English,No,Full-Time,Not Applicable
5dd0749782569a156ed4f658,<b>People can?t usually trick me when it comes to topics I care about.,Highly disagree,91/94,Somewhat agree,3,1708007990922,1708007994995,\Somewhat agree\,\Somewhat agree\,\3\,1708007994397,1708007994397,3475,3475,4073,buq,qns-item-noham,91,420327,0.0-1.0-0.90,65ce20787311e0807fe3bf8b,AWAITING REVIEW,2024-02-15T14:32:31.249000Z,2024-02-15T14:41:09.699000Z,,2024-02-15T14:41:10.490522Z,519.0,CVPIIDEI,1805,30,Male,White,United States,United States,United States,English,No,Full-Time,Not Applicable
5dd0749782569a156ed4f658,<b>I do not often change my views on food.,Highly disagree,92/94,Somewhat disagree,2,1708007994998,1708007998243,\Somewhat disagree\,\Somewhat disagree\,\2\,1708007996917,1708007996917,1919,1919,3245,buq,qns-item-noham,92,423575,0.0-1.0-0.91,65ce20787311e0807fe3bf8b,AWAITING REVIEW,2024-02-15T14:32:31.249000Z,2024-02-15T14:41:09.699000Z,,2024-02-15T14:41:10.490522Z,519.0,CVPIIDEI,1805,30,Male,White,United States,United States,United States,English,No,Full-Time,Not Applicable
5dd0749782569a156ed4f658,<b>Specific policies are often very important to me.,Highly disagree,93/94,Somewhat disagree,2,1708007998247,1708008001212,\Somewhat disagree\,\Somewhat disagree\,\2\,1708008000637,1708008000637,2390,2390,2965,buq,qns-item-noham,93,426544,0.0-1.0-0.92,65ce20787311e0807fe3bf8b,AWAITING REVIEW,2024-02-15T14:32:31.249000Z,2024-02-15T14:41:09.699000Z,,2024-02-15T14:41:10.490522Z,519.0,CVPIIDEI,1805,30,Male,White,United States,United States,United States,English,No,Full-Time,Not Applicable
5dd0749782569a156ed4f658,<b>Most people are woefully under-informed.,Highly disagree,94/94,Somewhat agree,3,1708008001214,1708008003824,\Somewhat agree\,\Somewhat agree\,\3\,1708008003110,1708008003110,1896,1896,2610,buq,qns-item-noham,94,429156,0.0-1.0-0.93,65ce20787311e0807fe3bf8b,AWAITING REVIEW,2024-02-15T14:32:31.249000Z,2024-02-15T14:41:09.699000Z,,2024-02-15T14:41:10.490522Z,519.0,CVPIIDEI,1805,30,Male,White,United States,United States,United States,English,No,Full-Time,Not Applicable
5dd0749782569a156ed4f658,,,,,,,,,,,,,,,,,,,,,65ce20787311e0807fe3bf8b,AWAITING REVIEW,2024-02-15T14:32:31.249000Z,2024-02-15T14:41:09.699000Z,,2024-02-15T14:41:10.490522Z,519.0,CVPIIDEI,1805,30,Male,White,United States,United States,United States,English,No,Full-Time,Not Applicable
