PROLIFIC_PID,Question,qns_options,quest_num,answer,answer_num,question_load_timestamp,next_btn_timestamp,text_selected,final_text_selected,option_num_selected,preview_timestamps,final_text_selected_time_stamp,rt_first_option_click,rt_final_option_click,rt_submit_click,questionnaire,trial_type,trial_index,time_elapsed,internal_node_id,Demographic_Submission id,Demographic_Status,Demographic_Started at,Demographic_Completed at,Demographic_Reviewed at,Demographic_Archived at,Demographic_Time taken,Demographic_Completion code,Demographic_Total approvals,Demographic_Age,Demographic_Sex,Demographic_Ethnicity simplified,Demographic_Country of birth,Demographic_Country of residence,Demographic_Nationality,Demographic_Language,Demographic_Student status,Demographic_Employment status,Demographic_Custom study tncs accepted at
5c082f58b5b7c80001dd5bf4,<b>Knowing what?s true and knowing what to do about it are usually basically the same.,Highly disagree,1/94,Somewhat agree,3,1708007713139,1708007722378,\Somewhat agree\,\Somewhat agree\,\3\,1708007721352,1708007721352,8213,8213,9239,buq,qns-item-noham,1,15076,0.0-1.0-0.0,65ce210a780605d135385585,AWAITING REVIEW,2024-02-15T14:34:53.750000Z,2024-02-15T14:42:59.470000Z,,2024-02-15T14:43:00.013100Z,486.0,CVPIIDEI,137,38,Male,White,United States,United States,United States,English,DATA_EXPIRED,Unemployed (and job seeking),Not Applicable
5c082f58b5b7c80001dd5bf4,<b>Most people just believe whatever is convenient for them.,Highly disagree,2/94,Somewhat agree,3,1708007722380,1708007725926,\Somewhat agree\,\Somewhat agree\,\3\,1708007725036,1708007725036,2656,2656,3546,buq,qns-item-noham,2,18624,0.0-1.0-0.1,65ce210a780605d135385585,AWAITING REVIEW,2024-02-15T14:34:53.750000Z,2024-02-15T14:42:59.470000Z,,2024-02-15T14:43:00.013100Z,486.0,CVPIIDEI,137,38,Male,White,United States,United States,United States,English,DATA_EXPIRED,Unemployed (and job seeking),Not Applicable
5c082f58b5b7c80001dd5bf4,<b>Having some big beliefs helps me sort out minor ones.,Highly disagree,3/94,Somewhat disagree,2,1708007725928,1708007730952,\Somewhat disagree\,\Somewhat disagree\,\2\,1708007730389,1708007730389,4461,4461,5024,buq,qns-item-noham,3,23650,0.0-1.0-0.2,65ce210a780605d135385585,AWAITING REVIEW,2024-02-15T14:34:53.750000Z,2024-02-15T14:42:59.470000Z,,2024-02-15T14:43:00.013100Z,486.0,CVPIIDEI,137,38,Male,White,United States,United States,United States,English,DATA_EXPIRED,Unemployed (and job seeking),Not Applicable
5c082f58b5b7c80001dd5bf4,<b>Political questions are usually pretty complicated.,Highly disagree,4/94,Somewhat disagree,2,1708007730953,1708007734452,\Somewhat disagree\,\Somewhat disagree\,\2\,1708007733904,1708007733904,2951,2951,3499,buq,qns-item-noham,4,27150,0.0-1.0-0.3,65ce210a780605d135385585,AWAITING REVIEW,2024-02-15T14:34:53.750000Z,2024-02-15T14:42:59.470000Z,,2024-02-15T14:43:00.013100Z,486.0,CVPIIDEI,137,38,Male,White,United States,United States,United States,English,DATA_EXPIRED,Unemployed (and job seeking),Not Applicable
5c082f58b5b7c80001dd5bf4,<b>Figuring out what?s important in life requires learning a lot of facts.,Highly disagree,5/94,Highly agree,4,1708007734453,1708007737949,\Highly agree\,\Highly agree\,\4\,1708007737322,1708007737322,2869,2869,3496,buq,qns-item-noham,5,30647,0.0-1.0-0.4,65ce210a780605d135385585,AWAITING REVIEW,2024-02-15T14:34:53.750000Z,2024-02-15T14:42:59.470000Z,,2024-02-15T14:43:00.013100Z,486.0,CVPIIDEI,137,38,Male,White,United States,United States,United States,English,DATA_EXPIRED,Unemployed (and job seeking),Not Applicable
5c082f58b5b7c80001dd5bf4,<b>It is difficult for me to remember the last time I was surprised by politics.,Highly disagree,6/94,Somewhat disagree,2,1708007737950,1708007741868,\Somewhat disagree\,\Somewhat disagree\,\2\,1708007741368,1708007741368,3418,3418,3918,buq,qns-item-noham,6,34566,0.0-1.0-0.5,65ce210a780605d135385585,AWAITING REVIEW,2024-02-15T14:34:53.750000Z,2024-02-15T14:42:59.470000Z,,2024-02-15T14:43:00.013100Z,486.0,CVPIIDEI,137,38,Male,White,United States,United States,United States,English,DATA_EXPIRED,Unemployed (and job seeking),Not Applicable
5c082f58b5b7c80001dd5bf4,<b>People?s false beliefs are understandable.,Highly disagree,7/94,Somewhat disagree,2,1708007741869,1708007745970,\Somewhat disagree\,\Somewhat disagree\,\2\,1708007745445,1708007745445,3576,3576,4101,buq,qns-item-noham,7,38668,0.0-1.0-0.6,65ce210a780605d135385585,AWAITING REVIEW,2024-02-15T14:34:53.750000Z,2024-02-15T14:42:59.470000Z,,2024-02-15T14:43:00.013100Z,486.0,CVPIIDEI,137,38,Male,White,United States,United States,United States,English,DATA_EXPIRED,Unemployed (and job seeking),Not Applicable
5c082f58b5b7c80001dd5bf4,<b>I spend a lot of time trying to be informed about politics.,Highly disagree,8/94,Highly agree,4,1708007745971,1708007749039,\Highly agree\,\Highly agree\,\4\,1708007748353,1708007748353,2382,2382,3068,buq,qns-item-noham,8,41737,0.0-1.0-0.7,65ce210a780605d135385585,AWAITING REVIEW,2024-02-15T14:34:53.750000Z,2024-02-15T14:42:59.470000Z,,2024-02-15T14:43:00.013100Z,486.0,CVPIIDEI,137,38,Male,White,United States,United States,United States,English,DATA_EXPIRED,Unemployed (and job seeking),Not Applicable
5c082f58b5b7c80001dd5bf4,<b>I think a lot about whether my beliefs are right.,Highly disagree,9/94,Somewhat agree,3,1708007749040,1708007752315,\Somewhat agree\,\Somewhat agree\,\3\,1708007751635,1708007751635,2595,2595,3275,buq,qns-item-noham,9,45013,0.0-1.0-0.8,65ce210a780605d135385585,AWAITING REVIEW,2024-02-15T14:34:53.750000Z,2024-02-15T14:42:59.470000Z,,2024-02-15T14:43:00.013100Z,486.0,CVPIIDEI,137,38,Male,White,United States,United States,United States,English,DATA_EXPIRED,Unemployed (and job seeking),Not Applicable
5c082f58b5b7c80001dd5bf4,<b>Statistics can be pretty misleading sometimes.,Highly disagree,10/94,Somewhat disagree,2,1708007752316,1708007754766,\Somewhat disagree\,\Somewhat disagree\,\2\,1708007754124,1708007754124,1808,1808,2450,buq,qns-item-noham,10,47464,0.0-1.0-0.9,65ce210a780605d135385585,AWAITING REVIEW,2024-02-15T14:34:53.750000Z,2024-02-15T14:42:59.470000Z,,2024-02-15T14:43:00.013100Z,486.0,CVPIIDEI,137,38,Male,White,United States,United States,United States,English,DATA_EXPIRED,Unemployed (and job seeking),Not Applicable
5c082f58b5b7c80001dd5bf4,<b>I have lots of beliefs that I?m only sort of sure about.,Highly disagree,11/94,Somewhat agree,3,1708007754767,1708007758961,\Somewhat agree\,\Somewhat agree\,\3\,1708007758483,1708007758483,3716,3716,4194,buq,qns-item-noham,11,51659,0.0-1.0-0.10,65ce210a780605d135385585,AWAITING REVIEW,2024-02-15T14:34:53.750000Z,2024-02-15T14:42:59.470000Z,,2024-02-15T14:43:00.013100Z,486.0,CVPIIDEI,137,38,Male,White,United States,United States,United States,English,DATA_EXPIRED,Unemployed (and job seeking),Not Applicable
5c082f58b5b7c80001dd5bf4,"<b>If I go to my favorite restaurant and the food is surprisingly bad, it reminds me there are many disappointments in life.",Highly disagree,12/94,Somewhat agree,3,1708007758962,1708007763312,\Somewhat agree\,\Somewhat agree\,\3\,1708007762796,1708007762796,3834,3834,4350,buq,qns-item-noham,12,56010,0.0-1.0-0.11,65ce210a780605d135385585,AWAITING REVIEW,2024-02-15T14:34:53.750000Z,2024-02-15T14:42:59.470000Z,,2024-02-15T14:43:00.013100Z,486.0,CVPIIDEI,137,38,Male,White,United States,United States,United States,English,DATA_EXPIRED,Unemployed (and job seeking),Not Applicable
5c082f58b5b7c80001dd5bf4,"<b>If you are paying attention, please select ?Somewhat agree?",Highly disagree,13/94,Somewhat agree,3,1708007763313,1708007765744,\Somewhat agree\,\Somewhat agree\,\3\,1708007765195,1708007765195,1882,1882,2431,buq,qns-item-noham,13,58442,0.0-1.0-0.12,65ce210a780605d135385585,AWAITING REVIEW,2024-02-15T14:34:53.750000Z,2024-02-15T14:42:59.470000Z,,2024-02-15T14:43:00.013100Z,486.0,CVPIIDEI,137,38,Male,White,United States,United States,United States,English,DATA_EXPIRED,Unemployed (and job seeking),Not Applicable
5c082f58b5b7c80001dd5bf4,"<b>When I talk to others, I often worry I?ll convince them of something I didn?t mean to.",Highly disagree,14/94,Highly disagree,1,1708007765745,1708007770664,\Highly disagree\,\Highly disagree\,\1\,1708007770142,1708007770142,4397,4397,4919,buq,qns-item-noham,14,63362,0.0-1.0-0.13,65ce210a780605d135385585,AWAITING REVIEW,2024-02-15T14:34:53.750000Z,2024-02-15T14:42:59.470000Z,,2024-02-15T14:43:00.013100Z,486.0,CVPIIDEI,137,38,Male,White,United States,United States,United States,English,DATA_EXPIRED,Unemployed (and job seeking),Not Applicable
5c082f58b5b7c80001dd5bf4,<b>I would need to learn something utterly shocking about my party in order to change my political views.,Highly disagree,15/94,Highly agree,4,1708007770665,1708007775708,\Highly agree\,\Highly agree\,\4\,1708007775190,1708007775190,4525,4525,5043,buq,qns-item-noham,15,68406,0.0-1.0-0.14,65ce210a780605d135385585,AWAITING REVIEW,2024-02-15T14:34:53.750000Z,2024-02-15T14:42:59.470000Z,,2024-02-15T14:43:00.013100Z,486.0,CVPIIDEI,137,38,Male,White,United States,United States,United States,English,DATA_EXPIRED,Unemployed (and job seeking),Not Applicable
5c082f58b5b7c80001dd5bf4,"<b>When I have new experiences, I tend to think of them as unique.",Highly disagree,16/94,Somewhat agree,3,1708007775709,1708007782086,\Somewhat agree\,\Somewhat agree\,\3\,1708007778211,1708007778211,2502,2502,6377,buq,qns-item-noham,16,74784,0.0-1.0-0.15,65ce210a780605d135385585,AWAITING REVIEW,2024-02-15T14:34:53.750000Z,2024-02-15T14:42:59.470000Z,,2024-02-15T14:43:00.013100Z,486.0,CVPIIDEI,137,38,Male,White,United States,United States,United States,English,DATA_EXPIRED,Unemployed (and job seeking),Not Applicable
5c082f58b5b7c80001dd5bf4,<b>I change my mind about specific policies pretty frequently.,Highly disagree,17/94,Somewhat agree,3,1708007782087,1708007785853,\Somewhat agree\,\Somewhat agree\,\3\,1708007785226,1708007785226,3139,3139,3766,buq,qns-item-noham,17,78551,0.0-1.0-0.16,65ce210a780605d135385585,AWAITING REVIEW,2024-02-15T14:34:53.750000Z,2024-02-15T14:42:59.470000Z,,2024-02-15T14:43:00.013100Z,486.0,CVPIIDEI,137,38,Male,White,United States,United States,United States,English,DATA_EXPIRED,Unemployed (and job seeking),Not Applicable
5c082f58b5b7c80001dd5bf4,"<b>If a politician in my political party supports something I disagree with, I give them the benefit of the doubt, as such issues often involve hidden complexities that aren?t obvious.   ",Highly disagree,18/94,Somewhat disagree,2,1708007785854,1708007792520,\Somewhat disagree\,\Somewhat disagree\,\2\,1708007791767,1708007791767,5913,5913,6666,buq,qns-item-noham,18,85218,0.0-1.0-0.17,65ce210a780605d135385585,AWAITING REVIEW,2024-02-15T14:34:53.750000Z,2024-02-15T14:42:59.470000Z,,2024-02-15T14:43:00.013100Z,486.0,CVPIIDEI,137,38,Male,White,United States,United States,United States,English,DATA_EXPIRED,Unemployed (and job seeking),Not Applicable
5c082f58b5b7c80001dd5bf4,<b>People?s bad politics are usually motivated by hatefulness.,Highly disagree,19/94,Highly agree,4,1708007792521,1708007796752,\Somewhat agree\,\Highly agree\,\3\,1708007795228,1708007796124,2707,3603,4231,buq,qns-item-noham,19,89450,0.0-1.0-0.18,65ce210a780605d135385585,AWAITING REVIEW,2024-02-15T14:34:53.750000Z,2024-02-15T14:42:59.470000Z,,2024-02-15T14:43:00.013100Z,486.0,CVPIIDEI,137,38,Male,White,United States,United States,United States,English,DATA_EXPIRED,Unemployed (and job seeking),Not Applicable
5c082f58b5b7c80001dd5bf4,<b>I think a lot about how to reconcile my beliefs with one another.,Highly disagree,20/94,Somewhat disagree,2,1708007796753,1708007800838,\Somewhat disagree\,\Somewhat disagree\,\2\,1708007800369,1708007800369,3616,3616,4085,buq,qns-item-noham,20,93536,0.0-1.0-0.19,65ce210a780605d135385585,AWAITING REVIEW,2024-02-15T14:34:53.750000Z,2024-02-15T14:42:59.470000Z,,2024-02-15T14:43:00.013100Z,486.0,CVPIIDEI,137,38,Male,White,United States,United States,United States,English,DATA_EXPIRED,Unemployed (and job seeking),Not Applicable
5c082f58b5b7c80001dd5bf4,<b>I might have false beliefs about important topics.,Highly disagree,21/94,Somewhat disagree,2,1708007800839,1708007803539,\Somewhat disagree\,\Somewhat disagree\,\2\,1708007802635,1708007802635,1796,1796,2700,buq,qns-item-noham,21,96237,0.0-1.0-0.20,65ce210a780605d135385585,AWAITING REVIEW,2024-02-15T14:34:53.750000Z,2024-02-15T14:42:59.470000Z,,2024-02-15T14:43:00.013100Z,486.0,CVPIIDEI,137,38,Male,White,United States,United States,United States,English,DATA_EXPIRED,Unemployed (and job seeking),Not Applicable
5c082f58b5b7c80001dd5bf4,"<b>If a good friend of mine does something unexpected that upsets me, I feel like I don?t know them anymore.",Highly disagree,22/94,Somewhat disagree,2,1708007803540,1708007809008,\Somewhat disagree\,\Somewhat disagree\,\2\,1708007808480,1708007808480,4940,4940,5468,buq,qns-item-noham,22,101707,0.0-1.0-0.21,65ce210a780605d135385585,AWAITING REVIEW,2024-02-15T14:34:53.750000Z,2024-02-15T14:42:59.470000Z,,2024-02-15T14:43:00.013100Z,486.0,CVPIIDEI,137,38,Male,White,United States,United States,United States,English,DATA_EXPIRED,Unemployed (and job seeking),Not Applicable
5c082f58b5b7c80001dd5bf4,<b>Other people?s beliefs are often incoherent.,Highly disagree,23/94,Somewhat agree,3,1708007809009,1708007813313,\Somewhat agree\,\Somewhat agree\,\3\,1708007812798,1708007812798,3789,3789,4304,buq,qns-item-noham,23,106011,0.0-1.0-0.22,65ce210a780605d135385585,AWAITING REVIEW,2024-02-15T14:34:53.750000Z,2024-02-15T14:42:59.470000Z,,2024-02-15T14:43:00.013100Z,486.0,CVPIIDEI,137,38,Male,White,United States,United States,United States,English,DATA_EXPIRED,Unemployed (and job seeking),Not Applicable
5c082f58b5b7c80001dd5bf4,"<b>Every now and then, a new experience will unsettle beliefs I?ve had for a while.",Highly disagree,24/94,Highly agree,4,1708007813313,1708007817970,\Highly agree\,\Highly agree\,\4\,1708007817353,1708007817353,4040,4040,4657,buq,qns-item-noham,24,110668,0.0-1.0-0.23,65ce210a780605d135385585,AWAITING REVIEW,2024-02-15T14:34:53.750000Z,2024-02-15T14:42:59.470000Z,,2024-02-15T14:43:00.013100Z,486.0,CVPIIDEI,137,38,Male,White,United States,United States,United States,English,DATA_EXPIRED,Unemployed (and job seeking),Not Applicable
5c082f58b5b7c80001dd5bf4,<b>Some policies I agree with in principle are so bad I don?t support them. ,Highly disagree,25/94,Somewhat disagree,2,1708007817971,1708007833041,\Highly agree\,\Somewhat disagree\,\4\,1708007824355,1708007828152,6384,10181,15070,buq,qns-item-noham,25,125739,0.0-1.0-0.24,65ce210a780605d135385585,AWAITING REVIEW,2024-02-15T14:34:53.750000Z,2024-02-15T14:42:59.470000Z,,2024-02-15T14:43:00.013100Z,486.0,CVPIIDEI,137,38,Male,White,United States,United States,United States,English,DATA_EXPIRED,Unemployed (and job seeking),Not Applicable
5c082f58b5b7c80001dd5bf4,<b>I?m pretty sure I?ve accidentally spread false information.,Highly disagree,26/94,Highly disagree,1,1708007833042,1708007836407,\Highly disagree\,\Highly disagree\,\1\,1708007835831,1708007835831,2789,2789,3365,buq,qns-item-noham,26,129105,0.0-1.0-0.25,65ce210a780605d135385585,AWAITING REVIEW,2024-02-15T14:34:53.750000Z,2024-02-15T14:42:59.470000Z,,2024-02-15T14:43:00.013100Z,486.0,CVPIIDEI,137,38,Male,White,United States,United States,United States,English,DATA_EXPIRED,Unemployed (and job seeking),Not Applicable
5c082f58b5b7c80001dd5bf4,"<b>If I go to my favorite restaurant and the food is unexpectedly bad, then they have changed owners.",Highly disagree,27/94,Somewhat disagree,2,1708007836408,1708007841368,\Somewhat disagree\,\Somewhat disagree\,\2\,1708007840668,1708007840668,4260,4260,4960,buq,qns-item-noham,27,134066,0.0-1.0-0.26,65ce210a780605d135385585,AWAITING REVIEW,2024-02-15T14:34:53.750000Z,2024-02-15T14:42:59.470000Z,,2024-02-15T14:43:00.013100Z,486.0,CVPIIDEI,137,38,Male,White,United States,United States,United States,English,DATA_EXPIRED,Unemployed (and job seeking),Not Applicable
5c082f58b5b7c80001dd5bf4,"<b>In politics, it?s important to trust your friends and family.",Highly disagree,28/94,Somewhat disagree,2,1708007841369,1708007845588,\Somewhat disagree\,\Somewhat disagree\,\2\,1708007845103,1708007845103,3734,3734,4219,buq,qns-item-noham,28,138287,0.0-1.0-0.27,65ce210a780605d135385585,AWAITING REVIEW,2024-02-15T14:34:53.750000Z,2024-02-15T14:42:59.470000Z,,2024-02-15T14:43:00.013100Z,486.0,CVPIIDEI,137,38,Male,White,United States,United States,United States,English,DATA_EXPIRED,Unemployed (and job seeking),Not Applicable
5c082f58b5b7c80001dd5bf4,<b>It?s OK to have some conflicting beliefs.,Highly disagree,29/94,Highly agree,4,1708007845590,1708007847800,\Highly agree\,\Highly agree\,\4\,1708007847313,1708007847313,1723,1723,2210,buq,qns-item-noham,29,140498,0.0-1.0-0.28,65ce210a780605d135385585,AWAITING REVIEW,2024-02-15T14:34:53.750000Z,2024-02-15T14:42:59.470000Z,,2024-02-15T14:43:00.013100Z,486.0,CVPIIDEI,137,38,Male,White,United States,United States,United States,English,DATA_EXPIRED,Unemployed (and job seeking),Not Applicable
5c082f58b5b7c80001dd5bf4,<b>Listening to people I disagree with makes my opinions better.,Highly disagree,30/94,Somewhat disagree,2,1708007847801,1708007850789,\Somewhat disagree\,\Somewhat disagree\,\2\,1708007850270,1708007850270,2469,2469,2988,buq,qns-item-noham,30,143487,0.0-1.0-0.29,65ce210a780605d135385585,AWAITING REVIEW,2024-02-15T14:34:53.750000Z,2024-02-15T14:42:59.470000Z,,2024-02-15T14:43:00.013100Z,486.0,CVPIIDEI,137,38,Male,White,United States,United States,United States,English,DATA_EXPIRED,Unemployed (and job seeking),Not Applicable
5c082f58b5b7c80001dd5bf4,<b>My moral compass sometimes makes it harder to determine what?s true.,Highly disagree,31/94,Highly disagree,1,1708007850789,1708007853749,\Highly disagree\,\Highly disagree\,\1\,1708007853131,1708007853131,2342,2342,2960,buq,qns-item-noham,31,146447,0.0-1.0-0.30,65ce210a780605d135385585,AWAITING REVIEW,2024-02-15T14:34:53.750000Z,2024-02-15T14:42:59.470000Z,,2024-02-15T14:43:00.013100Z,486.0,CVPIIDEI,137,38,Male,White,United States,United States,United States,English,DATA_EXPIRED,Unemployed (and job seeking),Not Applicable
5c082f58b5b7c80001dd5bf4,<b>Evidence pointing in the wrong direction isn?t really evidence at all.,Highly disagree,32/94,Somewhat agree,3,1708007853749,1708007858150,\Somewhat agree\,\Somewhat agree\,\3\,1708007857698,1708007857698,3949,3949,4401,buq,qns-item-noham,32,150848,0.0-1.0-0.31,65ce210a780605d135385585,AWAITING REVIEW,2024-02-15T14:34:53.750000Z,2024-02-15T14:42:59.470000Z,,2024-02-15T14:43:00.013100Z,486.0,CVPIIDEI,137,38,Male,White,United States,United States,United States,English,DATA_EXPIRED,Unemployed (and job seeking),Not Applicable
5c082f58b5b7c80001dd5bf4,"<b>If the political party I support messes up, it makes me think politics is rotten.",Highly disagree,33/94,Somewhat agree,3,1708007858151,1708007862681,\Somewhat disagree\,\Somewhat agree\,\2\,1708007861315,1708007862198,3164,4047,4530,buq,qns-item-noham,33,155379,0.0-1.0-0.32,65ce210a780605d135385585,AWAITING REVIEW,2024-02-15T14:34:53.750000Z,2024-02-15T14:42:59.470000Z,,2024-02-15T14:43:00.013100Z,486.0,CVPIIDEI,137,38,Male,White,United States,United States,United States,English,DATA_EXPIRED,Unemployed (and job seeking),Not Applicable
5c082f58b5b7c80001dd5bf4,<b>Lots of important topics can only really be understood by some groups of people.,Highly disagree,34/94,Highly disagree,1,1708007862682,1708007868568,\Highly disagree\,\Highly disagree\,\1\,1708007868055,1708007868055,5373,5373,5886,buq,qns-item-noham,34,161266,0.0-1.0-0.33,65ce210a780605d135385585,AWAITING REVIEW,2024-02-15T14:34:53.750000Z,2024-02-15T14:42:59.470000Z,,2024-02-15T14:43:00.013100Z,486.0,CVPIIDEI,137,38,Male,White,United States,United States,United States,English,DATA_EXPIRED,Unemployed (and job seeking),Not Applicable
5c082f58b5b7c80001dd5bf4,<b>Having conflicting beliefs means you haven?t thought about them enough.,Highly disagree,35/94,Somewhat agree,3,1708007868569,1708007873856,\Somewhat agree\,\Somewhat agree\,\3\,1708007873333,1708007873333,4764,4764,5287,buq,qns-item-noham,35,166554,0.0-1.0-0.34,65ce210a780605d135385585,AWAITING REVIEW,2024-02-15T14:34:53.750000Z,2024-02-15T14:42:59.470000Z,,2024-02-15T14:43:00.013100Z,486.0,CVPIIDEI,137,38,Male,White,United States,United States,United States,English,DATA_EXPIRED,Unemployed (and job seeking),Not Applicable
5c082f58b5b7c80001dd5bf4,<b>I do not often change my political opinions.,Highly disagree,36/94,Highly agree,4,1708007873857,1708007876979,\Highly agree\,\Highly agree\,\4\,1708007876405,1708007876405,2548,2548,3122,buq,qns-item-noham,36,169677,0.0-1.0-0.35,65ce210a780605d135385585,AWAITING REVIEW,2024-02-15T14:34:53.750000Z,2024-02-15T14:42:59.470000Z,,2024-02-15T14:43:00.013100Z,486.0,CVPIIDEI,137,38,Male,White,United States,United States,United States,English,DATA_EXPIRED,Unemployed (and job seeking),Not Applicable
5c082f58b5b7c80001dd5bf4,<b>It?s difficult to not have at least some conflicting beliefs.,Highly disagree,37/94,Highly agree,4,1708007876980,1708007880205,\Highly agree\,\Highly agree\,\4\,1708007879758,1708007879758,2778,2778,3225,buq,qns-item-noham,37,172903,0.0-1.0-0.36,65ce210a780605d135385585,AWAITING REVIEW,2024-02-15T14:34:53.750000Z,2024-02-15T14:42:59.470000Z,,2024-02-15T14:43:00.013100Z,486.0,CVPIIDEI,137,38,Male,White,United States,United States,United States,English,DATA_EXPIRED,Unemployed (and job seeking),Not Applicable
5c082f58b5b7c80001dd5bf4,<b>Wishful thinking causes a lot of problems.,Highly disagree,38/94,Somewhat agree,3,1708007880207,1708007882758,\Somewhat agree\,\Somewhat agree\,\3\,1708007882336,1708007882336,2129,2129,2551,buq,qns-item-noham,38,175456,0.0-1.0-0.37,65ce210a780605d135385585,AWAITING REVIEW,2024-02-15T14:34:53.750000Z,2024-02-15T14:42:59.470000Z,,2024-02-15T14:43:00.013100Z,486.0,CVPIIDEI,137,38,Male,White,United States,United States,United States,English,DATA_EXPIRED,Unemployed (and job seeking),Not Applicable
5c082f58b5b7c80001dd5bf4,<b>I judge a food item only once I try it many times.,Highly disagree,39/94,Somewhat agree,3,1708007882759,1708007887999,\Somewhat agree\,\Somewhat agree\,\3\,1708007887574,1708007887574,4815,4815,5240,buq,qns-item-noham,39,180697,0.0-1.0-0.38,65ce210a780605d135385585,AWAITING REVIEW,2024-02-15T14:34:53.750000Z,2024-02-15T14:42:59.470000Z,,2024-02-15T14:43:00.013100Z,486.0,CVPIIDEI,137,38,Male,White,United States,United States,United States,English,DATA_EXPIRED,Unemployed (and job seeking),Not Applicable
5c082f58b5b7c80001dd5bf4,"<b>When a person holds conflicting beliefs, they should really try to figure out what?s wrong.",Highly disagree,40/94,Somewhat agree,3,1708007887999,1708007893100,\Somewhat agree\,\Somewhat agree\,\3\,1708007892340,1708007892340,4341,4341,5101,buq,qns-item-noham,40,185798,0.0-1.0-0.39,65ce210a780605d135385585,AWAITING REVIEW,2024-02-15T14:34:53.750000Z,2024-02-15T14:42:59.470000Z,,2024-02-15T14:43:00.013100Z,486.0,CVPIIDEI,137,38,Male,White,United States,United States,United States,English,DATA_EXPIRED,Unemployed (and job seeking),Not Applicable
5c082f58b5b7c80001dd5bf4,<b>Knowing what?s important in life is easy.,Highly disagree,41/94,Highly disagree,1,1708007893101,1708007902800,\Highly disagree\,\Highly disagree\,\1\,1708007902234,1708007902234,9133,9133,9699,buq,qns-item-noham,41,195498,0.0-1.0-0.40,65ce210a780605d135385585,AWAITING REVIEW,2024-02-15T14:34:53.750000Z,2024-02-15T14:42:59.470000Z,,2024-02-15T14:43:00.013100Z,486.0,CVPIIDEI,137,38,Male,White,United States,United States,United States,English,DATA_EXPIRED,Unemployed (and job seeking),Not Applicable
5c082f58b5b7c80001dd5bf4,<b>I swim across the Atlantic Ocean to get to work every day.,Highly disagree,42/94,Highly disagree,1,1708007902801,1708007905676,\Highly disagree\,\Highly disagree\,\1\,1708007904804,1708007904804,2003,2003,2875,buq,qns-item-noham,42,198374,0.0-1.0-0.41,65ce210a780605d135385585,AWAITING REVIEW,2024-02-15T14:34:53.750000Z,2024-02-15T14:42:59.470000Z,,2024-02-15T14:43:00.013100Z,486.0,CVPIIDEI,137,38,Male,White,United States,United States,United States,English,DATA_EXPIRED,Unemployed (and job seeking),Not Applicable
5c082f58b5b7c80001dd5bf4,"<b>Sometimes, you just have to ignore evidence that you know is wrong.",Highly disagree,43/94,Highly disagree,1,1708007905677,1708007913036,\Highly disagree\,\Highly disagree\,\1\,1708007912448,1708007912448,6771,6771,7359,buq,qns-item-noham,43,205734,0.0-1.0-0.42,65ce210a780605d135385585,AWAITING REVIEW,2024-02-15T14:34:53.750000Z,2024-02-15T14:42:59.470000Z,,2024-02-15T14:43:00.013100Z,486.0,CVPIIDEI,137,38,Male,White,United States,United States,United States,English,DATA_EXPIRED,Unemployed (and job seeking),Not Applicable
5c082f58b5b7c80001dd5bf4,<b>I have had some false beliefs.,Highly disagree,44/94,Somewhat agree,3,1708007913037,1708007915582,\Somewhat agree\,\Somewhat agree\,\3\,1708007915098,1708007915098,2061,2061,2545,buq,qns-item-noham,44,208280,0.0-1.0-0.43,65ce210a780605d135385585,AWAITING REVIEW,2024-02-15T14:34:53.750000Z,2024-02-15T14:42:59.470000Z,,2024-02-15T14:43:00.013100Z,486.0,CVPIIDEI,137,38,Male,White,United States,United States,United States,English,DATA_EXPIRED,Unemployed (and job seeking),Not Applicable
5c082f58b5b7c80001dd5bf4,"<b>If one friend does something that upsets me, I sometimes start to distrust people in general.",Highly disagree,45/94,Highly disagree,1,1708007915583,1708007920230,\Highly disagree\,\Highly disagree\,\1\,1708007919706,1708007919706,4123,4123,4647,buq,qns-item-noham,45,212928,0.0-1.0-0.44,65ce210a780605d135385585,AWAITING REVIEW,2024-02-15T14:34:53.750000Z,2024-02-15T14:42:59.470000Z,,2024-02-15T14:43:00.013100Z,486.0,CVPIIDEI,137,38,Male,White,United States,United States,United States,English,DATA_EXPIRED,Unemployed (and job seeking),Not Applicable
5c082f58b5b7c80001dd5bf4,<b>The facts about most important matters are easy to find.,Highly disagree,46/94,Somewhat agree,3,1708007920232,1708007925882,\Somewhat agree\,\Somewhat agree\,\3\,1708007925395,1708007925395,5163,5163,5650,buq,qns-item-noham,46,218580,0.0-1.0-0.45,65ce210a780605d135385585,AWAITING REVIEW,2024-02-15T14:34:53.750000Z,2024-02-15T14:42:59.470000Z,,2024-02-15T14:43:00.013100Z,486.0,CVPIIDEI,137,38,Male,White,United States,United States,United States,English,DATA_EXPIRED,Unemployed (and job seeking),Not Applicable
5c082f58b5b7c80001dd5bf4,<b>It?s better to know what?s true than to know what?s moral.,Highly disagree,47/94,Highly agree,4,1708007925883,1708007929224,\Highly agree\,\Highly agree\,\4\,1708007928786,1708007928786,2903,2903,3341,buq,qns-item-noham,47,221922,0.0-1.0-0.46,65ce210a780605d135385585,AWAITING REVIEW,2024-02-15T14:34:53.750000Z,2024-02-15T14:42:59.470000Z,,2024-02-15T14:43:00.013100Z,486.0,CVPIIDEI,137,38,Male,White,United States,United States,United States,English,DATA_EXPIRED,Unemployed (and job seeking),Not Applicable
5c082f58b5b7c80001dd5bf4,<b>I used to think the world was less complicated than I do now.,Highly disagree,48/94,Highly agree,4,1708007929225,1708007933420,\Highly agree\,\Highly agree\,\4\,1708007932990,1708007932990,3765,3765,4195,buq,qns-item-noham,48,226118,0.0-1.0-0.47,65ce210a780605d135385585,AWAITING REVIEW,2024-02-15T14:34:53.750000Z,2024-02-15T14:42:59.470000Z,,2024-02-15T14:43:00.013100Z,486.0,CVPIIDEI,137,38,Male,White,United States,United States,United States,English,DATA_EXPIRED,Unemployed (and job seeking),Not Applicable
5c082f58b5b7c80001dd5bf4,<b>People are usually completely right or completely wrong.,Highly disagree,49/94,Somewhat disagree,2,1708007933421,1708007938420,\Somewhat agree\,\Somewhat disagree\,\3\,1708007936304,1708007937936,2883,4515,4999,buq,qns-item-noham,49,231118,0.0-1.0-0.48,65ce210a780605d135385585,AWAITING REVIEW,2024-02-15T14:34:53.750000Z,2024-02-15T14:42:59.470000Z,,2024-02-15T14:43:00.013100Z,486.0,CVPIIDEI,137,38,Male,White,United States,United States,United States,English,DATA_EXPIRED,Unemployed (and job seeking),Not Applicable
5c082f58b5b7c80001dd5bf4,<b>I spend a lot of time considering alternatives to my beliefs.,Highly disagree,50/94,Highly agree,4,1708007938421,1708007941874,\Highly agree\,\Highly agree\,\4\,1708007941386,1708007941386,2965,2965,3453,buq,qns-item-noham,50,234572,0.0-1.0-0.49,65ce210a780605d135385585,AWAITING REVIEW,2024-02-15T14:34:53.750000Z,2024-02-15T14:42:59.470000Z,,2024-02-15T14:43:00.013100Z,486.0,CVPIIDEI,137,38,Male,White,United States,United States,United States,English,DATA_EXPIRED,Unemployed (and job seeking),Not Applicable
5c082f58b5b7c80001dd5bf4,"<b>Political enemies need to be defeated, not convinced.",Highly disagree,51/94,Highly disagree,1,1708007941875,1708007944811,\Highly disagree\,\Highly disagree\,\1\,1708007943868,1708007943868,1993,1993,2936,buq,qns-item-noham,51,237509,0.0-1.0-0.50,65ce210a780605d135385585,AWAITING REVIEW,2024-02-15T14:34:53.750000Z,2024-02-15T14:42:59.470000Z,,2024-02-15T14:43:00.013100Z,486.0,CVPIIDEI,137,38,Male,White,United States,United States,United States,English,DATA_EXPIRED,Unemployed (and job seeking),Not Applicable
5c082f58b5b7c80001dd5bf4,<b>I form my political views only after meticulously gathering historical and present information about their policies.,Highly disagree,52/94,Highly agree,4,1708007944811,1708007948536,\Highly agree\,\Highly agree\,\4\,1708007947698,1708007947698,2887,2887,3725,buq,qns-item-noham,52,241234,0.0-1.0-0.51,65ce210a780605d135385585,AWAITING REVIEW,2024-02-15T14:34:53.750000Z,2024-02-15T14:42:59.470000Z,,2024-02-15T14:43:00.013100Z,486.0,CVPIIDEI,137,38,Male,White,United States,United States,United States,English,DATA_EXPIRED,Unemployed (and job seeking),Not Applicable
5c082f58b5b7c80001dd5bf4,<b>It is difficult for me to remember the last time I was surprised by politics.,Highly disagree,53/94,Highly disagree,1,1708007948537,1708007952338,\Highly disagree\,\Highly disagree\,\1\,1708007951791,1708007951791,3254,3254,3801,buq,qns-item-noham,53,245036,0.0-1.0-0.52,65ce210a780605d135385585,AWAITING REVIEW,2024-02-15T14:34:53.750000Z,2024-02-15T14:42:59.470000Z,,2024-02-15T14:43:00.013100Z,486.0,CVPIIDEI,137,38,Male,White,United States,United States,United States,English,DATA_EXPIRED,Unemployed (and job seeking),Not Applicable
5c082f58b5b7c80001dd5bf4,"<b>When I find out I?m wrong, I think a lot about my related beliefs.",Highly disagree,54/94,Somewhat agree,3,1708007952338,1708007956722,\Somewhat agree\,\Somewhat agree\,\3\,1708007955951,1708007955951,3613,3613,4384,buq,qns-item-noham,54,249420,0.0-1.0-0.53,65ce210a780605d135385585,AWAITING REVIEW,2024-02-15T14:34:53.750000Z,2024-02-15T14:42:59.470000Z,,2024-02-15T14:43:00.013100Z,486.0,CVPIIDEI,137,38,Male,White,United States,United States,United States,English,DATA_EXPIRED,Unemployed (and job seeking),Not Applicable
5c082f58b5b7c80001dd5bf4,"<b>If the political party I support messes up, it makes me think you can?t trust anyone these days",Highly disagree,55/94,Somewhat disagree,2,1708007956723,1708007960308,\Somewhat disagree\,\Somewhat disagree\,\2\,1708007959814,1708007959814,3091,3091,3585,buq,qns-item-noham,55,253006,0.0-1.0-0.54,65ce210a780605d135385585,AWAITING REVIEW,2024-02-15T14:34:53.750000Z,2024-02-15T14:42:59.470000Z,,2024-02-15T14:43:00.013100Z,486.0,CVPIIDEI,137,38,Male,White,United States,United States,United States,English,DATA_EXPIRED,Unemployed (and job seeking),Not Applicable
5c082f58b5b7c80001dd5bf4,<b>People?s brains turn off when they talk about politics.,Highly disagree,56/94,Somewhat agree,3,1708007960308,1708007963376,\Somewhat agree\,\Somewhat agree\,\3\,1708007962892,1708007962892,2584,2584,3068,buq,qns-item-noham,56,256074,0.0-1.0-0.55,65ce210a780605d135385585,AWAITING REVIEW,2024-02-15T14:34:53.750000Z,2024-02-15T14:42:59.470000Z,,2024-02-15T14:43:00.013100Z,486.0,CVPIIDEI,137,38,Male,White,United States,United States,United States,English,DATA_EXPIRED,Unemployed (and job seeking),Not Applicable
5c082f58b5b7c80001dd5bf4,<b>People who are wrong are usually just ignoring the obvious.,Highly disagree,57/94,Somewhat agree,3,1708007963377,1708007969174,\Somewhat agree\,\Somewhat agree\,\3\,1708007968422,1708007968422,5045,5045,5797,buq,qns-item-noham,57,261872,0.0-1.0-0.56,65ce210a780605d135385585,AWAITING REVIEW,2024-02-15T14:34:53.750000Z,2024-02-15T14:42:59.470000Z,,2024-02-15T14:43:00.013100Z,486.0,CVPIIDEI,137,38,Male,White,United States,United States,United States,English,DATA_EXPIRED,Unemployed (and job seeking),Not Applicable
5c082f58b5b7c80001dd5bf4,"<b>When forming my views on people, I rely more on what they are like now rather than rely on my past experience with them.",Highly disagree,58/94,Somewhat agree,3,1708007969175,1708007975004,\Somewhat agree\,\Somewhat agree\,\3\,1708007974538,1708007974538,5363,5363,5829,buq,qns-item-noham,58,267702,0.0-1.0-0.57,65ce210a780605d135385585,AWAITING REVIEW,2024-02-15T14:34:53.750000Z,2024-02-15T14:42:59.470000Z,,2024-02-15T14:43:00.013100Z,486.0,CVPIIDEI,137,38,Male,White,United States,United States,United States,English,DATA_EXPIRED,Unemployed (and job seeking),Not Applicable
5c082f58b5b7c80001dd5bf4,"<b>When people contradict my beliefs, I usually know about their evidence already.",Highly disagree,59/94,Somewhat disagree,2,1708007975005,1708007981271,\Somewhat disagree\,\Somewhat disagree\,\2\,1708007980418,1708007980418,5413,5413,6266,buq,qns-item-noham,59,273969,0.0-1.0-0.58,65ce210a780605d135385585,AWAITING REVIEW,2024-02-15T14:34:53.750000Z,2024-02-15T14:42:59.470000Z,,2024-02-15T14:43:00.013100Z,486.0,CVPIIDEI,137,38,Male,White,United States,United States,United States,English,DATA_EXPIRED,Unemployed (and job seeking),Not Applicable
5c082f58b5b7c80001dd5bf4,<b>Figuring out what?s true and what?s false mainly requires a strong moral compass.,Highly disagree,60/94,Somewhat agree,3,1708007981271,1708007987187,\Somewhat agree\,\Somewhat agree\,\3\,1708007986710,1708007986710,5439,5439,5916,buq,qns-item-noham,60,279885,0.0-1.0-0.59,65ce210a780605d135385585,AWAITING REVIEW,2024-02-15T14:34:53.750000Z,2024-02-15T14:42:59.470000Z,,2024-02-15T14:43:00.013100Z,486.0,CVPIIDEI,137,38,Male,White,United States,United States,United States,English,DATA_EXPIRED,Unemployed (and job seeking),Not Applicable
5c082f58b5b7c80001dd5bf4,"<b>Usually I?m wrong about simple things, not complicated ones.",Highly disagree,61/94,Somewhat agree,3,1708007987188,1708007994253,\Highly disagree\,\Somewhat agree\,\1\,1708007990834,1708007993703,3646,6515,7065,buq,qns-item-noham,61,286951,0.0-1.0-0.60,65ce210a780605d135385585,AWAITING REVIEW,2024-02-15T14:34:53.750000Z,2024-02-15T14:42:59.470000Z,,2024-02-15T14:43:00.013100Z,486.0,CVPIIDEI,137,38,Male,White,United States,United States,United States,English,DATA_EXPIRED,Unemployed (and job seeking),Not Applicable
5c082f58b5b7c80001dd5bf4,<b>Getting all the information I want about important things is hard.,Highly disagree,62/94,Somewhat agree,3,1708007994254,1708007998360,\Somewhat agree\,\Somewhat agree\,\3\,1708007997830,1708007997830,3576,3576,4106,buq,qns-item-noham,62,291058,0.0-1.0-0.61,65ce210a780605d135385585,AWAITING REVIEW,2024-02-15T14:34:53.750000Z,2024-02-15T14:42:59.470000Z,,2024-02-15T14:43:00.013100Z,486.0,CVPIIDEI,137,38,Male,White,United States,United States,United States,English,DATA_EXPIRED,Unemployed (and job seeking),Not Applicable
5c082f58b5b7c80001dd5bf4,<b>Most false beliefs spread because people try to deceive one another.,Highly disagree,63/94,Highly agree,4,1708007998361,1708008002202,\Highly agree\,\Highly agree\,\4\,1708008001738,1708008001738,3377,3377,3841,buq,qns-item-noham,63,294900,0.0-1.0-0.62,65ce210a780605d135385585,AWAITING REVIEW,2024-02-15T14:34:53.750000Z,2024-02-15T14:42:59.470000Z,,2024-02-15T14:43:00.013100Z,486.0,CVPIIDEI,137,38,Male,White,United States,United States,United States,English,DATA_EXPIRED,Unemployed (and job seeking),Not Applicable
5c082f58b5b7c80001dd5bf4,<b>I can usually find something to agree with in most people?s beliefs.,Highly disagree,64/94,Somewhat agree,3,1708008002203,1708008006500,\Somewhat agree\,\Somewhat agree\,\3\,1708008006053,1708008006053,3850,3850,4297,buq,qns-item-noham,64,299198,0.0-1.0-0.63,65ce210a780605d135385585,AWAITING REVIEW,2024-02-15T14:34:53.750000Z,2024-02-15T14:42:59.470000Z,,2024-02-15T14:43:00.013100Z,486.0,CVPIIDEI,137,38,Male,White,United States,United States,United States,English,DATA_EXPIRED,Unemployed (and job seeking),Not Applicable
5c082f58b5b7c80001dd5bf4,<b>I only form my views of people once I get to know them very well.,Highly disagree,65/94,Highly agree,4,1708008006501,1708008011724,\Highly agree\,\Highly agree\,\4\,1708008009583,1708008009583,3082,3082,5223,buq,qns-item-noham,65,304422,0.0-1.0-0.64,65ce210a780605d135385585,AWAITING REVIEW,2024-02-15T14:34:53.750000Z,2024-02-15T14:42:59.470000Z,,2024-02-15T14:43:00.013100Z,486.0,CVPIIDEI,137,38,Male,White,United States,United States,United States,English,DATA_EXPIRED,Unemployed (and job seeking),Not Applicable
5c082f58b5b7c80001dd5bf4,"<b>When people tell me important things about the world, I usually believe them.",Highly disagree,66/94,Somewhat agree,3,1708008011725,1708008015834,\Somewhat agree\,\Somewhat agree\,\3\,1708008015308,1708008015308,3583,3583,4109,buq,qns-item-noham,66,308532,0.0-1.0-0.65,65ce210a780605d135385585,AWAITING REVIEW,2024-02-15T14:34:53.750000Z,2024-02-15T14:42:59.470000Z,,2024-02-15T14:43:00.013100Z,486.0,CVPIIDEI,137,38,Male,White,United States,United States,United States,English,DATA_EXPIRED,Unemployed (and job seeking),Not Applicable
5c082f58b5b7c80001dd5bf4,"<b>If a friend does something that upsets me, it reminds me what an unpredictable place the world is.",Highly disagree,67/94,Somewhat agree,3,1708008015835,1708008019108,\Somewhat agree\,\Somewhat agree\,\3\,1708008018682,1708008018682,2847,2847,3273,buq,qns-item-noham,67,311806,0.0-1.0-0.66,65ce210a780605d135385585,AWAITING REVIEW,2024-02-15T14:34:53.750000Z,2024-02-15T14:42:59.470000Z,,2024-02-15T14:43:00.013100Z,486.0,CVPIIDEI,137,38,Male,White,United States,United States,United States,English,DATA_EXPIRED,Unemployed (and job seeking),Not Applicable
5c082f58b5b7c80001dd5bf4,<b>People tend to believe whatever is good for their friends.,Highly disagree,68/94,Somewhat agree,3,1708008019109,1708008023554,\Somewhat agree\,\Somewhat agree\,\3\,1708008023066,1708008023066,3957,3957,4445,buq,qns-item-noham,68,316252,0.0-1.0-0.67,65ce210a780605d135385585,AWAITING REVIEW,2024-02-15T14:34:53.750000Z,2024-02-15T14:42:59.470000Z,,2024-02-15T14:43:00.013100Z,486.0,CVPIIDEI,137,38,Male,White,United States,United States,United States,English,DATA_EXPIRED,Unemployed (and job seeking),Not Applicable
5c082f58b5b7c80001dd5bf4,<b>I used to be more certain my beliefs were true.,Highly disagree,69/94,Somewhat disagree,2,1708008023555,1708008029366,\Somewhat disagree\,\Somewhat disagree\,\2\,1708008028875,1708008028875,5320,5320,5811,buq,qns-item-noham,69,322064,0.0-1.0-0.68,65ce210a780605d135385585,AWAITING REVIEW,2024-02-15T14:34:53.750000Z,2024-02-15T14:42:59.470000Z,,2024-02-15T14:43:00.013100Z,486.0,CVPIIDEI,137,38,Male,White,United States,United States,United States,English,DATA_EXPIRED,Unemployed (and job seeking),Not Applicable
5c082f58b5b7c80001dd5bf4,<b>It?s often pretty easy to figure out whether something is true based on who said it.,Highly disagree,70/94,Somewhat agree,3,1708008029368,1708008037569,\Somewhat disagree\,\Somewhat agree\,\2\,1708008036292,1708008037048,6924,7680,8201,buq,qns-item-noham,70,330267,0.0-1.0-0.69,65ce210a780605d135385585,AWAITING REVIEW,2024-02-15T14:34:53.750000Z,2024-02-15T14:42:59.470000Z,,2024-02-15T14:43:00.013100Z,486.0,CVPIIDEI,137,38,Male,White,United States,United States,United States,English,DATA_EXPIRED,Unemployed (and job seeking),Not Applicable
5c082f58b5b7c80001dd5bf4,<b>I transform into a hummingbird every day.,Highly disagree,71/94,Highly disagree,1,1708008037570,1708008040310,\Highly disagree\,\Highly disagree\,\1\,1708008039676,1708008039676,2106,2106,2740,buq,qns-item-noham,71,333009,0.0-1.0-0.70,65ce210a780605d135385585,AWAITING REVIEW,2024-02-15T14:34:53.750000Z,2024-02-15T14:42:59.470000Z,,2024-02-15T14:43:00.013100Z,486.0,CVPIIDEI,137,38,Male,White,United States,United States,United States,English,DATA_EXPIRED,Unemployed (and job seeking),Not Applicable
5c082f58b5b7c80001dd5bf4,<b>I think a lot about arguments against my views.,Highly disagree,72/94,Somewhat agree,3,1708008040312,1708008047682,\Somewhat agree\,\Somewhat agree\,\3\,1708008046788,1708008046788,6476,6476,7370,buq,qns-item-noham,72,340380,0.0-1.0-0.71,65ce210a780605d135385585,AWAITING REVIEW,2024-02-15T14:34:53.750000Z,2024-02-15T14:42:59.470000Z,,2024-02-15T14:43:00.013100Z,486.0,CVPIIDEI,137,38,Male,White,United States,United States,United States,English,DATA_EXPIRED,Unemployed (and job seeking),Not Applicable
5c082f58b5b7c80001dd5bf4,<b>Personal experience is usually more important than facts and figures.,Highly disagree,73/94,Somewhat disagree,2,1708008047683,1708008051204,\Somewhat disagree\,\Somewhat disagree\,\2\,1708008050680,1708008050680,2997,2997,3521,buq,qns-item-noham,73,343902,0.0-1.0-0.72,65ce210a780605d135385585,AWAITING REVIEW,2024-02-15T14:34:53.750000Z,2024-02-15T14:42:59.470000Z,,2024-02-15T14:43:00.013100Z,486.0,CVPIIDEI,137,38,Male,White,United States,United States,United States,English,DATA_EXPIRED,Unemployed (and job seeking),Not Applicable
5c082f58b5b7c80001dd5bf4,<b>I?ve been tricked before about important matters.,Highly disagree,74/94,Somewhat agree,3,1708008051205,1708008053750,\Somewhat agree\,\Somewhat agree\,\3\,1708008053322,1708008053322,2117,2117,2545,buq,qns-item-noham,74,346448,0.0-1.0-0.73,65ce210a780605d135385585,AWAITING REVIEW,2024-02-15T14:34:53.750000Z,2024-02-15T14:42:59.470000Z,,2024-02-15T14:43:00.013100Z,486.0,CVPIIDEI,137,38,Male,White,United States,United States,United States,English,DATA_EXPIRED,Unemployed (and job seeking),Not Applicable
5c082f58b5b7c80001dd5bf4,<b>I would need to be totally wowed if I were to change my opinion of a restaurant I don?t like.,Highly disagree,75/94,Somewhat disagree,2,1708008053751,1708008057724,\Somewhat disagree\,\Somewhat disagree\,\2\,1708008056888,1708008056888,3137,3137,3973,buq,qns-item-noham,75,350422,0.0-1.0-0.74,65ce210a780605d135385585,AWAITING REVIEW,2024-02-15T14:34:53.750000Z,2024-02-15T14:42:59.470000Z,,2024-02-15T14:43:00.013100Z,486.0,CVPIIDEI,137,38,Male,White,United States,United States,United States,English,DATA_EXPIRED,Unemployed (and job seeking),Not Applicable
5c082f58b5b7c80001dd5bf4,<b>I care a lot about politics.,Highly disagree,76/94,Highly agree,4,1708008057725,1708008059562,\Highly agree\,\Highly agree\,\4\,1708008058974,1708008058974,1249,1249,1837,buq,qns-item-noham,76,352260,0.0-1.0-0.75,65ce210a780605d135385585,AWAITING REVIEW,2024-02-15T14:34:53.750000Z,2024-02-15T14:42:59.470000Z,,2024-02-15T14:43:00.013100Z,486.0,CVPIIDEI,137,38,Male,White,United States,United States,United States,English,DATA_EXPIRED,Unemployed (and job seeking),Not Applicable
5c082f58b5b7c80001dd5bf4,<b>There are some topics I?ve been really wrong about.,Highly disagree,77/94,Somewhat agree,3,1708008059562,1708008062653,\Somewhat agree\,\Somewhat agree\,\3\,1708008061495,1708008061495,1933,1933,3091,buq,qns-item-noham,77,355351,0.0-1.0-0.76,65ce210a780605d135385585,AWAITING REVIEW,2024-02-15T14:34:53.750000Z,2024-02-15T14:42:59.470000Z,,2024-02-15T14:43:00.013100Z,486.0,CVPIIDEI,137,38,Male,White,United States,United States,United States,English,DATA_EXPIRED,Unemployed (and job seeking),Not Applicable
5c082f58b5b7c80001dd5bf4,<b>Most beliefs can be supported with at least some evidence.,Highly disagree,78/94,Somewhat agree,3,1708008062654,1708008067672,\Somewhat agree\,\Somewhat agree\,\3\,1708008067000,1708008067000,4346,4346,5018,buq,qns-item-noham,78,360370,0.0-1.0-0.77,65ce210a780605d135385585,AWAITING REVIEW,2024-02-15T14:34:53.750000Z,2024-02-15T14:42:59.470000Z,,2024-02-15T14:43:00.013100Z,486.0,CVPIIDEI,137,38,Male,White,United States,United States,United States,English,DATA_EXPIRED,Unemployed (and job seeking),Not Applicable
5c082f58b5b7c80001dd5bf4,<b>Other people make life out to be more complicated than it really is.,Highly disagree,79/94,Somewhat disagree,2,1708008067673,1708008071503,\Somewhat disagree\,\Somewhat disagree\,\2\,1708008070981,1708008070981,3308,3308,3830,buq,qns-item-noham,79,364201,0.0-1.0-0.78,65ce210a780605d135385585,AWAITING REVIEW,2024-02-15T14:34:53.750000Z,2024-02-15T14:42:59.470000Z,,2024-02-15T14:43:00.013100Z,486.0,CVPIIDEI,137,38,Male,White,United States,United States,United States,English,DATA_EXPIRED,Unemployed (and job seeking),Not Applicable
5c082f58b5b7c80001dd5bf4,"<b>Policy details don?t matter much, just the big picture.",Highly disagree,80/94,Somewhat disagree,2,1708008071504,1708008075067,\Somewhat disagree\,\Somewhat disagree\,\2\,1708008074560,1708008074560,3056,3056,3563,buq,qns-item-noham,80,367765,0.0-1.0-0.79,65ce210a780605d135385585,AWAITING REVIEW,2024-02-15T14:34:53.750000Z,2024-02-15T14:42:59.470000Z,,2024-02-15T14:43:00.013100Z,486.0,CVPIIDEI,137,38,Male,White,United States,United States,United States,English,DATA_EXPIRED,Unemployed (and job seeking),Not Applicable
5c082f58b5b7c80001dd5bf4,<b>I know my friends so well they can hardly ever surprise me.,Highly disagree,81/94,Highly disagree,1,1708008075069,1708008079210,\Highly disagree\,\Highly disagree\,\1\,1708008078687,1708008078687,3618,3618,4141,buq,qns-item-noham,81,371908,0.0-1.0-0.80,65ce210a780605d135385585,AWAITING REVIEW,2024-02-15T14:34:53.750000Z,2024-02-15T14:42:59.470000Z,,2024-02-15T14:43:00.013100Z,486.0,CVPIIDEI,137,38,Male,White,United States,United States,United States,English,DATA_EXPIRED,Unemployed (and job seeking),Not Applicable
5c082f58b5b7c80001dd5bf4,<b>I do not often change my views on people.,Highly disagree,82/94,Somewhat disagree,2,1708008079211,1708008083313,\Somewhat disagree\,\Somewhat disagree\,\2\,1708008082759,1708008082759,3548,3548,4102,buq,qns-item-noham,82,376011,0.0-1.0-0.81,65ce210a780605d135385585,AWAITING REVIEW,2024-02-15T14:34:53.750000Z,2024-02-15T14:42:59.470000Z,,2024-02-15T14:43:00.013100Z,486.0,CVPIIDEI,137,38,Male,White,United States,United States,United States,English,DATA_EXPIRED,Unemployed (and job seeking),Not Applicable
5c082f58b5b7c80001dd5bf4,<b>I?m more certain about my beliefs than I used to be.,Highly disagree,83/94,Somewhat agree,3,1708008083314,1708008086653,\Somewhat agree\,\Somewhat agree\,\3\,1708008086184,1708008086184,2870,2870,3339,buq,qns-item-noham,83,379351,0.0-1.0-0.82,65ce210a780605d135385585,AWAITING REVIEW,2024-02-15T14:34:53.750000Z,2024-02-15T14:42:59.470000Z,,2024-02-15T14:43:00.013100Z,486.0,CVPIIDEI,137,38,Male,White,United States,United States,United States,English,DATA_EXPIRED,Unemployed (and job seeking),Not Applicable
5c082f58b5b7c80001dd5bf4,<b>People often tell falsehoods unintentionally.,Highly disagree,84/94,Somewhat agree,3,1708008086654,1708008090983,\Somewhat agree\,\Somewhat agree\,\3\,1708008089261,1708008089261,2607,2607,4329,buq,qns-item-noham,84,383681,0.0-1.0-0.83,65ce210a780605d135385585,AWAITING REVIEW,2024-02-15T14:34:53.750000Z,2024-02-15T14:42:59.470000Z,,2024-02-15T14:43:00.013100Z,486.0,CVPIIDEI,137,38,Male,White,United States,United States,United States,English,DATA_EXPIRED,Unemployed (and job seeking),Not Applicable
5c082f58b5b7c80001dd5bf4,<b>Most people don?t know much about most things.,Highly disagree,85/94,Somewhat agree,3,1708008090985,1708008096683,\Somewhat agree\,\Somewhat agree\,\3\,1708008095751,1708008095751,4766,4766,5698,buq,qns-item-noham,85,389381,0.0-1.0-0.84,65ce210a780605d135385585,AWAITING REVIEW,2024-02-15T14:34:53.750000Z,2024-02-15T14:42:59.470000Z,,2024-02-15T14:43:00.013100Z,486.0,CVPIIDEI,137,38,Male,White,United States,United States,United States,English,DATA_EXPIRED,Unemployed (and job seeking),Not Applicable
5c082f58b5b7c80001dd5bf4,"<b>If I find out something new about someone, I easily change my views about them.",Highly disagree,86/94,Somewhat agree,3,1708008096685,1708008110899,\Somewhat agree\,\Somewhat agree\,\3\,1708008110343,1708008110343,13658,13658,14214,buq,qns-item-noham,86,403597,0.0-1.0-0.85,65ce210a780605d135385585,AWAITING REVIEW,2024-02-15T14:34:53.750000Z,2024-02-15T14:42:59.470000Z,,2024-02-15T14:43:00.013100Z,486.0,CVPIIDEI,137,38,Male,White,United States,United States,United States,English,DATA_EXPIRED,Unemployed (and job seeking),Not Applicable
5c082f58b5b7c80001dd5bf4,<b>Having true beliefs is difficult.,Highly disagree,87/94,Somewhat agree,3,1708008110900,1708008114122,\Somewhat agree\,\Somewhat agree\,\3\,1708008113482,1708008113482,2582,2582,3222,buq,qns-item-noham,87,406820,0.0-1.0-0.86,65ce210a780605d135385585,AWAITING REVIEW,2024-02-15T14:34:53.750000Z,2024-02-15T14:42:59.470000Z,,2024-02-15T14:43:00.013100Z,486.0,CVPIIDEI,137,38,Male,White,United States,United States,United States,English,DATA_EXPIRED,Unemployed (and job seeking),Not Applicable
5c082f58b5b7c80001dd5bf4,<b>I don?t try new foods since I know I won?t like them.,Highly disagree,88/94,Highly disagree,1,1708008114123,1708008116568,\Highly disagree\,\Highly disagree\,\1\,1708008115750,1708008115750,1627,1627,2445,buq,qns-item-noham,88,409266,0.0-1.0-0.87,65ce210a780605d135385585,AWAITING REVIEW,2024-02-15T14:34:53.750000Z,2024-02-15T14:42:59.470000Z,,2024-02-15T14:43:00.013100Z,486.0,CVPIIDEI,137,38,Male,White,United States,United States,United States,English,DATA_EXPIRED,Unemployed (and job seeking),Not Applicable
5c082f58b5b7c80001dd5bf4,<b>Other people trick each other a lot.,Highly disagree,89/94,Somewhat agree,3,1708008116570,1708008121246,\Somewhat agree\,\Somewhat agree\,\3\,1708008119707,1708008119707,3137,3137,4676,buq,qns-item-noham,89,413944,0.0-1.0-0.88,65ce210a780605d135385585,AWAITING REVIEW,2024-02-15T14:34:53.750000Z,2024-02-15T14:42:59.470000Z,,2024-02-15T14:43:00.013100Z,486.0,CVPIIDEI,137,38,Male,White,United States,United States,United States,English,DATA_EXPIRED,Unemployed (and job seeking),Not Applicable
5c082f58b5b7c80001dd5bf4,<b>I would need to learn a lot about a person for my opinion of them to be swayed.,Highly disagree,90/94,Highly agree,4,1708008121246,1708008129521,\Highly agree\,\Highly agree\,\4\,1708008129053,1708008129053,7807,7807,8275,buq,qns-item-noham,90,422219,0.0-1.0-0.89,65ce210a780605d135385585,AWAITING REVIEW,2024-02-15T14:34:53.750000Z,2024-02-15T14:42:59.470000Z,,2024-02-15T14:43:00.013100Z,486.0,CVPIIDEI,137,38,Male,White,United States,United States,United States,English,DATA_EXPIRED,Unemployed (and job seeking),Not Applicable
5c082f58b5b7c80001dd5bf4,<b>People can?t usually trick me when it comes to topics I care about.,Highly disagree,91/94,Somewhat agree,3,1708008129523,1708008133233,\Somewhat disagree\,\Somewhat agree\,\2\,1708008131814,1708008132820,2291,3297,3710,buq,qns-item-noham,91,425931,0.0-1.0-0.90,65ce210a780605d135385585,AWAITING REVIEW,2024-02-15T14:34:53.750000Z,2024-02-15T14:42:59.470000Z,,2024-02-15T14:43:00.013100Z,486.0,CVPIIDEI,137,38,Male,White,United States,United States,United States,English,DATA_EXPIRED,Unemployed (and job seeking),Not Applicable
5c082f58b5b7c80001dd5bf4,<b>I do not often change my views on food.,Highly disagree,92/94,Highly disagree,1,1708008133234,1708008136640,\Highly disagree\,\Highly disagree\,\1\,1708008135947,1708008135947,2713,2713,3406,buq,qns-item-noham,92,429338,0.0-1.0-0.91,65ce210a780605d135385585,AWAITING REVIEW,2024-02-15T14:34:53.750000Z,2024-02-15T14:42:59.470000Z,,2024-02-15T14:43:00.013100Z,486.0,CVPIIDEI,137,38,Male,White,United States,United States,United States,English,DATA_EXPIRED,Unemployed (and job seeking),Not Applicable
5c082f58b5b7c80001dd5bf4,<b>Specific policies are often very important to me.,Highly disagree,93/94,Highly agree,4,1708008136641,1708008139703,\Highly agree\,\Highly agree\,\4\,1708008139236,1708008139236,2595,2595,3062,buq,qns-item-noham,93,432401,0.0-1.0-0.92,65ce210a780605d135385585,AWAITING REVIEW,2024-02-15T14:34:53.750000Z,2024-02-15T14:42:59.470000Z,,2024-02-15T14:43:00.013100Z,486.0,CVPIIDEI,137,38,Male,White,United States,United States,United States,English,DATA_EXPIRED,Unemployed (and job seeking),Not Applicable
5c082f58b5b7c80001dd5bf4,<b>Most people are woefully under-informed.,Highly disagree,94/94,Highly agree,4,1708008139704,1708008142451,\Highly agree\,\Highly agree\,\4\,1708008141749,1708008141749,2045,2045,2747,buq,qns-item-noham,94,435149,0.0-1.0-0.93,65ce210a780605d135385585,AWAITING REVIEW,2024-02-15T14:34:53.750000Z,2024-02-15T14:42:59.470000Z,,2024-02-15T14:43:00.013100Z,486.0,CVPIIDEI,137,38,Male,White,United States,United States,United States,English,DATA_EXPIRED,Unemployed (and job seeking),Not Applicable
5c082f58b5b7c80001dd5bf4,,,,,,,,,,,,,,,,,,,,,65ce210a780605d135385585,AWAITING REVIEW,2024-02-15T14:34:53.750000Z,2024-02-15T14:42:59.470000Z,,2024-02-15T14:43:00.013100Z,486.0,CVPIIDEI,137,38,Male,White,United States,United States,United States,English,DATA_EXPIRED,Unemployed (and job seeking),Not Applicable
