PROLIFIC_PID,Question,qns_options,quest_num,answer,answer_num,question_load_timestamp,next_btn_timestamp,text_selected,final_text_selected,option_num_selected,preview_timestamps,final_text_selected_time_stamp,rt_first_option_click,rt_final_option_click,rt_submit_click,questionnaire,trial_type,trial_index,time_elapsed,internal_node_id,Demographic_Submission id,Demographic_Status,Demographic_Started at,Demographic_Completed at,Demographic_Reviewed at,Demographic_Archived at,Demographic_Time taken,Demographic_Completion code,Demographic_Total approvals,Demographic_Age,Demographic_Sex,Demographic_Ethnicity simplified,Demographic_Country of birth,Demographic_Country of residence,Demographic_Nationality,Demographic_Language,Demographic_Student status,Demographic_Employment status,Demographic_Custom study tncs accepted at
65afcb27f5b821959d9ef2a0,<b>Knowing what?s true and knowing what to do about it are usually basically the same.,Highly disagree,1/94,Somewhat agree,3,1708007792355,1708007808341,\Somewhat agree\,\Somewhat agree\,\3\,1708007807604,1708007807604,15249,15249,15986,buq,qns-item-noham,1,27820,0.0-1.0-0.0,65ce2151508301bba9318cbe,AWAITING REVIEW,2024-02-15T14:36:06.507000Z,2024-02-15T14:48:11.871000Z,,2024-02-15T14:48:12.633681Z,726.0,CVPIIDEI,96,36,Male,Other,United States,United States,United States,English,No,Full-Time,Not Applicable
65afcb27f5b821959d9ef2a0,<b>Most people just believe whatever is convenient for them.,Highly disagree,2/94,Somewhat agree,3,1708007808343,1708007813563,\Somewhat agree\,\Somewhat agree\,\3\,1708007812698,1708007812698,4355,4355,5220,buq,qns-item-noham,2,33042,0.0-1.0-0.1,65ce2151508301bba9318cbe,AWAITING REVIEW,2024-02-15T14:36:06.507000Z,2024-02-15T14:48:11.871000Z,,2024-02-15T14:48:12.633681Z,726.0,CVPIIDEI,96,36,Male,Other,United States,United States,United States,English,No,Full-Time,Not Applicable
65afcb27f5b821959d9ef2a0,<b>Having some big beliefs helps me sort out minor ones.,Highly disagree,3/94,Highly agree,4,1708007813570,1708007818923,\Highly agree\,\Highly agree\,\4\,1708007818320,1708007818320,4750,4750,5353,buq,qns-item-noham,3,38402,0.0-1.0-0.2,65ce2151508301bba9318cbe,AWAITING REVIEW,2024-02-15T14:36:06.507000Z,2024-02-15T14:48:11.871000Z,,2024-02-15T14:48:12.633681Z,726.0,CVPIIDEI,96,36,Male,Other,United States,United States,United States,English,No,Full-Time,Not Applicable
65afcb27f5b821959d9ef2a0,<b>Political questions are usually pretty complicated.,Highly disagree,4/94,Somewhat disagree,2,1708007818925,1708007825074,\Somewhat disagree\,\Somewhat disagree\,\2\,1708007824474,1708007824474,5549,5549,6149,buq,qns-item-noham,4,44553,0.0-1.0-0.3,65ce2151508301bba9318cbe,AWAITING REVIEW,2024-02-15T14:36:06.507000Z,2024-02-15T14:48:11.871000Z,,2024-02-15T14:48:12.633681Z,726.0,CVPIIDEI,96,36,Male,Other,United States,United States,United States,English,No,Full-Time,Not Applicable
65afcb27f5b821959d9ef2a0,<b>Figuring out what?s important in life requires learning a lot of facts.,Highly disagree,5/94,Somewhat agree,3,1708007825076,1708007830425,\Somewhat agree\,\Somewhat agree\,\3\,1708007829866,1708007829866,4790,4790,5349,buq,qns-item-noham,5,49904,0.0-1.0-0.4,65ce2151508301bba9318cbe,AWAITING REVIEW,2024-02-15T14:36:06.507000Z,2024-02-15T14:48:11.871000Z,,2024-02-15T14:48:12.633681Z,726.0,CVPIIDEI,96,36,Male,Other,United States,United States,United States,English,No,Full-Time,Not Applicable
65afcb27f5b821959d9ef2a0,<b>It is difficult for me to remember the last time I was surprised by politics.,Highly disagree,6/94,Somewhat agree,3,1708007830427,1708007835846,\Somewhat agree\,\Somewhat agree\,\3\,1708007835314,1708007835314,4887,4887,5419,buq,qns-item-noham,6,55325,0.0-1.0-0.5,65ce2151508301bba9318cbe,AWAITING REVIEW,2024-02-15T14:36:06.507000Z,2024-02-15T14:48:11.871000Z,,2024-02-15T14:48:12.633681Z,726.0,CVPIIDEI,96,36,Male,Other,United States,United States,United States,English,No,Full-Time,Not Applicable
65afcb27f5b821959d9ef2a0,<b>People?s false beliefs are understandable.,Highly disagree,7/94,Somewhat agree,3,1708007835848,1708007840602,\Somewhat agree\,\Somewhat agree\,\3\,1708007839871,1708007839871,4023,4023,4754,buq,qns-item-noham,7,60081,0.0-1.0-0.6,65ce2151508301bba9318cbe,AWAITING REVIEW,2024-02-15T14:36:06.507000Z,2024-02-15T14:48:11.871000Z,,2024-02-15T14:48:12.633681Z,726.0,CVPIIDEI,96,36,Male,Other,United States,United States,United States,English,No,Full-Time,Not Applicable
65afcb27f5b821959d9ef2a0,<b>I spend a lot of time trying to be informed about politics.,Highly disagree,8/94,Somewhat agree,3,1708007840604,1708007844490,\Somewhat agree\,\Somewhat agree\,\3\,1708007843958,1708007843958,3354,3354,3886,buq,qns-item-noham,8,63969,0.0-1.0-0.7,65ce2151508301bba9318cbe,AWAITING REVIEW,2024-02-15T14:36:06.507000Z,2024-02-15T14:48:11.871000Z,,2024-02-15T14:48:12.633681Z,726.0,CVPIIDEI,96,36,Male,Other,United States,United States,United States,English,No,Full-Time,Not Applicable
65afcb27f5b821959d9ef2a0,<b>I think a lot about whether my beliefs are right.,Highly disagree,9/94,Somewhat agree,3,1708007844492,1708007847887,\Somewhat agree\,\Somewhat agree\,\3\,1708007846980,1708007846980,2488,2488,3395,buq,qns-item-noham,9,67366,0.0-1.0-0.8,65ce2151508301bba9318cbe,AWAITING REVIEW,2024-02-15T14:36:06.507000Z,2024-02-15T14:48:11.871000Z,,2024-02-15T14:48:12.633681Z,726.0,CVPIIDEI,96,36,Male,Other,United States,United States,United States,English,No,Full-Time,Not Applicable
65afcb27f5b821959d9ef2a0,<b>Statistics can be pretty misleading sometimes.,Highly disagree,10/94,Somewhat agree,3,1708007847889,1708007853549,\Somewhat agree\,\Somewhat agree\,\3\,1708007852754,1708007852754,4865,4865,5660,buq,qns-item-noham,10,73028,0.0-1.0-0.9,65ce2151508301bba9318cbe,AWAITING REVIEW,2024-02-15T14:36:06.507000Z,2024-02-15T14:48:11.871000Z,,2024-02-15T14:48:12.633681Z,726.0,CVPIIDEI,96,36,Male,Other,United States,United States,United States,English,No,Full-Time,Not Applicable
65afcb27f5b821959d9ef2a0,<b>I have lots of beliefs that I?m only sort of sure about.,Highly disagree,11/94,Somewhat disagree,2,1708007853551,1708007860692,\Somewhat disagree\,\Somewhat disagree\,\2\,1708007860093,1708007860093,6542,6542,7141,buq,qns-item-noham,11,80171,0.0-1.0-0.10,65ce2151508301bba9318cbe,AWAITING REVIEW,2024-02-15T14:36:06.507000Z,2024-02-15T14:48:11.871000Z,,2024-02-15T14:48:12.633681Z,726.0,CVPIIDEI,96,36,Male,Other,United States,United States,United States,English,No,Full-Time,Not Applicable
65afcb27f5b821959d9ef2a0,"<b>If I go to my favorite restaurant and the food is surprisingly bad, it reminds me there are many disappointments in life.",Highly disagree,12/94,Somewhat agree,3,1708007860694,1708007865775,\Somewhat agree\,\Somewhat agree\,\3\,1708007865294,1708007865294,4600,4600,5081,buq,qns-item-noham,12,85254,0.0-1.0-0.11,65ce2151508301bba9318cbe,AWAITING REVIEW,2024-02-15T14:36:06.507000Z,2024-02-15T14:48:11.871000Z,,2024-02-15T14:48:12.633681Z,726.0,CVPIIDEI,96,36,Male,Other,United States,United States,United States,English,No,Full-Time,Not Applicable
65afcb27f5b821959d9ef2a0,"<b>If you are paying attention, please select ?Somewhat agree?",Highly disagree,13/94,Somewhat agree,3,1708007865776,1708007869706,\Somewhat agree\,\Somewhat agree\,\3\,1708007868964,1708007868964,3188,3188,3930,buq,qns-item-noham,13,89185,0.0-1.0-0.12,65ce2151508301bba9318cbe,AWAITING REVIEW,2024-02-15T14:36:06.507000Z,2024-02-15T14:48:11.871000Z,,2024-02-15T14:48:12.633681Z,726.0,CVPIIDEI,96,36,Male,Other,United States,United States,United States,English,No,Full-Time,Not Applicable
65afcb27f5b821959d9ef2a0,"<b>When I talk to others, I often worry I?ll convince them of something I didn?t mean to.",Highly disagree,14/94,Somewhat agree,3,1708007869708,1708007880010,\Somewhat agree\,\Somewhat agree\,\3\,1708007878466,1708007878466,8758,8758,10302,buq,qns-item-noham,14,99489,0.0-1.0-0.13,65ce2151508301bba9318cbe,AWAITING REVIEW,2024-02-15T14:36:06.507000Z,2024-02-15T14:48:11.871000Z,,2024-02-15T14:48:12.633681Z,726.0,CVPIIDEI,96,36,Male,Other,United States,United States,United States,English,No,Full-Time,Not Applicable
65afcb27f5b821959d9ef2a0,<b>I would need to learn something utterly shocking about my party in order to change my political views.,Highly disagree,15/94,Somewhat agree,3,1708007880012,1708007888146,\Highly agree\,\Somewhat agree\,\4\,1708007885348,1708007887576,5336,7564,8134,buq,qns-item-noham,15,107625,0.0-1.0-0.14,65ce2151508301bba9318cbe,AWAITING REVIEW,2024-02-15T14:36:06.507000Z,2024-02-15T14:48:11.871000Z,,2024-02-15T14:48:12.633681Z,726.0,CVPIIDEI,96,36,Male,Other,United States,United States,United States,English,No,Full-Time,Not Applicable
65afcb27f5b821959d9ef2a0,"<b>When I have new experiences, I tend to think of them as unique.",Highly disagree,16/94,Somewhat agree,3,1708007888148,1708007892694,\Somewhat agree\,\Somewhat agree\,\3\,1708007891904,1708007891904,3756,3756,4546,buq,qns-item-noham,16,112173,0.0-1.0-0.15,65ce2151508301bba9318cbe,AWAITING REVIEW,2024-02-15T14:36:06.507000Z,2024-02-15T14:48:11.871000Z,,2024-02-15T14:48:12.633681Z,726.0,CVPIIDEI,96,36,Male,Other,United States,United States,United States,English,No,Full-Time,Not Applicable
65afcb27f5b821959d9ef2a0,<b>I change my mind about specific policies pretty frequently.,Highly disagree,17/94,Somewhat disagree,2,1708007892694,1708007896850,\Somewhat disagree\,\Somewhat disagree\,\2\,1708007896264,1708007896264,3570,3570,4156,buq,qns-item-noham,17,116329,0.0-1.0-0.16,65ce2151508301bba9318cbe,AWAITING REVIEW,2024-02-15T14:36:06.507000Z,2024-02-15T14:48:11.871000Z,,2024-02-15T14:48:12.633681Z,726.0,CVPIIDEI,96,36,Male,Other,United States,United States,United States,English,No,Full-Time,Not Applicable
65afcb27f5b821959d9ef2a0,"<b>If a politician in my political party supports something I disagree with, I give them the benefit of the doubt, as such issues often involve hidden complexities that aren?t obvious.   ",Highly disagree,18/94,Somewhat agree,3,1708007896850,1708007906270,\Somewhat agree\,\Somewhat agree\,\3\,1708007905198,1708007905198,8348,8348,9420,buq,qns-item-noham,18,125749,0.0-1.0-0.17,65ce2151508301bba9318cbe,AWAITING REVIEW,2024-02-15T14:36:06.507000Z,2024-02-15T14:48:11.871000Z,,2024-02-15T14:48:12.633681Z,726.0,CVPIIDEI,96,36,Male,Other,United States,United States,United States,English,No,Full-Time,Not Applicable
65afcb27f5b821959d9ef2a0,<b>People?s bad politics are usually motivated by hatefulness.,Highly disagree,19/94,Somewhat agree,3,1708007906272,1708007910381,\Somewhat agree\,\Somewhat agree\,\3\,1708007909328,1708007909328,3056,3056,4109,buq,qns-item-noham,19,129860,0.0-1.0-0.18,65ce2151508301bba9318cbe,AWAITING REVIEW,2024-02-15T14:36:06.507000Z,2024-02-15T14:48:11.871000Z,,2024-02-15T14:48:12.633681Z,726.0,CVPIIDEI,96,36,Male,Other,United States,United States,United States,English,No,Full-Time,Not Applicable
65afcb27f5b821959d9ef2a0,<b>I think a lot about how to reconcile my beliefs with one another.,Highly disagree,20/94,Highly agree,4,1708007910382,1708007916490,\Somewhat agree\,\Highly agree\,\3\,1708007914632,1708007915951,4250,5569,6108,buq,qns-item-noham,20,135969,0.0-1.0-0.19,65ce2151508301bba9318cbe,AWAITING REVIEW,2024-02-15T14:36:06.507000Z,2024-02-15T14:48:11.871000Z,,2024-02-15T14:48:12.633681Z,726.0,CVPIIDEI,96,36,Male,Other,United States,United States,United States,English,No,Full-Time,Not Applicable
65afcb27f5b821959d9ef2a0,<b>I might have false beliefs about important topics.,Highly disagree,21/94,Somewhat disagree,2,1708007916491,1708007924070,\Somewhat agree\,\Somewhat disagree\,\3\,1708007920231,1708007923506,3740,7015,7579,buq,qns-item-noham,21,143549,0.0-1.0-0.20,65ce2151508301bba9318cbe,AWAITING REVIEW,2024-02-15T14:36:06.507000Z,2024-02-15T14:48:11.871000Z,,2024-02-15T14:48:12.633681Z,726.0,CVPIIDEI,96,36,Male,Other,United States,United States,United States,English,No,Full-Time,Not Applicable
65afcb27f5b821959d9ef2a0,"<b>If a good friend of mine does something unexpected that upsets me, I feel like I don?t know them anymore.",Highly disagree,22/94,Somewhat disagree,2,1708007924071,1708007928999,\Somewhat disagree\,\Somewhat disagree\,\2\,1708007928346,1708007928346,4275,4275,4928,buq,qns-item-noham,22,148478,0.0-1.0-0.21,65ce2151508301bba9318cbe,AWAITING REVIEW,2024-02-15T14:36:06.507000Z,2024-02-15T14:48:11.871000Z,,2024-02-15T14:48:12.633681Z,726.0,CVPIIDEI,96,36,Male,Other,United States,United States,United States,English,No,Full-Time,Not Applicable
65afcb27f5b821959d9ef2a0,<b>Other people?s beliefs are often incoherent.,Highly disagree,23/94,Somewhat disagree,2,1708007929001,1708007933508,\Somewhat disagree\,\Somewhat disagree\,\2\,1708007932908,1708007932908,3907,3907,4507,buq,qns-item-noham,23,152987,0.0-1.0-0.22,65ce2151508301bba9318cbe,AWAITING REVIEW,2024-02-15T14:36:06.507000Z,2024-02-15T14:48:11.871000Z,,2024-02-15T14:48:12.633681Z,726.0,CVPIIDEI,96,36,Male,Other,United States,United States,United States,English,No,Full-Time,Not Applicable
65afcb27f5b821959d9ef2a0,"<b>Every now and then, a new experience will unsettle beliefs I?ve had for a while.",Highly disagree,24/94,Highly disagree,1,1708007933510,1708007941120,\Somewhat disagree\,\Highly disagree\,\2\,1708007939456,1708007940158,5946,6648,7610,buq,qns-item-noham,24,160599,0.0-1.0-0.23,65ce2151508301bba9318cbe,AWAITING REVIEW,2024-02-15T14:36:06.507000Z,2024-02-15T14:48:11.871000Z,,2024-02-15T14:48:12.633681Z,726.0,CVPIIDEI,96,36,Male,Other,United States,United States,United States,English,No,Full-Time,Not Applicable
65afcb27f5b821959d9ef2a0,<b>Some policies I agree with in principle are so bad I don?t support them. ,Highly disagree,25/94,Highly disagree,1,1708007941121,1708007951873,\Highly disagree\,\Highly disagree\,\1\,1708007951162,1708007951162,10041,10041,10752,buq,qns-item-noham,25,171352,0.0-1.0-0.24,65ce2151508301bba9318cbe,AWAITING REVIEW,2024-02-15T14:36:06.507000Z,2024-02-15T14:48:11.871000Z,,2024-02-15T14:48:12.633681Z,726.0,CVPIIDEI,96,36,Male,Other,United States,United States,United States,English,No,Full-Time,Not Applicable
65afcb27f5b821959d9ef2a0,<b>I?m pretty sure I?ve accidentally spread false information.,Highly disagree,26/94,Somewhat disagree,2,1708007951875,1708007960846,\Somewhat disagree\,\Somewhat disagree\,\2\,1708007957594,1708007957594,5719,5719,8971,buq,qns-item-noham,26,180325,0.0-1.0-0.25,65ce2151508301bba9318cbe,AWAITING REVIEW,2024-02-15T14:36:06.507000Z,2024-02-15T14:48:11.871000Z,,2024-02-15T14:48:12.633681Z,726.0,CVPIIDEI,96,36,Male,Other,United States,United States,United States,English,No,Full-Time,Not Applicable
65afcb27f5b821959d9ef2a0,"<b>If I go to my favorite restaurant and the food is unexpectedly bad, then they have changed owners.",Highly disagree,27/94,Somewhat disagree,2,1708007960847,1708007967758,\Somewhat disagree\,\Somewhat disagree\,\2\,1708007966484,1708007966484,5637,5637,6911,buq,qns-item-noham,27,187237,0.0-1.0-0.26,65ce2151508301bba9318cbe,AWAITING REVIEW,2024-02-15T14:36:06.507000Z,2024-02-15T14:48:11.871000Z,,2024-02-15T14:48:12.633681Z,726.0,CVPIIDEI,96,36,Male,Other,United States,United States,United States,English,No,Full-Time,Not Applicable
65afcb27f5b821959d9ef2a0,"<b>In politics, it?s important to trust your friends and family.",Highly disagree,28/94,Somewhat disagree,2,1708007967760,1708007973088,\Somewhat disagree\,\Somewhat disagree\,\2\,1708007971844,1708007971844,4084,4084,5328,buq,qns-item-noham,28,192567,0.0-1.0-0.27,65ce2151508301bba9318cbe,AWAITING REVIEW,2024-02-15T14:36:06.507000Z,2024-02-15T14:48:11.871000Z,,2024-02-15T14:48:12.633681Z,726.0,CVPIIDEI,96,36,Male,Other,United States,United States,United States,English,No,Full-Time,Not Applicable
65afcb27f5b821959d9ef2a0,<b>It?s OK to have some conflicting beliefs.,Highly disagree,29/94,Somewhat agree,3,1708007973089,1708007979989,\Somewhat agree\,\Somewhat agree\,\3\,1708007979226,1708007979226,6137,6137,6900,buq,qns-item-noham,29,199468,0.0-1.0-0.28,65ce2151508301bba9318cbe,AWAITING REVIEW,2024-02-15T14:36:06.507000Z,2024-02-15T14:48:11.871000Z,,2024-02-15T14:48:12.633681Z,726.0,CVPIIDEI,96,36,Male,Other,United States,United States,United States,English,No,Full-Time,Not Applicable
65afcb27f5b821959d9ef2a0,<b>Listening to people I disagree with makes my opinions better.,Highly disagree,30/94,Somewhat agree,3,1708007979990,1708007984221,\Somewhat agree\,\Somewhat agree\,\3\,1708007983752,1708007983752,3762,3762,4231,buq,qns-item-noham,30,203700,0.0-1.0-0.29,65ce2151508301bba9318cbe,AWAITING REVIEW,2024-02-15T14:36:06.507000Z,2024-02-15T14:48:11.871000Z,,2024-02-15T14:48:12.633681Z,726.0,CVPIIDEI,96,36,Male,Other,United States,United States,United States,English,No,Full-Time,Not Applicable
65afcb27f5b821959d9ef2a0,<b>My moral compass sometimes makes it harder to determine what?s true.,Highly disagree,31/94,Highly disagree,1,1708007984222,1708007989508,\Somewhat disagree\,\Highly disagree\,\2\,1708007987266,1708007988940,3044,4718,5286,buq,qns-item-noham,31,208987,0.0-1.0-0.30,65ce2151508301bba9318cbe,AWAITING REVIEW,2024-02-15T14:36:06.507000Z,2024-02-15T14:48:11.871000Z,,2024-02-15T14:48:12.633681Z,726.0,CVPIIDEI,96,36,Male,Other,United States,United States,United States,English,No,Full-Time,Not Applicable
65afcb27f5b821959d9ef2a0,<b>Evidence pointing in the wrong direction isn?t really evidence at all.,Highly disagree,32/94,Somewhat disagree,2,1708007989509,1708007996824,\Somewhat disagree\,\Somewhat disagree\,\2\,1708007996288,1708007996288,6779,6779,7315,buq,qns-item-noham,32,216303,0.0-1.0-0.31,65ce2151508301bba9318cbe,AWAITING REVIEW,2024-02-15T14:36:06.507000Z,2024-02-15T14:48:11.871000Z,,2024-02-15T14:48:12.633681Z,726.0,CVPIIDEI,96,36,Male,Other,United States,United States,United States,English,No,Full-Time,Not Applicable
65afcb27f5b821959d9ef2a0,"<b>If the political party I support messes up, it makes me think politics is rotten.",Highly disagree,33/94,Somewhat agree,3,1708007996827,1708008006273,\Somewhat agree\,\Somewhat agree\,\3\,1708008005204,1708008005204,8377,8377,9446,buq,qns-item-noham,33,225752,0.0-1.0-0.32,65ce2151508301bba9318cbe,AWAITING REVIEW,2024-02-15T14:36:06.507000Z,2024-02-15T14:48:11.871000Z,,2024-02-15T14:48:12.633681Z,726.0,CVPIIDEI,96,36,Male,Other,United States,United States,United States,English,No,Full-Time,Not Applicable
65afcb27f5b821959d9ef2a0,<b>Lots of important topics can only really be understood by some groups of people.,Highly disagree,34/94,Somewhat disagree,2,1708008006275,1708008013823,\Somewhat disagree\,\Somewhat disagree\,\2\,1708008013371,1708008013371,7096,7096,7548,buq,qns-item-noham,34,233302,0.0-1.0-0.33,65ce2151508301bba9318cbe,AWAITING REVIEW,2024-02-15T14:36:06.507000Z,2024-02-15T14:48:11.871000Z,,2024-02-15T14:48:12.633681Z,726.0,CVPIIDEI,96,36,Male,Other,United States,United States,United States,English,No,Full-Time,Not Applicable
65afcb27f5b821959d9ef2a0,<b>Having conflicting beliefs means you haven?t thought about them enough.,Highly disagree,35/94,Somewhat disagree,2,1708008013825,1708008017777,\Somewhat disagree\,\Somewhat disagree\,\2\,1708008017171,1708008017171,3346,3346,3952,buq,qns-item-noham,35,237256,0.0-1.0-0.34,65ce2151508301bba9318cbe,AWAITING REVIEW,2024-02-15T14:36:06.507000Z,2024-02-15T14:48:11.871000Z,,2024-02-15T14:48:12.633681Z,726.0,CVPIIDEI,96,36,Male,Other,United States,United States,United States,English,No,Full-Time,Not Applicable
65afcb27f5b821959d9ef2a0,<b>I do not often change my political opinions.,Highly disagree,36/94,Somewhat disagree,2,1708008017778,1708008021537,\Somewhat disagree\,\Somewhat disagree\,\2\,1708008021013,1708008021013,3235,3235,3759,buq,qns-item-noham,36,241016,0.0-1.0-0.35,65ce2151508301bba9318cbe,AWAITING REVIEW,2024-02-15T14:36:06.507000Z,2024-02-15T14:48:11.871000Z,,2024-02-15T14:48:12.633681Z,726.0,CVPIIDEI,96,36,Male,Other,United States,United States,United States,English,No,Full-Time,Not Applicable
65afcb27f5b821959d9ef2a0,<b>It?s difficult to not have at least some conflicting beliefs.,Highly disagree,37/94,Somewhat agree,3,1708008021539,1708008029329,\Somewhat agree\,\Somewhat agree\,\3\,1708008028209,1708008028209,6670,6670,7790,buq,qns-item-noham,37,248808,0.0-1.0-0.36,65ce2151508301bba9318cbe,AWAITING REVIEW,2024-02-15T14:36:06.507000Z,2024-02-15T14:48:11.871000Z,,2024-02-15T14:48:12.633681Z,726.0,CVPIIDEI,96,36,Male,Other,United States,United States,United States,English,No,Full-Time,Not Applicable
65afcb27f5b821959d9ef2a0,<b>Wishful thinking causes a lot of problems.,Highly disagree,38/94,Somewhat disagree,2,1708008029331,1708008097169,\Somewhat disagree\,\Somewhat disagree\,\2\,1708008034605,1708008034605,5274,5274,67838,buq,qns-item-noham,38,316648,0.0-1.0-0.37,65ce2151508301bba9318cbe,AWAITING REVIEW,2024-02-15T14:36:06.507000Z,2024-02-15T14:48:11.871000Z,,2024-02-15T14:48:12.633681Z,726.0,CVPIIDEI,96,36,Male,Other,United States,United States,United States,English,No,Full-Time,Not Applicable
65afcb27f5b821959d9ef2a0,<b>I judge a food item only once I try it many times.,Highly disagree,39/94,Somewhat agree,3,1708008097171,1708008105314,\Somewhat agree\,\Somewhat agree\,\3\,1708008104843,1708008104843,7672,7672,8143,buq,qns-item-noham,39,324793,0.0-1.0-0.38,65ce2151508301bba9318cbe,AWAITING REVIEW,2024-02-15T14:36:06.507000Z,2024-02-15T14:48:11.871000Z,,2024-02-15T14:48:12.633681Z,726.0,CVPIIDEI,96,36,Male,Other,United States,United States,United States,English,No,Full-Time,Not Applicable
65afcb27f5b821959d9ef2a0,"<b>When a person holds conflicting beliefs, they should really try to figure out what?s wrong.",Highly disagree,40/94,Somewhat agree,3,1708008105315,1708008112721,\Somewhat agree\,\Somewhat agree\,\3\,1708008112165,1708008112165,6850,6850,7406,buq,qns-item-noham,40,332200,0.0-1.0-0.39,65ce2151508301bba9318cbe,AWAITING REVIEW,2024-02-15T14:36:06.507000Z,2024-02-15T14:48:11.871000Z,,2024-02-15T14:48:12.633681Z,726.0,CVPIIDEI,96,36,Male,Other,United States,United States,United States,English,No,Full-Time,Not Applicable
65afcb27f5b821959d9ef2a0,<b>Knowing what?s important in life is easy.,Highly disagree,41/94,Somewhat agree,3,1708008112722,1708008118336,\Highly agree\,\Somewhat agree\,\4\,1708008117236,1708008117812,4514,5090,5614,buq,qns-item-noham,41,337815,0.0-1.0-0.40,65ce2151508301bba9318cbe,AWAITING REVIEW,2024-02-15T14:36:06.507000Z,2024-02-15T14:48:11.871000Z,,2024-02-15T14:48:12.633681Z,726.0,CVPIIDEI,96,36,Male,Other,United States,United States,United States,English,No,Full-Time,Not Applicable
65afcb27f5b821959d9ef2a0,<b>I swim across the Atlantic Ocean to get to work every day.,Highly disagree,42/94,Highly disagree,1,1708008118338,1708008126620,\Highly disagree\,\Highly disagree\,\1\,1708008125268,1708008125268,6930,6930,8282,buq,qns-item-noham,42,346099,0.0-1.0-0.41,65ce2151508301bba9318cbe,AWAITING REVIEW,2024-02-15T14:36:06.507000Z,2024-02-15T14:48:11.871000Z,,2024-02-15T14:48:12.633681Z,726.0,CVPIIDEI,96,36,Male,Other,United States,United States,United States,English,No,Full-Time,Not Applicable
65afcb27f5b821959d9ef2a0,"<b>Sometimes, you just have to ignore evidence that you know is wrong.",Highly disagree,43/94,Somewhat agree,3,1708008126622,1708008133356,\Somewhat agree\,\Somewhat agree\,\3\,1708008132820,1708008132820,6198,6198,6734,buq,qns-item-noham,43,352835,0.0-1.0-0.42,65ce2151508301bba9318cbe,AWAITING REVIEW,2024-02-15T14:36:06.507000Z,2024-02-15T14:48:11.871000Z,,2024-02-15T14:48:12.633681Z,726.0,CVPIIDEI,96,36,Male,Other,United States,United States,United States,English,No,Full-Time,Not Applicable
65afcb27f5b821959d9ef2a0,<b>I have had some false beliefs.,Highly disagree,44/94,Somewhat agree,3,1708008133357,1708008136346,\Somewhat agree\,\Somewhat agree\,\3\,1708008135560,1708008135560,2203,2203,2989,buq,qns-item-noham,44,355825,0.0-1.0-0.43,65ce2151508301bba9318cbe,AWAITING REVIEW,2024-02-15T14:36:06.507000Z,2024-02-15T14:48:11.871000Z,,2024-02-15T14:48:12.633681Z,726.0,CVPIIDEI,96,36,Male,Other,United States,United States,United States,English,No,Full-Time,Not Applicable
65afcb27f5b821959d9ef2a0,"<b>If one friend does something that upsets me, I sometimes start to distrust people in general.",Highly disagree,45/94,Somewhat disagree,2,1708008136348,1708008140820,\Somewhat disagree\,\Somewhat disagree\,\2\,1708008140106,1708008140106,3758,3758,4472,buq,qns-item-noham,45,360299,0.0-1.0-0.44,65ce2151508301bba9318cbe,AWAITING REVIEW,2024-02-15T14:36:06.507000Z,2024-02-15T14:48:11.871000Z,,2024-02-15T14:48:12.633681Z,726.0,CVPIIDEI,96,36,Male,Other,United States,United States,United States,English,No,Full-Time,Not Applicable
65afcb27f5b821959d9ef2a0,<b>The facts about most important matters are easy to find.,Highly disagree,46/94,Somewhat agree,3,1708008140821,1708008167105,\Somewhat agree\,\Somewhat agree\,\3\,1708008165645,1708008165645,24824,24824,26284,buq,qns-item-noham,46,386584,0.0-1.0-0.45,65ce2151508301bba9318cbe,AWAITING REVIEW,2024-02-15T14:36:06.507000Z,2024-02-15T14:48:11.871000Z,,2024-02-15T14:48:12.633681Z,726.0,CVPIIDEI,96,36,Male,Other,United States,United States,United States,English,No,Full-Time,Not Applicable
65afcb27f5b821959d9ef2a0,<b>It?s better to know what?s true than to know what?s moral.,Highly disagree,47/94,Somewhat agree,3,1708008167107,1708008172129,\Somewhat agree\,\Somewhat agree\,\3\,1708008171263,1708008171263,4156,4156,5022,buq,qns-item-noham,47,391608,0.0-1.0-0.46,65ce2151508301bba9318cbe,AWAITING REVIEW,2024-02-15T14:36:06.507000Z,2024-02-15T14:48:11.871000Z,,2024-02-15T14:48:12.633681Z,726.0,CVPIIDEI,96,36,Male,Other,United States,United States,United States,English,No,Full-Time,Not Applicable
65afcb27f5b821959d9ef2a0,<b>I used to think the world was less complicated than I do now.,Highly disagree,48/94,Highly agree,4,1708008172131,1708008179610,\Highly agree\,\Highly agree\,\4\,1708008179019,1708008179019,6888,6888,7479,buq,qns-item-noham,48,399089,0.0-1.0-0.47,65ce2151508301bba9318cbe,AWAITING REVIEW,2024-02-15T14:36:06.507000Z,2024-02-15T14:48:11.871000Z,,2024-02-15T14:48:12.633681Z,726.0,CVPIIDEI,96,36,Male,Other,United States,United States,United States,English,No,Full-Time,Not Applicable
65afcb27f5b821959d9ef2a0,<b>People are usually completely right or completely wrong.,Highly disagree,49/94,Somewhat disagree,2,1708008179611,1708008183761,\Somewhat disagree\,\Somewhat disagree\,\2\,1708008183317,1708008183317,3706,3706,4150,buq,qns-item-noham,49,403240,0.0-1.0-0.48,65ce2151508301bba9318cbe,AWAITING REVIEW,2024-02-15T14:36:06.507000Z,2024-02-15T14:48:11.871000Z,,2024-02-15T14:48:12.633681Z,726.0,CVPIIDEI,96,36,Male,Other,United States,United States,United States,English,No,Full-Time,Not Applicable
65afcb27f5b821959d9ef2a0,<b>I spend a lot of time considering alternatives to my beliefs.,Highly disagree,50/94,Somewhat agree,3,1708008183763,1708008187142,\Somewhat agree\,\Somewhat agree\,\3\,1708008186387,1708008186387,2624,2624,3379,buq,qns-item-noham,50,406621,0.0-1.0-0.49,65ce2151508301bba9318cbe,AWAITING REVIEW,2024-02-15T14:36:06.507000Z,2024-02-15T14:48:11.871000Z,,2024-02-15T14:48:12.633681Z,726.0,CVPIIDEI,96,36,Male,Other,United States,United States,United States,English,No,Full-Time,Not Applicable
65afcb27f5b821959d9ef2a0,"<b>Political enemies need to be defeated, not convinced.",Highly disagree,51/94,Highly disagree,1,1708008187143,1708008191744,\Somewhat disagree\,\Highly disagree\,\2\,1708008189644,1708008190882,2501,3739,4601,buq,qns-item-noham,51,411223,0.0-1.0-0.50,65ce2151508301bba9318cbe,AWAITING REVIEW,2024-02-15T14:36:06.507000Z,2024-02-15T14:48:11.871000Z,,2024-02-15T14:48:12.633681Z,726.0,CVPIIDEI,96,36,Male,Other,United States,United States,United States,English,No,Full-Time,Not Applicable
65afcb27f5b821959d9ef2a0,<b>I form my political views only after meticulously gathering historical and present information about their policies.,Highly disagree,52/94,Somewhat agree,3,1708008191745,1708008198792,\Somewhat agree\,\Somewhat agree\,\3\,1708008198208,1708008198208,6463,6463,7047,buq,qns-item-noham,52,418271,0.0-1.0-0.51,65ce2151508301bba9318cbe,AWAITING REVIEW,2024-02-15T14:36:06.507000Z,2024-02-15T14:48:11.871000Z,,2024-02-15T14:48:12.633681Z,726.0,CVPIIDEI,96,36,Male,Other,United States,United States,United States,English,No,Full-Time,Not Applicable
65afcb27f5b821959d9ef2a0,<b>It is difficult for me to remember the last time I was surprised by politics.,Highly disagree,53/94,Somewhat agree,3,1708008198793,1708008206642,\Somewhat agree\,\Somewhat agree\,\3\,1708008205912,1708008205912,7119,7119,7849,buq,qns-item-noham,53,426121,0.0-1.0-0.52,65ce2151508301bba9318cbe,AWAITING REVIEW,2024-02-15T14:36:06.507000Z,2024-02-15T14:48:11.871000Z,,2024-02-15T14:48:12.633681Z,726.0,CVPIIDEI,96,36,Male,Other,United States,United States,United States,English,No,Full-Time,Not Applicable
65afcb27f5b821959d9ef2a0,"<b>When I find out I?m wrong, I think a lot about my related beliefs.",Highly disagree,54/94,Somewhat agree,3,1708008206644,1708008211034,\Somewhat agree\,\Somewhat agree\,\3\,1708008210632,1708008210632,3988,3988,4390,buq,qns-item-noham,54,430513,0.0-1.0-0.53,65ce2151508301bba9318cbe,AWAITING REVIEW,2024-02-15T14:36:06.507000Z,2024-02-15T14:48:11.871000Z,,2024-02-15T14:48:12.633681Z,726.0,CVPIIDEI,96,36,Male,Other,United States,United States,United States,English,No,Full-Time,Not Applicable
65afcb27f5b821959d9ef2a0,"<b>If the political party I support messes up, it makes me think you can?t trust anyone these days",Highly disagree,55/94,Somewhat disagree,2,1708008211036,1708008221228,\Somewhat disagree\,\Somewhat disagree\,\2\,1708008220517,1708008220517,9481,9481,10192,buq,qns-item-noham,55,440707,0.0-1.0-0.54,65ce2151508301bba9318cbe,AWAITING REVIEW,2024-02-15T14:36:06.507000Z,2024-02-15T14:48:11.871000Z,,2024-02-15T14:48:12.633681Z,726.0,CVPIIDEI,96,36,Male,Other,United States,United States,United States,English,No,Full-Time,Not Applicable
65afcb27f5b821959d9ef2a0,<b>People?s brains turn off when they talk about politics.,Highly disagree,56/94,Somewhat disagree,2,1708008221229,1708008226446,\Somewhat disagree\,\Somewhat disagree\,\2\,1708008225667,1708008225667,4438,4438,5217,buq,qns-item-noham,56,445925,0.0-1.0-0.55,65ce2151508301bba9318cbe,AWAITING REVIEW,2024-02-15T14:36:06.507000Z,2024-02-15T14:48:11.871000Z,,2024-02-15T14:48:12.633681Z,726.0,CVPIIDEI,96,36,Male,Other,United States,United States,United States,English,No,Full-Time,Not Applicable
65afcb27f5b821959d9ef2a0,<b>People who are wrong are usually just ignoring the obvious.,Highly disagree,57/94,Somewhat agree,3,1708008226447,1708008230977,\Somewhat agree\,\Somewhat agree\,\3\,1708008230355,1708008230355,3908,3908,4530,buq,qns-item-noham,57,450456,0.0-1.0-0.56,65ce2151508301bba9318cbe,AWAITING REVIEW,2024-02-15T14:36:06.507000Z,2024-02-15T14:48:11.871000Z,,2024-02-15T14:48:12.633681Z,726.0,CVPIIDEI,96,36,Male,Other,United States,United States,United States,English,No,Full-Time,Not Applicable
65afcb27f5b821959d9ef2a0,"<b>When forming my views on people, I rely more on what they are like now rather than rely on my past experience with them.",Highly disagree,58/94,Somewhat disagree,2,1708008230978,1708008238240,\Somewhat disagree\,\Somewhat disagree\,\2\,1708008237545,1708008237545,6567,6567,7262,buq,qns-item-noham,58,457719,0.0-1.0-0.57,65ce2151508301bba9318cbe,AWAITING REVIEW,2024-02-15T14:36:06.507000Z,2024-02-15T14:48:11.871000Z,,2024-02-15T14:48:12.633681Z,726.0,CVPIIDEI,96,36,Male,Other,United States,United States,United States,English,No,Full-Time,Not Applicable
65afcb27f5b821959d9ef2a0,"<b>When people contradict my beliefs, I usually know about their evidence already.",Highly disagree,59/94,Somewhat agree,3,1708008238241,1708008244876,\Somewhat agree\,\Somewhat agree\,\3\,1708008244400,1708008244400,6159,6159,6635,buq,qns-item-noham,59,464355,0.0-1.0-0.58,65ce2151508301bba9318cbe,AWAITING REVIEW,2024-02-15T14:36:06.507000Z,2024-02-15T14:48:11.871000Z,,2024-02-15T14:48:12.633681Z,726.0,CVPIIDEI,96,36,Male,Other,United States,United States,United States,English,No,Full-Time,Not Applicable
65afcb27f5b821959d9ef2a0,<b>Figuring out what?s true and what?s false mainly requires a strong moral compass.,Highly disagree,60/94,Somewhat disagree,2,1708008244878,1708008255682,\Somewhat disagree\,\Somewhat disagree\,\2\,1708008254609,1708008254609,9731,9731,10804,buq,qns-item-noham,60,475161,0.0-1.0-0.59,65ce2151508301bba9318cbe,AWAITING REVIEW,2024-02-15T14:36:06.507000Z,2024-02-15T14:48:11.871000Z,,2024-02-15T14:48:12.633681Z,726.0,CVPIIDEI,96,36,Male,Other,United States,United States,United States,English,No,Full-Time,Not Applicable
65afcb27f5b821959d9ef2a0,"<b>Usually I?m wrong about simple things, not complicated ones.",Highly disagree,61/94,Somewhat agree,3,1708008255685,1708008261467,\Somewhat agree\,\Somewhat agree\,\3\,1708008261016,1708008261016,5331,5331,5782,buq,qns-item-noham,61,480946,0.0-1.0-0.60,65ce2151508301bba9318cbe,AWAITING REVIEW,2024-02-15T14:36:06.507000Z,2024-02-15T14:48:11.871000Z,,2024-02-15T14:48:12.633681Z,726.0,CVPIIDEI,96,36,Male,Other,United States,United States,United States,English,No,Full-Time,Not Applicable
65afcb27f5b821959d9ef2a0,<b>Getting all the information I want about important things is hard.,Highly disagree,62/94,Somewhat disagree,2,1708008261469,1708008277199,\Somewhat disagree\,\Somewhat disagree\,\2\,1708008276630,1708008276630,15161,15161,15730,buq,qns-item-noham,62,496678,0.0-1.0-0.61,65ce2151508301bba9318cbe,AWAITING REVIEW,2024-02-15T14:36:06.507000Z,2024-02-15T14:48:11.871000Z,,2024-02-15T14:48:12.633681Z,726.0,CVPIIDEI,96,36,Male,Other,United States,United States,United States,English,No,Full-Time,Not Applicable
65afcb27f5b821959d9ef2a0,<b>Most false beliefs spread because people try to deceive one another.,Highly disagree,63/94,Highly agree,4,1708008277201,1708008285157,\Somewhat agree\,\Highly agree\,\3\,1708008282392,1708008284025,5191,6824,7956,buq,qns-item-noham,63,504636,0.0-1.0-0.62,65ce2151508301bba9318cbe,AWAITING REVIEW,2024-02-15T14:36:06.507000Z,2024-02-15T14:48:11.871000Z,,2024-02-15T14:48:12.633681Z,726.0,CVPIIDEI,96,36,Male,Other,United States,United States,United States,English,No,Full-Time,Not Applicable
65afcb27f5b821959d9ef2a0,<b>I can usually find something to agree with in most people?s beliefs.,Highly disagree,64/94,Somewhat agree,3,1708008285158,1708008288547,\Somewhat agree\,\Somewhat agree\,\3\,1708008288002,1708008288002,2844,2844,3389,buq,qns-item-noham,64,508026,0.0-1.0-0.63,65ce2151508301bba9318cbe,AWAITING REVIEW,2024-02-15T14:36:06.507000Z,2024-02-15T14:48:11.871000Z,,2024-02-15T14:48:12.633681Z,726.0,CVPIIDEI,96,36,Male,Other,United States,United States,United States,English,No,Full-Time,Not Applicable
65afcb27f5b821959d9ef2a0,<b>I only form my views of people once I get to know them very well.,Highly disagree,65/94,Somewhat disagree,2,1708008288549,1708008304491,\Somewhat disagree\,\Somewhat disagree\,\2\,1708008303335,1708008303335,14786,14786,15942,buq,qns-item-noham,65,523970,0.0-1.0-0.64,65ce2151508301bba9318cbe,AWAITING REVIEW,2024-02-15T14:36:06.507000Z,2024-02-15T14:48:11.871000Z,,2024-02-15T14:48:12.633681Z,726.0,CVPIIDEI,96,36,Male,Other,United States,United States,United States,English,No,Full-Time,Not Applicable
65afcb27f5b821959d9ef2a0,"<b>When people tell me important things about the world, I usually believe them.",Highly disagree,66/94,Somewhat agree,3,1708008304493,1708008309763,\Somewhat agree\,\Somewhat agree\,\3\,1708008309323,1708008309323,4830,4830,5270,buq,qns-item-noham,66,529242,0.0-1.0-0.65,65ce2151508301bba9318cbe,AWAITING REVIEW,2024-02-15T14:36:06.507000Z,2024-02-15T14:48:11.871000Z,,2024-02-15T14:48:12.633681Z,726.0,CVPIIDEI,96,36,Male,Other,United States,United States,United States,English,No,Full-Time,Not Applicable
65afcb27f5b821959d9ef2a0,"<b>If a friend does something that upsets me, it reminds me what an unpredictable place the world is.",Highly disagree,67/94,Somewhat agree,3,1708008309764,1708008319228,\Somewhat disagree\,\Somewhat agree\,\2\,1708008313927,1708008318535,4163,8771,9464,buq,qns-item-noham,67,538707,0.0-1.0-0.66,65ce2151508301bba9318cbe,AWAITING REVIEW,2024-02-15T14:36:06.507000Z,2024-02-15T14:48:11.871000Z,,2024-02-15T14:48:12.633681Z,726.0,CVPIIDEI,96,36,Male,Other,United States,United States,United States,English,No,Full-Time,Not Applicable
65afcb27f5b821959d9ef2a0,<b>People tend to believe whatever is good for their friends.,Highly disagree,68/94,Somewhat agree,3,1708008319229,1708008325144,\Somewhat agree\,\Somewhat agree\,\3\,1708008323173,1708008323173,3944,3944,5915,buq,qns-item-noham,68,544623,0.0-1.0-0.67,65ce2151508301bba9318cbe,AWAITING REVIEW,2024-02-15T14:36:06.507000Z,2024-02-15T14:48:11.871000Z,,2024-02-15T14:48:12.633681Z,726.0,CVPIIDEI,96,36,Male,Other,United States,United States,United States,English,No,Full-Time,Not Applicable
65afcb27f5b821959d9ef2a0,<b>I used to be more certain my beliefs were true.,Highly disagree,69/94,Somewhat agree,3,1708008325145,1708008329019,\Somewhat agree\,\Somewhat agree\,\3\,1708008328491,1708008328491,3346,3346,3874,buq,qns-item-noham,69,548498,0.0-1.0-0.68,65ce2151508301bba9318cbe,AWAITING REVIEW,2024-02-15T14:36:06.507000Z,2024-02-15T14:48:11.871000Z,,2024-02-15T14:48:12.633681Z,726.0,CVPIIDEI,96,36,Male,Other,United States,United States,United States,English,No,Full-Time,Not Applicable
65afcb27f5b821959d9ef2a0,<b>It?s often pretty easy to figure out whether something is true based on who said it.,Highly disagree,70/94,Somewhat agree,3,1708008329021,1708008334050,\Somewhat agree\,\Somewhat agree\,\3\,1708008333187,1708008333187,4166,4166,5029,buq,qns-item-noham,70,553529,0.0-1.0-0.69,65ce2151508301bba9318cbe,AWAITING REVIEW,2024-02-15T14:36:06.507000Z,2024-02-15T14:48:11.871000Z,,2024-02-15T14:48:12.633681Z,726.0,CVPIIDEI,96,36,Male,Other,United States,United States,United States,English,No,Full-Time,Not Applicable
65afcb27f5b821959d9ef2a0,<b>I transform into a hummingbird every day.,Highly disagree,71/94,Highly disagree,1,1708008334051,1708008342499,\Highly disagree\,\Highly disagree\,\1\,1708008338604,1708008338604,4553,4553,8448,buq,qns-item-noham,71,561978,0.0-1.0-0.70,65ce2151508301bba9318cbe,AWAITING REVIEW,2024-02-15T14:36:06.507000Z,2024-02-15T14:48:11.871000Z,,2024-02-15T14:48:12.633681Z,726.0,CVPIIDEI,96,36,Male,Other,United States,United States,United States,English,No,Full-Time,Not Applicable
65afcb27f5b821959d9ef2a0,<b>I think a lot about arguments against my views.,Highly disagree,72/94,Somewhat agree,3,1708008342501,1708008345409,\Somewhat agree\,\Somewhat agree\,\3\,1708008344989,1708008344989,2488,2488,2908,buq,qns-item-noham,72,564888,0.0-1.0-0.71,65ce2151508301bba9318cbe,AWAITING REVIEW,2024-02-15T14:36:06.507000Z,2024-02-15T14:48:11.871000Z,,2024-02-15T14:48:12.633681Z,726.0,CVPIIDEI,96,36,Male,Other,United States,United States,United States,English,No,Full-Time,Not Applicable
65afcb27f5b821959d9ef2a0,<b>Personal experience is usually more important than facts and figures.,Highly disagree,73/94,Somewhat disagree,2,1708008345410,1708008351332,\Somewhat agree\,\Somewhat disagree\,\3\,1708008349749,1708008350180,4339,4770,5922,buq,qns-item-noham,73,570811,0.0-1.0-0.72,65ce2151508301bba9318cbe,AWAITING REVIEW,2024-02-15T14:36:06.507000Z,2024-02-15T14:48:11.871000Z,,2024-02-15T14:48:12.633681Z,726.0,CVPIIDEI,96,36,Male,Other,United States,United States,United States,English,No,Full-Time,Not Applicable
65afcb27f5b821959d9ef2a0,<b>I?ve been tricked before about important matters.,Highly disagree,74/94,Somewhat agree,3,1708008351334,1708008355768,\Somewhat agree\,\Somewhat agree\,\3\,1708008354621,1708008354621,3287,3287,4434,buq,qns-item-noham,74,575247,0.0-1.0-0.73,65ce2151508301bba9318cbe,AWAITING REVIEW,2024-02-15T14:36:06.507000Z,2024-02-15T14:48:11.871000Z,,2024-02-15T14:48:12.633681Z,726.0,CVPIIDEI,96,36,Male,Other,United States,United States,United States,English,No,Full-Time,Not Applicable
65afcb27f5b821959d9ef2a0,<b>I would need to be totally wowed if I were to change my opinion of a restaurant I don?t like.,Highly disagree,75/94,Highly agree,4,1708008355770,1708008363841,\Somewhat agree\,\Highly agree\,\3\,1708008362059,1708008363279,6289,7509,8071,buq,qns-item-noham,75,583320,0.0-1.0-0.74,65ce2151508301bba9318cbe,AWAITING REVIEW,2024-02-15T14:36:06.507000Z,2024-02-15T14:48:11.871000Z,,2024-02-15T14:48:12.633681Z,726.0,CVPIIDEI,96,36,Male,Other,United States,United States,United States,English,No,Full-Time,Not Applicable
65afcb27f5b821959d9ef2a0,<b>I care a lot about politics.,Highly disagree,76/94,Somewhat agree,3,1708008363843,1708008367031,\Somewhat agree\,\Somewhat agree\,\3\,1708008366482,1708008366482,2639,2639,3188,buq,qns-item-noham,76,586510,0.0-1.0-0.75,65ce2151508301bba9318cbe,AWAITING REVIEW,2024-02-15T14:36:06.507000Z,2024-02-15T14:48:11.871000Z,,2024-02-15T14:48:12.633681Z,726.0,CVPIIDEI,96,36,Male,Other,United States,United States,United States,English,No,Full-Time,Not Applicable
65afcb27f5b821959d9ef2a0,<b>There are some topics I?ve been really wrong about.,Highly disagree,77/94,Somewhat agree,3,1708008367033,1708008371037,\Somewhat agree\,\Somewhat agree\,\3\,1708008370013,1708008370013,2980,2980,4004,buq,qns-item-noham,77,590517,0.0-1.0-0.76,65ce2151508301bba9318cbe,AWAITING REVIEW,2024-02-15T14:36:06.507000Z,2024-02-15T14:48:11.871000Z,,2024-02-15T14:48:12.633681Z,726.0,CVPIIDEI,96,36,Male,Other,United States,United States,United States,English,No,Full-Time,Not Applicable
65afcb27f5b821959d9ef2a0,<b>Most beliefs can be supported with at least some evidence.,Highly disagree,78/94,Somewhat agree,3,1708008371039,1708008374809,\Somewhat agree\,\Somewhat agree\,\3\,1708008374121,1708008374121,3082,3082,3770,buq,qns-item-noham,78,594288,0.0-1.0-0.77,65ce2151508301bba9318cbe,AWAITING REVIEW,2024-02-15T14:36:06.507000Z,2024-02-15T14:48:11.871000Z,,2024-02-15T14:48:12.633681Z,726.0,CVPIIDEI,96,36,Male,Other,United States,United States,United States,English,No,Full-Time,Not Applicable
65afcb27f5b821959d9ef2a0,<b>Other people make life out to be more complicated than it really is.,Highly disagree,79/94,Somewhat agree,3,1708008374811,1708008380456,\Somewhat agree\,\Somewhat agree\,\3\,1708008379503,1708008379503,4692,4692,5645,buq,qns-item-noham,79,599935,0.0-1.0-0.78,65ce2151508301bba9318cbe,AWAITING REVIEW,2024-02-15T14:36:06.507000Z,2024-02-15T14:48:11.871000Z,,2024-02-15T14:48:12.633681Z,726.0,CVPIIDEI,96,36,Male,Other,United States,United States,United States,English,No,Full-Time,Not Applicable
65afcb27f5b821959d9ef2a0,"<b>Policy details don?t matter much, just the big picture.",Highly disagree,80/94,Highly disagree,1,1708008380457,1708008391227,\Somewhat disagree\,\Highly disagree\,\2\,1708008389409,1708008390604,8952,10147,10770,buq,qns-item-noham,80,610706,0.0-1.0-0.79,65ce2151508301bba9318cbe,AWAITING REVIEW,2024-02-15T14:36:06.507000Z,2024-02-15T14:48:11.871000Z,,2024-02-15T14:48:12.633681Z,726.0,CVPIIDEI,96,36,Male,Other,United States,United States,United States,English,No,Full-Time,Not Applicable
65afcb27f5b821959d9ef2a0,<b>I know my friends so well they can hardly ever surprise me.,Highly disagree,81/94,Somewhat agree,3,1708008391228,1708008395168,\Somewhat agree\,\Somewhat agree\,\3\,1708008394758,1708008394758,3530,3530,3940,buq,qns-item-noham,81,614647,0.0-1.0-0.80,65ce2151508301bba9318cbe,AWAITING REVIEW,2024-02-15T14:36:06.507000Z,2024-02-15T14:48:11.871000Z,,2024-02-15T14:48:12.633681Z,726.0,CVPIIDEI,96,36,Male,Other,United States,United States,United States,English,No,Full-Time,Not Applicable
65afcb27f5b821959d9ef2a0,<b>I do not often change my views on people.,Highly disagree,82/94,Somewhat agree,3,1708008395170,1708008399114,\Somewhat agree\,\Somewhat agree\,\3\,1708008397933,1708008397933,2763,2763,3944,buq,qns-item-noham,82,618593,0.0-1.0-0.81,65ce2151508301bba9318cbe,AWAITING REVIEW,2024-02-15T14:36:06.507000Z,2024-02-15T14:48:11.871000Z,,2024-02-15T14:48:12.633681Z,726.0,CVPIIDEI,96,36,Male,Other,United States,United States,United States,English,No,Full-Time,Not Applicable
65afcb27f5b821959d9ef2a0,<b>I?m more certain about my beliefs than I used to be.,Highly disagree,83/94,Somewhat agree,3,1708008399116,1708008403921,\Somewhat agree\,\Somewhat agree\,\3\,1708008403288,1708008403288,4172,4172,4805,buq,qns-item-noham,83,623400,0.0-1.0-0.82,65ce2151508301bba9318cbe,AWAITING REVIEW,2024-02-15T14:36:06.507000Z,2024-02-15T14:48:11.871000Z,,2024-02-15T14:48:12.633681Z,726.0,CVPIIDEI,96,36,Male,Other,United States,United States,United States,English,No,Full-Time,Not Applicable
65afcb27f5b821959d9ef2a0,<b>People often tell falsehoods unintentionally.,Highly disagree,84/94,Somewhat disagree,2,1708008403923,1708008408341,\Somewhat disagree\,\Somewhat disagree\,\2\,1708008406419,1708008406419,2496,2496,4418,buq,qns-item-noham,84,627820,0.0-1.0-0.83,65ce2151508301bba9318cbe,AWAITING REVIEW,2024-02-15T14:36:06.507000Z,2024-02-15T14:48:11.871000Z,,2024-02-15T14:48:12.633681Z,726.0,CVPIIDEI,96,36,Male,Other,United States,United States,United States,English,No,Full-Time,Not Applicable
65afcb27f5b821959d9ef2a0,<b>Most people don?t know much about most things.,Highly disagree,85/94,Somewhat disagree,2,1708008408343,1708008412395,\Somewhat disagree\,\Somewhat disagree\,\2\,1708008411763,1708008411763,3420,3420,4052,buq,qns-item-noham,85,631874,0.0-1.0-0.84,65ce2151508301bba9318cbe,AWAITING REVIEW,2024-02-15T14:36:06.507000Z,2024-02-15T14:48:11.871000Z,,2024-02-15T14:48:12.633681Z,726.0,CVPIIDEI,96,36,Male,Other,United States,United States,United States,English,No,Full-Time,Not Applicable
65afcb27f5b821959d9ef2a0,"<b>If I find out something new about someone, I easily change my views about them.",Highly disagree,86/94,Somewhat agree,3,1708008412396,1708008417478,\Somewhat agree\,\Somewhat agree\,\3\,1708008416616,1708008416616,4220,4220,5082,buq,qns-item-noham,86,636957,0.0-1.0-0.85,65ce2151508301bba9318cbe,AWAITING REVIEW,2024-02-15T14:36:06.507000Z,2024-02-15T14:48:11.871000Z,,2024-02-15T14:48:12.633681Z,726.0,CVPIIDEI,96,36,Male,Other,United States,United States,United States,English,No,Full-Time,Not Applicable
65afcb27f5b821959d9ef2a0,<b>Having true beliefs is difficult.,Highly disagree,87/94,Somewhat disagree,2,1708008417480,1708008421626,\Somewhat disagree\,\Somewhat disagree\,\2\,1708008420218,1708008420218,2738,2738,4146,buq,qns-item-noham,87,641105,0.0-1.0-0.86,65ce2151508301bba9318cbe,AWAITING REVIEW,2024-02-15T14:36:06.507000Z,2024-02-15T14:48:11.871000Z,,2024-02-15T14:48:12.633681Z,726.0,CVPIIDEI,96,36,Male,Other,United States,United States,United States,English,No,Full-Time,Not Applicable
65afcb27f5b821959d9ef2a0,<b>I don?t try new foods since I know I won?t like them.,Highly disagree,88/94,Highly disagree,1,1708008421627,1708008426428,\Highly disagree\,\Highly disagree\,\1\,1708008425391,1708008425391,3764,3764,4801,buq,qns-item-noham,88,645907,0.0-1.0-0.87,65ce2151508301bba9318cbe,AWAITING REVIEW,2024-02-15T14:36:06.507000Z,2024-02-15T14:48:11.871000Z,,2024-02-15T14:48:12.633681Z,726.0,CVPIIDEI,96,36,Male,Other,United States,United States,United States,English,No,Full-Time,Not Applicable
65afcb27f5b821959d9ef2a0,<b>Other people trick each other a lot.,Highly disagree,89/94,Somewhat disagree,2,1708008426429,1708008429576,\Somewhat disagree\,\Somewhat disagree\,\2\,1708008428579,1708008428579,2150,2150,3147,buq,qns-item-noham,89,649055,0.0-1.0-0.88,65ce2151508301bba9318cbe,AWAITING REVIEW,2024-02-15T14:36:06.507000Z,2024-02-15T14:48:11.871000Z,,2024-02-15T14:48:12.633681Z,726.0,CVPIIDEI,96,36,Male,Other,United States,United States,United States,English,No,Full-Time,Not Applicable
65afcb27f5b821959d9ef2a0,<b>I would need to learn a lot about a person for my opinion of them to be swayed.,Highly disagree,90/94,Somewhat agree,3,1708008429578,1708008435422,\Somewhat agree\,\Somewhat agree\,\3\,1708008434718,1708008434718,5140,5140,5844,buq,qns-item-noham,90,654901,0.0-1.0-0.89,65ce2151508301bba9318cbe,AWAITING REVIEW,2024-02-15T14:36:06.507000Z,2024-02-15T14:48:11.871000Z,,2024-02-15T14:48:12.633681Z,726.0,CVPIIDEI,96,36,Male,Other,United States,United States,United States,English,No,Full-Time,Not Applicable
65afcb27f5b821959d9ef2a0,<b>People can?t usually trick me when it comes to topics I care about.,Highly disagree,91/94,Somewhat agree,3,1708008435423,1708008440054,\Somewhat agree\,\Somewhat agree\,\3\,1708008439252,1708008439252,3829,3829,4631,buq,qns-item-noham,91,659533,0.0-1.0-0.90,65ce2151508301bba9318cbe,AWAITING REVIEW,2024-02-15T14:36:06.507000Z,2024-02-15T14:48:11.871000Z,,2024-02-15T14:48:12.633681Z,726.0,CVPIIDEI,96,36,Male,Other,United States,United States,United States,English,No,Full-Time,Not Applicable
65afcb27f5b821959d9ef2a0,<b>I do not often change my views on food.,Highly disagree,92/94,Somewhat disagree,2,1708008440056,1708008444349,\Highly disagree\,\Somewhat disagree\,\1\,1708008442784,1708008443813,2728,3757,4293,buq,qns-item-noham,92,663828,0.0-1.0-0.91,65ce2151508301bba9318cbe,AWAITING REVIEW,2024-02-15T14:36:06.507000Z,2024-02-15T14:48:11.871000Z,,2024-02-15T14:48:12.633681Z,726.0,CVPIIDEI,96,36,Male,Other,United States,United States,United States,English,No,Full-Time,Not Applicable
65afcb27f5b821959d9ef2a0,<b>Specific policies are often very important to me.,Highly disagree,93/94,Somewhat agree,3,1708008444350,1708008457304,\Somewhat agree\,\Somewhat agree\,\3\,1708008451464,1708008451464,7114,7114,12954,buq,qns-item-noham,93,676783,0.0-1.0-0.92,65ce2151508301bba9318cbe,AWAITING REVIEW,2024-02-15T14:36:06.507000Z,2024-02-15T14:48:11.871000Z,,2024-02-15T14:48:12.633681Z,726.0,CVPIIDEI,96,36,Male,Other,United States,United States,United States,English,No,Full-Time,Not Applicable
65afcb27f5b821959d9ef2a0,<b>Most people are woefully under-informed.,Highly disagree,94/94,Somewhat agree,3,1708008457306,1708008461943,\Somewhat agree\,\Somewhat agree\,\3\,1708008460357,1708008460357,3051,3051,4637,buq,qns-item-noham,94,681422,0.0-1.0-0.93,65ce2151508301bba9318cbe,AWAITING REVIEW,2024-02-15T14:36:06.507000Z,2024-02-15T14:48:11.871000Z,,2024-02-15T14:48:12.633681Z,726.0,CVPIIDEI,96,36,Male,Other,United States,United States,United States,English,No,Full-Time,Not Applicable
65afcb27f5b821959d9ef2a0,,,,,,,,,,,,,,,,,,,,,65ce2151508301bba9318cbe,AWAITING REVIEW,2024-02-15T14:36:06.507000Z,2024-02-15T14:48:11.871000Z,,2024-02-15T14:48:12.633681Z,726.0,CVPIIDEI,96,36,Male,Other,United States,United States,United States,English,No,Full-Time,Not Applicable
