PROLIFIC_PID,Question,qns_options,quest_num,answer,answer_num,question_load_timestamp,next_btn_timestamp,text_selected,final_text_selected,option_num_selected,preview_timestamps,final_text_selected_time_stamp,rt_first_option_click,rt_final_option_click,rt_submit_click,questionnaire,trial_type,trial_index,time_elapsed,internal_node_id,Demographic_Submission id,Demographic_Status,Demographic_Started at,Demographic_Completed at,Demographic_Reviewed at,Demographic_Archived at,Demographic_Time taken,Demographic_Completion code,Demographic_Total approvals,Demographic_Age,Demographic_Sex,Demographic_Ethnicity simplified,Demographic_Country of birth,Demographic_Country of residence,Demographic_Nationality,Demographic_Language,Demographic_Student status,Demographic_Employment status,Demographic_Custom study tncs accepted at
562be0d4733ea00011162e31,<b>Knowing what?s true and knowing what to do about it are usually basically the same.,Highly disagree,1/94,Somewhat disagree,2,1708008066894,1708008072250,\Somewhat disagree\,\Somewhat disagree\,\2\,1708008070766,1708008070766,3872,3872,5356,buq,qns-item-noham,1,10842,0.0-1.0-0.0,65ce21a0011e383dd0e3c049,AWAITING REVIEW,2024-02-15T14:37:25.131000Z,2024-02-15T14:50:16.807000Z,,2024-02-15T14:50:17.340440Z,772.0,CVPIIDEI,2958,29,Male,Asian,United States,United States,United States,English,Yes,Full-Time,Not Applicable
562be0d4733ea00011162e31,<b>Most people just believe whatever is convenient for them.,Highly disagree,2/94,Somewhat agree,3,1708008072255,1708008076775,\Somewhat agree\,\Somewhat agree\,\3\,1708008076158,1708008076158,3903,3903,4520,buq,qns-item-noham,2,15367,0.0-1.0-0.1,65ce21a0011e383dd0e3c049,AWAITING REVIEW,2024-02-15T14:37:25.131000Z,2024-02-15T14:50:16.807000Z,,2024-02-15T14:50:17.340440Z,772.0,CVPIIDEI,2958,29,Male,Asian,United States,United States,United States,English,Yes,Full-Time,Not Applicable
562be0d4733ea00011162e31,<b>Having some big beliefs helps me sort out minor ones.,Highly disagree,3/94,Somewhat disagree,2,1708008076777,1708008080190,\Somewhat disagree\,\Somewhat disagree\,\2\,1708008078861,1708008078861,2084,2084,3413,buq,qns-item-noham,3,18782,0.0-1.0-0.2,65ce21a0011e383dd0e3c049,AWAITING REVIEW,2024-02-15T14:37:25.131000Z,2024-02-15T14:50:16.807000Z,,2024-02-15T14:50:17.340440Z,772.0,CVPIIDEI,2958,29,Male,Asian,United States,United States,United States,English,Yes,Full-Time,Not Applicable
562be0d4733ea00011162e31,<b>Political questions are usually pretty complicated.,Highly disagree,4/94,Somewhat agree,3,1708008080191,1708008082994,\Somewhat agree\,\Somewhat agree\,\3\,1708008082732,1708008082732,2541,2541,2803,buq,qns-item-noham,4,21586,0.0-1.0-0.3,65ce21a0011e383dd0e3c049,AWAITING REVIEW,2024-02-15T14:37:25.131000Z,2024-02-15T14:50:16.807000Z,,2024-02-15T14:50:17.340440Z,772.0,CVPIIDEI,2958,29,Male,Asian,United States,United States,United States,English,Yes,Full-Time,Not Applicable
562be0d4733ea00011162e31,<b>Figuring out what?s important in life requires learning a lot of facts.,Highly disagree,5/94,Somewhat agree,3,1708008082995,1708008084246,\Somewhat agree\,\Somewhat agree\,\3\,1708008083981,1708008083981,986,986,1251,buq,qns-item-noham,5,22838,0.0-1.0-0.4,65ce21a0011e383dd0e3c049,AWAITING REVIEW,2024-02-15T14:37:25.131000Z,2024-02-15T14:50:16.807000Z,,2024-02-15T14:50:17.340440Z,772.0,CVPIIDEI,2958,29,Male,Asian,United States,United States,United States,English,Yes,Full-Time,Not Applicable
562be0d4733ea00011162e31,<b>It is difficult for me to remember the last time I was surprised by politics.,Highly disagree,6/94,Somewhat disagree,2,1708008084247,1708008087951,\Somewhat disagree\,\Somewhat disagree\,\2\,1708008087674,1708008087674,3427,3427,3704,buq,qns-item-noham,6,26543,0.0-1.0-0.5,65ce21a0011e383dd0e3c049,AWAITING REVIEW,2024-02-15T14:37:25.131000Z,2024-02-15T14:50:16.807000Z,,2024-02-15T14:50:17.340440Z,772.0,CVPIIDEI,2958,29,Male,Asian,United States,United States,United States,English,Yes,Full-Time,Not Applicable
562be0d4733ea00011162e31,<b>People?s false beliefs are understandable.,Highly disagree,7/94,Somewhat agree,3,1708008087953,1708008090315,\Somewhat agree\,\Somewhat agree\,\3\,1708008089745,1708008089745,1792,1792,2362,buq,qns-item-noham,7,28907,0.0-1.0-0.6,65ce21a0011e383dd0e3c049,AWAITING REVIEW,2024-02-15T14:37:25.131000Z,2024-02-15T14:50:16.807000Z,,2024-02-15T14:50:17.340440Z,772.0,CVPIIDEI,2958,29,Male,Asian,United States,United States,United States,English,Yes,Full-Time,Not Applicable
562be0d4733ea00011162e31,<b>I spend a lot of time trying to be informed about politics.,Highly disagree,8/94,Somewhat agree,3,1708008090317,1708008091979,\Somewhat agree\,\Somewhat agree\,\3\,1708008091737,1708008091737,1420,1420,1662,buq,qns-item-noham,8,30571,0.0-1.0-0.7,65ce21a0011e383dd0e3c049,AWAITING REVIEW,2024-02-15T14:37:25.131000Z,2024-02-15T14:50:16.807000Z,,2024-02-15T14:50:17.340440Z,772.0,CVPIIDEI,2958,29,Male,Asian,United States,United States,United States,English,Yes,Full-Time,Not Applicable
562be0d4733ea00011162e31,<b>I think a lot about whether my beliefs are right.,Highly disagree,9/94,Somewhat agree,3,1708008091981,1708008093792,\Somewhat agree\,\Somewhat agree\,\3\,1708008093382,1708008093382,1401,1401,1811,buq,qns-item-noham,9,32384,0.0-1.0-0.8,65ce21a0011e383dd0e3c049,AWAITING REVIEW,2024-02-15T14:37:25.131000Z,2024-02-15T14:50:16.807000Z,,2024-02-15T14:50:17.340440Z,772.0,CVPIIDEI,2958,29,Male,Asian,United States,United States,United States,English,Yes,Full-Time,Not Applicable
562be0d4733ea00011162e31,<b>Statistics can be pretty misleading sometimes.,Highly disagree,10/94,Highly agree,4,1708008093793,1708008095267,\Highly agree\,\Highly agree\,\4\,1708008094865,1708008094865,1072,1072,1474,buq,qns-item-noham,10,33859,0.0-1.0-0.9,65ce21a0011e383dd0e3c049,AWAITING REVIEW,2024-02-15T14:37:25.131000Z,2024-02-15T14:50:16.807000Z,,2024-02-15T14:50:17.340440Z,772.0,CVPIIDEI,2958,29,Male,Asian,United States,United States,United States,English,Yes,Full-Time,Not Applicable
562be0d4733ea00011162e31,<b>I have lots of beliefs that I?m only sort of sure about.,Highly disagree,11/94,Somewhat agree,3,1708008095269,1708008098039,\Somewhat agree\,\Somewhat agree\,\3\,1708008097640,1708008097640,2371,2371,2770,buq,qns-item-noham,11,36631,0.0-1.0-0.10,65ce21a0011e383dd0e3c049,AWAITING REVIEW,2024-02-15T14:37:25.131000Z,2024-02-15T14:50:16.807000Z,,2024-02-15T14:50:17.340440Z,772.0,CVPIIDEI,2958,29,Male,Asian,United States,United States,United States,English,Yes,Full-Time,Not Applicable
562be0d4733ea00011162e31,"<b>If I go to my favorite restaurant and the food is surprisingly bad, it reminds me there are many disappointments in life.",Highly disagree,12/94,Highly agree,4,1708008098041,1708008102489,\Somewhat agree\,\Highly agree\,\3\,1708008100992,1708008101269,2951,3228,4448,buq,qns-item-noham,12,41081,0.0-1.0-0.11,65ce21a0011e383dd0e3c049,AWAITING REVIEW,2024-02-15T14:37:25.131000Z,2024-02-15T14:50:16.807000Z,,2024-02-15T14:50:17.340440Z,772.0,CVPIIDEI,2958,29,Male,Asian,United States,United States,United States,English,Yes,Full-Time,Not Applicable
562be0d4733ea00011162e31,"<b>If you are paying attention, please select ?Somewhat agree?",Highly disagree,13/94,Somewhat agree,3,1708008102491,1708008103879,\Somewhat agree\,\Somewhat agree\,\3\,1708008103640,1708008103640,1149,1149,1388,buq,qns-item-noham,13,42471,0.0-1.0-0.12,65ce21a0011e383dd0e3c049,AWAITING REVIEW,2024-02-15T14:37:25.131000Z,2024-02-15T14:50:16.807000Z,,2024-02-15T14:50:17.340440Z,772.0,CVPIIDEI,2958,29,Male,Asian,United States,United States,United States,English,Yes,Full-Time,Not Applicable
562be0d4733ea00011162e31,"<b>When I talk to others, I often worry I?ll convince them of something I didn?t mean to.",Highly disagree,14/94,Somewhat disagree,2,1708008103881,1708008107464,\Somewhat disagree\,\Somewhat disagree\,\2\,1708008106622,1708008106622,2741,2741,3583,buq,qns-item-noham,14,46056,0.0-1.0-0.13,65ce21a0011e383dd0e3c049,AWAITING REVIEW,2024-02-15T14:37:25.131000Z,2024-02-15T14:50:16.807000Z,,2024-02-15T14:50:17.340440Z,772.0,CVPIIDEI,2958,29,Male,Asian,United States,United States,United States,English,Yes,Full-Time,Not Applicable
562be0d4733ea00011162e31,<b>I would need to learn something utterly shocking about my party in order to change my political views.,Highly disagree,15/94,Somewhat agree,3,1708008107465,1708008111712,\Somewhat agree\,\Somewhat agree\,\3\,1708008109827,1708008109827,2362,2362,4247,buq,qns-item-noham,15,50304,0.0-1.0-0.14,65ce21a0011e383dd0e3c049,AWAITING REVIEW,2024-02-15T14:37:25.131000Z,2024-02-15T14:50:16.807000Z,,2024-02-15T14:50:17.340440Z,772.0,CVPIIDEI,2958,29,Male,Asian,United States,United States,United States,English,Yes,Full-Time,Not Applicable
562be0d4733ea00011162e31,"<b>When I have new experiences, I tend to think of them as unique.",Highly disagree,16/94,Highly agree,4,1708008111713,1708008116017,\Somewhat agree\,\Highly agree\,\3\,1708008115282,1708008115737,3569,4024,4304,buq,qns-item-noham,16,54609,0.0-1.0-0.15,65ce21a0011e383dd0e3c049,AWAITING REVIEW,2024-02-15T14:37:25.131000Z,2024-02-15T14:50:16.807000Z,,2024-02-15T14:50:17.340440Z,772.0,CVPIIDEI,2958,29,Male,Asian,United States,United States,United States,English,Yes,Full-Time,Not Applicable
562be0d4733ea00011162e31,<b>I change my mind about specific policies pretty frequently.,Highly disagree,17/94,Somewhat disagree,2,1708008116018,1708008118108,\Somewhat disagree\,\Somewhat disagree\,\2\,1708008117792,1708008117792,1774,1774,2090,buq,qns-item-noham,17,56700,0.0-1.0-0.16,65ce21a0011e383dd0e3c049,AWAITING REVIEW,2024-02-15T14:37:25.131000Z,2024-02-15T14:50:16.807000Z,,2024-02-15T14:50:17.340440Z,772.0,CVPIIDEI,2958,29,Male,Asian,United States,United States,United States,English,Yes,Full-Time,Not Applicable
562be0d4733ea00011162e31,"<b>If a politician in my political party supports something I disagree with, I give them the benefit of the doubt, as such issues often involve hidden complexities that aren?t obvious.   ",Highly disagree,18/94,Somewhat agree,3,1708008118109,1708008123470,\Somewhat agree\,\Somewhat agree\,\3\,1708008122126,1708008122126,4017,4017,5361,buq,qns-item-noham,18,62062,0.0-1.0-0.17,65ce21a0011e383dd0e3c049,AWAITING REVIEW,2024-02-15T14:37:25.131000Z,2024-02-15T14:50:16.807000Z,,2024-02-15T14:50:17.340440Z,772.0,CVPIIDEI,2958,29,Male,Asian,United States,United States,United States,English,Yes,Full-Time,Not Applicable
562be0d4733ea00011162e31,<b>People?s bad politics are usually motivated by hatefulness.,Highly disagree,19/94,Somewhat agree,3,1708008123472,1708008128382,\Somewhat agree\,\Somewhat agree\,\3\,1708008126420,1708008126420,2948,2948,4910,buq,qns-item-noham,19,66974,0.0-1.0-0.18,65ce21a0011e383dd0e3c049,AWAITING REVIEW,2024-02-15T14:37:25.131000Z,2024-02-15T14:50:16.807000Z,,2024-02-15T14:50:17.340440Z,772.0,CVPIIDEI,2958,29,Male,Asian,United States,United States,United States,English,Yes,Full-Time,Not Applicable
562be0d4733ea00011162e31,<b>I think a lot about how to reconcile my beliefs with one another.,Highly disagree,20/94,Somewhat agree,3,1708008128383,1708008132624,\Somewhat agree\,\Somewhat agree\,\3\,1708008132354,1708008132354,3971,3971,4241,buq,qns-item-noham,20,71216,0.0-1.0-0.19,65ce21a0011e383dd0e3c049,AWAITING REVIEW,2024-02-15T14:37:25.131000Z,2024-02-15T14:50:16.807000Z,,2024-02-15T14:50:17.340440Z,772.0,CVPIIDEI,2958,29,Male,Asian,United States,United States,United States,English,Yes,Full-Time,Not Applicable
562be0d4733ea00011162e31,<b>I might have false beliefs about important topics.,Highly disagree,21/94,Somewhat agree,3,1708008132626,1708008134456,\Somewhat agree\,\Somewhat agree\,\3\,1708008134184,1708008134184,1558,1558,1830,buq,qns-item-noham,21,73048,0.0-1.0-0.20,65ce21a0011e383dd0e3c049,AWAITING REVIEW,2024-02-15T14:37:25.131000Z,2024-02-15T14:50:16.807000Z,,2024-02-15T14:50:17.340440Z,772.0,CVPIIDEI,2958,29,Male,Asian,United States,United States,United States,English,Yes,Full-Time,Not Applicable
562be0d4733ea00011162e31,"<b>If a good friend of mine does something unexpected that upsets me, I feel like I don?t know them anymore.",Highly disagree,22/94,Somewhat agree,3,1708008134457,1708008138334,\Somewhat agree\,\Somewhat agree\,\3\,1708008137360,1708008137360,2903,2903,3877,buq,qns-item-noham,22,76926,0.0-1.0-0.21,65ce21a0011e383dd0e3c049,AWAITING REVIEW,2024-02-15T14:37:25.131000Z,2024-02-15T14:50:16.807000Z,,2024-02-15T14:50:17.340440Z,772.0,CVPIIDEI,2958,29,Male,Asian,United States,United States,United States,English,Yes,Full-Time,Not Applicable
562be0d4733ea00011162e31,<b>Other people?s beliefs are often incoherent.,Highly disagree,23/94,Somewhat disagree,2,1708008138335,1708008177437,\Somewhat disagree\,\Somewhat disagree\,\2\,1708008177172,1708008177172,38837,38837,39102,buq,qns-item-noham,23,116029,0.0-1.0-0.22,65ce21a0011e383dd0e3c049,AWAITING REVIEW,2024-02-15T14:37:25.131000Z,2024-02-15T14:50:16.807000Z,,2024-02-15T14:50:17.340440Z,772.0,CVPIIDEI,2958,29,Male,Asian,United States,United States,United States,English,Yes,Full-Time,Not Applicable
562be0d4733ea00011162e31,"<b>Every now and then, a new experience will unsettle beliefs I?ve had for a while.",Highly disagree,24/94,Somewhat agree,3,1708008177438,1708008179343,\Somewhat agree\,\Somewhat agree\,\3\,1708008178817,1708008178817,1379,1379,1905,buq,qns-item-noham,24,117935,0.0-1.0-0.23,65ce21a0011e383dd0e3c049,AWAITING REVIEW,2024-02-15T14:37:25.131000Z,2024-02-15T14:50:16.807000Z,,2024-02-15T14:50:17.340440Z,772.0,CVPIIDEI,2958,29,Male,Asian,United States,United States,United States,English,Yes,Full-Time,Not Applicable
562be0d4733ea00011162e31,<b>Some policies I agree with in principle are so bad I don?t support them. ,Highly disagree,25/94,Somewhat disagree,2,1708008179344,1708008183613,\Highly agree\,\Somewhat disagree\,\4\,1708008181335,1708008183081,1991,3737,4269,buq,qns-item-noham,25,122205,0.0-1.0-0.24,65ce21a0011e383dd0e3c049,AWAITING REVIEW,2024-02-15T14:37:25.131000Z,2024-02-15T14:50:16.807000Z,,2024-02-15T14:50:17.340440Z,772.0,CVPIIDEI,2958,29,Male,Asian,United States,United States,United States,English,Yes,Full-Time,Not Applicable
562be0d4733ea00011162e31,<b>I?m pretty sure I?ve accidentally spread false information.,Highly disagree,26/94,Highly agree,4,1708008183615,1708008186115,\Somewhat agree\,\Highly agree\,\3\,1708008185027,1708008185521,1412,1906,2500,buq,qns-item-noham,26,124707,0.0-1.0-0.25,65ce21a0011e383dd0e3c049,AWAITING REVIEW,2024-02-15T14:37:25.131000Z,2024-02-15T14:50:16.807000Z,,2024-02-15T14:50:17.340440Z,772.0,CVPIIDEI,2958,29,Male,Asian,United States,United States,United States,English,Yes,Full-Time,Not Applicable
562be0d4733ea00011162e31,"<b>If I go to my favorite restaurant and the food is unexpectedly bad, then they have changed owners.",Highly disagree,27/94,Somewhat disagree,2,1708008186116,1708008188541,\Somewhat disagree\,\Somewhat disagree\,\2\,1708008188287,1708008188287,2171,2171,2425,buq,qns-item-noham,27,127133,0.0-1.0-0.26,65ce21a0011e383dd0e3c049,AWAITING REVIEW,2024-02-15T14:37:25.131000Z,2024-02-15T14:50:16.807000Z,,2024-02-15T14:50:17.340440Z,772.0,CVPIIDEI,2958,29,Male,Asian,United States,United States,United States,English,Yes,Full-Time,Not Applicable
562be0d4733ea00011162e31,"<b>In politics, it?s important to trust your friends and family.",Highly disagree,28/94,Somewhat disagree,2,1708008188542,1708008191585,\Somewhat agree\,\Somewhat disagree\,\3\,1708008190379,1708008191246,1837,2704,3043,buq,qns-item-noham,28,130177,0.0-1.0-0.27,65ce21a0011e383dd0e3c049,AWAITING REVIEW,2024-02-15T14:37:25.131000Z,2024-02-15T14:50:16.807000Z,,2024-02-15T14:50:17.340440Z,772.0,CVPIIDEI,2958,29,Male,Asian,United States,United States,United States,English,Yes,Full-Time,Not Applicable
562be0d4733ea00011162e31,<b>It?s OK to have some conflicting beliefs.,Highly disagree,29/94,Highly agree,4,1708008191587,1708008193715,\Somewhat agree\,\Highly agree\,\3\,1708008192635,1708008193199,1048,1612,2128,buq,qns-item-noham,29,132307,0.0-1.0-0.28,65ce21a0011e383dd0e3c049,AWAITING REVIEW,2024-02-15T14:37:25.131000Z,2024-02-15T14:50:16.807000Z,,2024-02-15T14:50:17.340440Z,772.0,CVPIIDEI,2958,29,Male,Asian,United States,United States,United States,English,Yes,Full-Time,Not Applicable
562be0d4733ea00011162e31,<b>Listening to people I disagree with makes my opinions better.,Highly disagree,30/94,Somewhat agree,3,1708008193717,1708008197177,\Somewhat agree\,\Somewhat agree\,\3\,1708008195424,1708008196921,1707,3204,3460,buq,qns-item-noham,30,135769,0.0-1.0-0.29,65ce21a0011e383dd0e3c049,AWAITING REVIEW,2024-02-15T14:37:25.131000Z,2024-02-15T14:50:16.807000Z,,2024-02-15T14:50:17.340440Z,772.0,CVPIIDEI,2958,29,Male,Asian,United States,United States,United States,English,Yes,Full-Time,Not Applicable
562be0d4733ea00011162e31,<b>My moral compass sometimes makes it harder to determine what?s true.,Highly disagree,31/94,Somewhat agree,3,1708008197178,1708008199479,\Somewhat agree\,\Somewhat agree\,\3\,1708008199014,1708008199014,1836,1836,2301,buq,qns-item-noham,31,138071,0.0-1.0-0.30,65ce21a0011e383dd0e3c049,AWAITING REVIEW,2024-02-15T14:37:25.131000Z,2024-02-15T14:50:16.807000Z,,2024-02-15T14:50:17.340440Z,772.0,CVPIIDEI,2958,29,Male,Asian,United States,United States,United States,English,Yes,Full-Time,Not Applicable
562be0d4733ea00011162e31,<b>Evidence pointing in the wrong direction isn?t really evidence at all.,Highly disagree,32/94,Highly disagree,1,1708008199480,1708008220288,\Highly disagree\,\Highly disagree\,\1\,1708008220002,1708008220002,20522,20522,20808,buq,qns-item-noham,32,158880,0.0-1.0-0.31,65ce21a0011e383dd0e3c049,AWAITING REVIEW,2024-02-15T14:37:25.131000Z,2024-02-15T14:50:16.807000Z,,2024-02-15T14:50:17.340440Z,772.0,CVPIIDEI,2958,29,Male,Asian,United States,United States,United States,English,Yes,Full-Time,Not Applicable
562be0d4733ea00011162e31,"<b>If the political party I support messes up, it makes me think politics is rotten.",Highly disagree,33/94,Somewhat disagree,2,1708008220289,1708008222983,\Somewhat disagree\,\Somewhat disagree\,\2\,1708008222773,1708008222773,2484,2484,2694,buq,qns-item-noham,33,161575,0.0-1.0-0.32,65ce21a0011e383dd0e3c049,AWAITING REVIEW,2024-02-15T14:37:25.131000Z,2024-02-15T14:50:16.807000Z,,2024-02-15T14:50:17.340440Z,772.0,CVPIIDEI,2958,29,Male,Asian,United States,United States,United States,English,Yes,Full-Time,Not Applicable
562be0d4733ea00011162e31,<b>Lots of important topics can only really be understood by some groups of people.,Highly disagree,34/94,Somewhat disagree,2,1708008222984,1708008225864,\Somewhat disagree\,\Somewhat disagree\,\2\,1708008224835,1708008225578,1851,2594,2880,buq,qns-item-noham,34,164456,0.0-1.0-0.33,65ce21a0011e383dd0e3c049,AWAITING REVIEW,2024-02-15T14:37:25.131000Z,2024-02-15T14:50:16.807000Z,,2024-02-15T14:50:17.340440Z,772.0,CVPIIDEI,2958,29,Male,Asian,United States,United States,United States,English,Yes,Full-Time,Not Applicable
562be0d4733ea00011162e31,<b>Having conflicting beliefs means you haven?t thought about them enough.,Highly disagree,35/94,Somewhat disagree,2,1708008225865,1708008227971,\Somewhat disagree\,\Somewhat disagree\,\2\,1708008227416,1708008227416,1551,1551,2106,buq,qns-item-noham,35,166563,0.0-1.0-0.34,65ce21a0011e383dd0e3c049,AWAITING REVIEW,2024-02-15T14:37:25.131000Z,2024-02-15T14:50:16.807000Z,,2024-02-15T14:50:17.340440Z,772.0,CVPIIDEI,2958,29,Male,Asian,United States,United States,United States,English,Yes,Full-Time,Not Applicable
562be0d4733ea00011162e31,<b>I do not often change my political opinions.,Highly disagree,36/94,Somewhat agree,3,1708008227972,1708008230265,\Somewhat disagree\,\Somewhat agree\,\2\,1708008229185,1708008230026,1213,2054,2293,buq,qns-item-noham,36,168857,0.0-1.0-0.35,65ce21a0011e383dd0e3c049,AWAITING REVIEW,2024-02-15T14:37:25.131000Z,2024-02-15T14:50:16.807000Z,,2024-02-15T14:50:17.340440Z,772.0,CVPIIDEI,2958,29,Male,Asian,United States,United States,United States,English,Yes,Full-Time,Not Applicable
562be0d4733ea00011162e31,<b>It?s difficult to not have at least some conflicting beliefs.,Highly disagree,37/94,Highly agree,4,1708008230266,1708008232335,\Highly agree\,\Highly agree\,\4\,1708008232066,1708008232066,1800,1800,2069,buq,qns-item-noham,37,170927,0.0-1.0-0.36,65ce21a0011e383dd0e3c049,AWAITING REVIEW,2024-02-15T14:37:25.131000Z,2024-02-15T14:50:16.807000Z,,2024-02-15T14:50:17.340440Z,772.0,CVPIIDEI,2958,29,Male,Asian,United States,United States,United States,English,Yes,Full-Time,Not Applicable
562be0d4733ea00011162e31,<b>Wishful thinking causes a lot of problems.,Highly disagree,38/94,Somewhat disagree,2,1708008232336,1708008235410,\Somewhat disagree\,\Somewhat disagree\,\2\,1708008234783,1708008234783,2447,2447,3074,buq,qns-item-noham,38,174002,0.0-1.0-0.37,65ce21a0011e383dd0e3c049,AWAITING REVIEW,2024-02-15T14:37:25.131000Z,2024-02-15T14:50:16.807000Z,,2024-02-15T14:50:17.340440Z,772.0,CVPIIDEI,2958,29,Male,Asian,United States,United States,United States,English,Yes,Full-Time,Not Applicable
562be0d4733ea00011162e31,<b>I judge a food item only once I try it many times.,Highly disagree,39/94,Highly agree,4,1708008235411,1708008238003,\Highly agree\,\Highly agree\,\4\,1708008237485,1708008237485,2074,2074,2592,buq,qns-item-noham,39,176595,0.0-1.0-0.38,65ce21a0011e383dd0e3c049,AWAITING REVIEW,2024-02-15T14:37:25.131000Z,2024-02-15T14:50:16.807000Z,,2024-02-15T14:50:17.340440Z,772.0,CVPIIDEI,2958,29,Male,Asian,United States,United States,United States,English,Yes,Full-Time,Not Applicable
562be0d4733ea00011162e31,"<b>When a person holds conflicting beliefs, they should really try to figure out what?s wrong.",Highly disagree,40/94,Somewhat disagree,2,1708008238004,1708008244902,\Somewhat agree\,\Somewhat disagree\,\3\,1708008239316,1708008244399,1312,6395,6898,buq,qns-item-noham,40,183494,0.0-1.0-0.39,65ce21a0011e383dd0e3c049,AWAITING REVIEW,2024-02-15T14:37:25.131000Z,2024-02-15T14:50:16.807000Z,,2024-02-15T14:50:17.340440Z,772.0,CVPIIDEI,2958,29,Male,Asian,United States,United States,United States,English,Yes,Full-Time,Not Applicable
562be0d4733ea00011162e31,<b>Knowing what?s important in life is easy.,Highly disagree,41/94,Highly disagree,1,1708008244903,1708008247287,\Somewhat disagree\,\Highly disagree\,\2\,1708008246238,1708008246537,1335,1634,2384,buq,qns-item-noham,41,185879,0.0-1.0-0.40,65ce21a0011e383dd0e3c049,AWAITING REVIEW,2024-02-15T14:37:25.131000Z,2024-02-15T14:50:16.807000Z,,2024-02-15T14:50:17.340440Z,772.0,CVPIIDEI,2958,29,Male,Asian,United States,United States,United States,English,Yes,Full-Time,Not Applicable
562be0d4733ea00011162e31,<b>I swim across the Atlantic Ocean to get to work every day.,Highly disagree,42/94,Highly disagree,1,1708008247289,1708008248561,\Highly disagree\,\Highly disagree\,\1\,1708008248261,1708008248261,972,972,1272,buq,qns-item-noham,42,187153,0.0-1.0-0.41,65ce21a0011e383dd0e3c049,AWAITING REVIEW,2024-02-15T14:37:25.131000Z,2024-02-15T14:50:16.807000Z,,2024-02-15T14:50:17.340440Z,772.0,CVPIIDEI,2958,29,Male,Asian,United States,United States,United States,English,Yes,Full-Time,Not Applicable
562be0d4733ea00011162e31,"<b>Sometimes, you just have to ignore evidence that you know is wrong.",Highly disagree,43/94,Highly disagree,1,1708008248563,1708008250718,\Somewhat disagree\,\Highly disagree\,\2\,1708008250192,1708008250454,1629,1891,2155,buq,qns-item-noham,43,189310,0.0-1.0-0.42,65ce21a0011e383dd0e3c049,AWAITING REVIEW,2024-02-15T14:37:25.131000Z,2024-02-15T14:50:16.807000Z,,2024-02-15T14:50:17.340440Z,772.0,CVPIIDEI,2958,29,Male,Asian,United States,United States,United States,English,Yes,Full-Time,Not Applicable
562be0d4733ea00011162e31,<b>I have had some false beliefs.,Highly disagree,44/94,Somewhat agree,3,1708008250719,1708008252548,\Somewhat agree\,\Somewhat agree\,\3\,1708008252153,1708008252153,1434,1434,1829,buq,qns-item-noham,44,191140,0.0-1.0-0.43,65ce21a0011e383dd0e3c049,AWAITING REVIEW,2024-02-15T14:37:25.131000Z,2024-02-15T14:50:16.807000Z,,2024-02-15T14:50:17.340440Z,772.0,CVPIIDEI,2958,29,Male,Asian,United States,United States,United States,English,Yes,Full-Time,Not Applicable
562be0d4733ea00011162e31,"<b>If one friend does something that upsets me, I sometimes start to distrust people in general.",Highly disagree,45/94,Somewhat disagree,2,1708008252550,1708008254510,\Somewhat disagree\,\Somewhat disagree\,\2\,1708008254224,1708008254224,1674,1674,1960,buq,qns-item-noham,45,193102,0.0-1.0-0.44,65ce21a0011e383dd0e3c049,AWAITING REVIEW,2024-02-15T14:37:25.131000Z,2024-02-15T14:50:16.807000Z,,2024-02-15T14:50:17.340440Z,772.0,CVPIIDEI,2958,29,Male,Asian,United States,United States,United States,English,Yes,Full-Time,Not Applicable
562be0d4733ea00011162e31,<b>The facts about most important matters are easy to find.,Highly disagree,46/94,Somewhat disagree,2,1708008254511,1708008256796,\Highly disagree\,\Somewhat disagree\,\1\,1708008256154,1708008256571,1643,2060,2285,buq,qns-item-noham,46,195388,0.0-1.0-0.45,65ce21a0011e383dd0e3c049,AWAITING REVIEW,2024-02-15T14:37:25.131000Z,2024-02-15T14:50:16.807000Z,,2024-02-15T14:50:17.340440Z,772.0,CVPIIDEI,2958,29,Male,Asian,United States,United States,United States,English,Yes,Full-Time,Not Applicable
562be0d4733ea00011162e31,<b>It?s better to know what?s true than to know what?s moral.,Highly disagree,47/94,Somewhat disagree,2,1708008256797,1708008260719,\Somewhat disagree\,\Somewhat disagree\,\2\,1708008260465,1708008260465,3668,3668,3922,buq,qns-item-noham,47,199311,0.0-1.0-0.46,65ce21a0011e383dd0e3c049,AWAITING REVIEW,2024-02-15T14:37:25.131000Z,2024-02-15T14:50:16.807000Z,,2024-02-15T14:50:17.340440Z,772.0,CVPIIDEI,2958,29,Male,Asian,United States,United States,United States,English,Yes,Full-Time,Not Applicable
562be0d4733ea00011162e31,<b>I used to think the world was less complicated than I do now.,Highly disagree,48/94,Highly agree,4,1708008260721,1708008264395,\Highly agree\,\Highly agree\,\4\,1708008264095,1708008264095,3374,3374,3674,buq,qns-item-noham,48,202987,0.0-1.0-0.47,65ce21a0011e383dd0e3c049,AWAITING REVIEW,2024-02-15T14:37:25.131000Z,2024-02-15T14:50:16.807000Z,,2024-02-15T14:50:17.340440Z,772.0,CVPIIDEI,2958,29,Male,Asian,United States,United States,United States,English,Yes,Full-Time,Not Applicable
562be0d4733ea00011162e31,<b>People are usually completely right or completely wrong.,Highly disagree,49/94,Highly disagree,1,1708008264397,1708008279187,\Highly disagree\,\Highly disagree\,\1\,1708008278613,1708008278613,14216,14216,14790,buq,qns-item-noham,49,217779,0.0-1.0-0.48,65ce21a0011e383dd0e3c049,AWAITING REVIEW,2024-02-15T14:37:25.131000Z,2024-02-15T14:50:16.807000Z,,2024-02-15T14:50:17.340440Z,772.0,CVPIIDEI,2958,29,Male,Asian,United States,United States,United States,English,Yes,Full-Time,Not Applicable
562be0d4733ea00011162e31,<b>I spend a lot of time considering alternatives to my beliefs.,Highly disagree,50/94,Somewhat disagree,2,1708008279188,1708008281857,\Somewhat agree\,\Somewhat disagree\,\3\,1708008280584,1708008281633,1396,2445,2669,buq,qns-item-noham,50,220449,0.0-1.0-0.49,65ce21a0011e383dd0e3c049,AWAITING REVIEW,2024-02-15T14:37:25.131000Z,2024-02-15T14:50:16.807000Z,,2024-02-15T14:50:17.340440Z,772.0,CVPIIDEI,2958,29,Male,Asian,United States,United States,United States,English,Yes,Full-Time,Not Applicable
562be0d4733ea00011162e31,"<b>Political enemies need to be defeated, not convinced.",Highly disagree,51/94,Highly disagree,1,1708008281859,1708008284175,\Highly disagree\,\Highly disagree\,\1\,1708008283859,1708008283859,2000,2000,2316,buq,qns-item-noham,51,222767,0.0-1.0-0.50,65ce21a0011e383dd0e3c049,AWAITING REVIEW,2024-02-15T14:37:25.131000Z,2024-02-15T14:50:16.807000Z,,2024-02-15T14:50:17.340440Z,772.0,CVPIIDEI,2958,29,Male,Asian,United States,United States,United States,English,Yes,Full-Time,Not Applicable
562be0d4733ea00011162e31,<b>I form my political views only after meticulously gathering historical and present information about their policies.,Highly disagree,52/94,Somewhat disagree,2,1708008284176,1708008290571,\Somewhat agree\,\Somewhat disagree\,\3\,1708008287241,1708008289784,3065,5608,6395,buq,qns-item-noham,52,229164,0.0-1.0-0.51,65ce21a0011e383dd0e3c049,AWAITING REVIEW,2024-02-15T14:37:25.131000Z,2024-02-15T14:50:16.807000Z,,2024-02-15T14:50:17.340440Z,772.0,CVPIIDEI,2958,29,Male,Asian,United States,United States,United States,English,Yes,Full-Time,Not Applicable
562be0d4733ea00011162e31,<b>It is difficult for me to remember the last time I was surprised by politics.,Highly disagree,53/94,Somewhat disagree,2,1708008290573,1708008292162,\Somewhat disagree\,\Somewhat disagree\,\2\,1708008291823,1708008291823,1250,1250,1589,buq,qns-item-noham,53,230754,0.0-1.0-0.52,65ce21a0011e383dd0e3c049,AWAITING REVIEW,2024-02-15T14:37:25.131000Z,2024-02-15T14:50:16.807000Z,,2024-02-15T14:50:17.340440Z,772.0,CVPIIDEI,2958,29,Male,Asian,United States,United States,United States,English,Yes,Full-Time,Not Applicable
562be0d4733ea00011162e31,"<b>When I find out I?m wrong, I think a lot about my related beliefs.",Highly disagree,54/94,Somewhat agree,3,1708008292163,1708008293885,\Somewhat agree\,\Somewhat agree\,\3\,1708008293608,1708008293608,1445,1445,1722,buq,qns-item-noham,54,232477,0.0-1.0-0.53,65ce21a0011e383dd0e3c049,AWAITING REVIEW,2024-02-15T14:37:25.131000Z,2024-02-15T14:50:16.807000Z,,2024-02-15T14:50:17.340440Z,772.0,CVPIIDEI,2958,29,Male,Asian,United States,United States,United States,English,Yes,Full-Time,Not Applicable
562be0d4733ea00011162e31,"<b>If the political party I support messes up, it makes me think you can?t trust anyone these days",Highly disagree,55/94,Somewhat disagree,2,1708008293886,1708008296002,\Somewhat disagree\,\Somewhat disagree\,\2\,1708008295646,1708008295646,1760,1760,2116,buq,qns-item-noham,55,234594,0.0-1.0-0.54,65ce21a0011e383dd0e3c049,AWAITING REVIEW,2024-02-15T14:37:25.131000Z,2024-02-15T14:50:16.807000Z,,2024-02-15T14:50:17.340440Z,772.0,CVPIIDEI,2958,29,Male,Asian,United States,United States,United States,English,Yes,Full-Time,Not Applicable
562be0d4733ea00011162e31,<b>People?s brains turn off when they talk about politics.,Highly disagree,56/94,Somewhat disagree,2,1708008296003,1708008298287,\Somewhat disagree\,\Somewhat disagree\,\2\,1708008297537,1708008297537,1534,1534,2284,buq,qns-item-noham,56,236879,0.0-1.0-0.55,65ce21a0011e383dd0e3c049,AWAITING REVIEW,2024-02-15T14:37:25.131000Z,2024-02-15T14:50:16.807000Z,,2024-02-15T14:50:17.340440Z,772.0,CVPIIDEI,2958,29,Male,Asian,United States,United States,United States,English,Yes,Full-Time,Not Applicable
562be0d4733ea00011162e31,<b>People who are wrong are usually just ignoring the obvious.,Highly disagree,57/94,Somewhat agree,3,1708008298288,1708008300720,\Somewhat agree\,\Somewhat agree\,\3\,1708008299585,1708008299585,1297,1297,2432,buq,qns-item-noham,57,239312,0.0-1.0-0.56,65ce21a0011e383dd0e3c049,AWAITING REVIEW,2024-02-15T14:37:25.131000Z,2024-02-15T14:50:16.807000Z,,2024-02-15T14:50:17.340440Z,772.0,CVPIIDEI,2958,29,Male,Asian,United States,United States,United States,English,Yes,Full-Time,Not Applicable
562be0d4733ea00011162e31,"<b>When forming my views on people, I rely more on what they are like now rather than rely on my past experience with them.",Highly disagree,58/94,Somewhat agree,3,1708008300721,1708008477528,\Somewhat agree\,\Somewhat agree\,\3\,1708008477274,1708008477274,176553,176553,176807,buq,qns-item-noham,58,416120,0.0-1.0-0.57,65ce21a0011e383dd0e3c049,AWAITING REVIEW,2024-02-15T14:37:25.131000Z,2024-02-15T14:50:16.807000Z,,2024-02-15T14:50:17.340440Z,772.0,CVPIIDEI,2958,29,Male,Asian,United States,United States,United States,English,Yes,Full-Time,Not Applicable
562be0d4733ea00011162e31,"<b>When people contradict my beliefs, I usually know about their evidence already.",Highly disagree,59/94,Somewhat disagree,2,1708008477530,1708008483692,\Somewhat disagree\,\Somewhat disagree\,\2\,1708008480904,1708008480904,3374,3374,6162,buq,qns-item-noham,59,422284,0.0-1.0-0.58,65ce21a0011e383dd0e3c049,AWAITING REVIEW,2024-02-15T14:37:25.131000Z,2024-02-15T14:50:16.807000Z,,2024-02-15T14:50:17.340440Z,772.0,CVPIIDEI,2958,29,Male,Asian,United States,United States,United States,English,Yes,Full-Time,Not Applicable
562be0d4733ea00011162e31,<b>Figuring out what?s true and what?s false mainly requires a strong moral compass.,Highly disagree,60/94,Somewhat agree,3,1708008483694,1708008486134,\Somewhat agree\,\Somewhat agree\,\3\,1708008485578,1708008485578,1884,1884,2440,buq,qns-item-noham,60,424726,0.0-1.0-0.59,65ce21a0011e383dd0e3c049,AWAITING REVIEW,2024-02-15T14:37:25.131000Z,2024-02-15T14:50:16.807000Z,,2024-02-15T14:50:17.340440Z,772.0,CVPIIDEI,2958,29,Male,Asian,United States,United States,United States,English,Yes,Full-Time,Not Applicable
562be0d4733ea00011162e31,"<b>Usually I?m wrong about simple things, not complicated ones.",Highly disagree,61/94,Somewhat disagree,2,1708008486135,1708008490590,\Somewhat disagree\,\Somewhat disagree\,\2\,1708008490026,1708008490026,3891,3891,4455,buq,qns-item-noham,61,429182,0.0-1.0-0.60,65ce21a0011e383dd0e3c049,AWAITING REVIEW,2024-02-15T14:37:25.131000Z,2024-02-15T14:50:16.807000Z,,2024-02-15T14:50:17.340440Z,772.0,CVPIIDEI,2958,29,Male,Asian,United States,United States,United States,English,Yes,Full-Time,Not Applicable
562be0d4733ea00011162e31,<b>Getting all the information I want about important things is hard.,Highly disagree,62/94,Highly agree,4,1708008490591,1708008492714,\Highly agree\,\Highly agree\,\4\,1708008492158,1708008492158,1567,1567,2123,buq,qns-item-noham,62,431306,0.0-1.0-0.61,65ce21a0011e383dd0e3c049,AWAITING REVIEW,2024-02-15T14:37:25.131000Z,2024-02-15T14:50:16.807000Z,,2024-02-15T14:50:17.340440Z,772.0,CVPIIDEI,2958,29,Male,Asian,United States,United States,United States,English,Yes,Full-Time,Not Applicable
562be0d4733ea00011162e31,<b>Most false beliefs spread because people try to deceive one another.,Highly disagree,63/94,Somewhat disagree,2,1708008492715,1708008497842,\Somewhat agree\,\Somewhat disagree\,\3\,1708008495240,1708008495648,2525,2933,5127,buq,qns-item-noham,63,436434,0.0-1.0-0.62,65ce21a0011e383dd0e3c049,AWAITING REVIEW,2024-02-15T14:37:25.131000Z,2024-02-15T14:50:16.807000Z,,2024-02-15T14:50:17.340440Z,772.0,CVPIIDEI,2958,29,Male,Asian,United States,United States,United States,English,Yes,Full-Time,Not Applicable
562be0d4733ea00011162e31,<b>I can usually find something to agree with in most people?s beliefs.,Highly disagree,64/94,Somewhat disagree,2,1708008497843,1708008502114,\Somewhat agree\,\Somewhat disagree\,\3\,1708008501209,1708008501835,3366,3992,4271,buq,qns-item-noham,64,440706,0.0-1.0-0.63,65ce21a0011e383dd0e3c049,AWAITING REVIEW,2024-02-15T14:37:25.131000Z,2024-02-15T14:50:16.807000Z,,2024-02-15T14:50:17.340440Z,772.0,CVPIIDEI,2958,29,Male,Asian,United States,United States,United States,English,Yes,Full-Time,Not Applicable
562be0d4733ea00011162e31,<b>I only form my views of people once I get to know them very well.,Highly disagree,65/94,Somewhat agree,3,1708008502115,1708008503474,\Somewhat agree\,\Somewhat agree\,\3\,1708008503188,1708008503188,1073,1073,1359,buq,qns-item-noham,65,442066,0.0-1.0-0.64,65ce21a0011e383dd0e3c049,AWAITING REVIEW,2024-02-15T14:37:25.131000Z,2024-02-15T14:50:16.807000Z,,2024-02-15T14:50:17.340440Z,772.0,CVPIIDEI,2958,29,Male,Asian,United States,United States,United States,English,Yes,Full-Time,Not Applicable
562be0d4733ea00011162e31,"<b>When people tell me important things about the world, I usually believe them.",Highly disagree,66/94,Somewhat disagree,2,1708008503476,1708008505396,\Somewhat disagree\,\Somewhat disagree\,\2\,1708008505142,1708008505142,1666,1666,1920,buq,qns-item-noham,66,443988,0.0-1.0-0.65,65ce21a0011e383dd0e3c049,AWAITING REVIEW,2024-02-15T14:37:25.131000Z,2024-02-15T14:50:16.807000Z,,2024-02-15T14:50:17.340440Z,772.0,CVPIIDEI,2958,29,Male,Asian,United States,United States,United States,English,Yes,Full-Time,Not Applicable
562be0d4733ea00011162e31,"<b>If a friend does something that upsets me, it reminds me what an unpredictable place the world is.",Highly disagree,67/94,Somewhat agree,3,1708008505397,1708008507598,\Somewhat agree\,\Somewhat agree\,\3\,1708008507258,1708008507258,1861,1861,2201,buq,qns-item-noham,67,446190,0.0-1.0-0.66,65ce21a0011e383dd0e3c049,AWAITING REVIEW,2024-02-15T14:37:25.131000Z,2024-02-15T14:50:16.807000Z,,2024-02-15T14:50:17.340440Z,772.0,CVPIIDEI,2958,29,Male,Asian,United States,United States,United States,English,Yes,Full-Time,Not Applicable
562be0d4733ea00011162e31,<b>People tend to believe whatever is good for their friends.,Highly disagree,68/94,Somewhat agree,3,1708008507599,1708008510462,\Somewhat agree\,\Somewhat agree\,\3\,1708008509336,1708008509336,1737,1737,2863,buq,qns-item-noham,68,449054,0.0-1.0-0.67,65ce21a0011e383dd0e3c049,AWAITING REVIEW,2024-02-15T14:37:25.131000Z,2024-02-15T14:50:16.807000Z,,2024-02-15T14:50:17.340440Z,772.0,CVPIIDEI,2958,29,Male,Asian,United States,United States,United States,English,Yes,Full-Time,Not Applicable
562be0d4733ea00011162e31,<b>I used to be more certain my beliefs were true.,Highly disagree,69/94,Highly agree,4,1708008510463,1708008513552,\Somewhat agree\,\Highly agree\,\3\,1708008512378,1708008513142,1915,2679,3089,buq,qns-item-noham,69,452144,0.0-1.0-0.68,65ce21a0011e383dd0e3c049,AWAITING REVIEW,2024-02-15T14:37:25.131000Z,2024-02-15T14:50:16.807000Z,,2024-02-15T14:50:17.340440Z,772.0,CVPIIDEI,2958,29,Male,Asian,United States,United States,United States,English,Yes,Full-Time,Not Applicable
562be0d4733ea00011162e31,<b>It?s often pretty easy to figure out whether something is true based on who said it.,Highly disagree,70/94,Somewhat disagree,2,1708008513553,1708008517924,\Somewhat disagree\,\Somewhat disagree\,\2\,1708008517576,1708008517576,4023,4023,4371,buq,qns-item-noham,70,456516,0.0-1.0-0.69,65ce21a0011e383dd0e3c049,AWAITING REVIEW,2024-02-15T14:37:25.131000Z,2024-02-15T14:50:16.807000Z,,2024-02-15T14:50:17.340440Z,772.0,CVPIIDEI,2958,29,Male,Asian,United States,United States,United States,English,Yes,Full-Time,Not Applicable
562be0d4733ea00011162e31,<b>I transform into a hummingbird every day.,Highly disagree,71/94,Highly disagree,1,1708008517925,1708008519870,\Highly disagree\,\Highly disagree\,\1\,1708008519244,1708008519244,1319,1319,1945,buq,qns-item-noham,71,458462,0.0-1.0-0.70,65ce21a0011e383dd0e3c049,AWAITING REVIEW,2024-02-15T14:37:25.131000Z,2024-02-15T14:50:16.807000Z,,2024-02-15T14:50:17.340440Z,772.0,CVPIIDEI,2958,29,Male,Asian,United States,United States,United States,English,Yes,Full-Time,Not Applicable
562be0d4733ea00011162e31,<b>I think a lot about arguments against my views.,Highly disagree,72/94,Somewhat agree,3,1708008519871,1708008521244,\Somewhat agree\,\Somewhat agree\,\3\,1708008520958,1708008520958,1087,1087,1373,buq,qns-item-noham,72,459836,0.0-1.0-0.71,65ce21a0011e383dd0e3c049,AWAITING REVIEW,2024-02-15T14:37:25.131000Z,2024-02-15T14:50:16.807000Z,,2024-02-15T14:50:17.340440Z,772.0,CVPIIDEI,2958,29,Male,Asian,United States,United States,United States,English,Yes,Full-Time,Not Applicable
562be0d4733ea00011162e31,<b>Personal experience is usually more important than facts and figures.,Highly disagree,73/94,Somewhat disagree,2,1708008521245,1708008523754,\Somewhat disagree\,\Somewhat disagree\,\2\,1708008523484,1708008523484,2239,2239,2509,buq,qns-item-noham,73,462346,0.0-1.0-0.72,65ce21a0011e383dd0e3c049,AWAITING REVIEW,2024-02-15T14:37:25.131000Z,2024-02-15T14:50:16.807000Z,,2024-02-15T14:50:17.340440Z,772.0,CVPIIDEI,2958,29,Male,Asian,United States,United States,United States,English,Yes,Full-Time,Not Applicable
562be0d4733ea00011162e31,<b>I?ve been tricked before about important matters.,Highly disagree,74/94,Somewhat agree,3,1708008523755,1708008526434,\Somewhat agree\,\Somewhat agree\,\3\,1708008525838,1708008525838,2083,2083,2679,buq,qns-item-noham,74,465026,0.0-1.0-0.73,65ce21a0011e383dd0e3c049,AWAITING REVIEW,2024-02-15T14:37:25.131000Z,2024-02-15T14:50:16.807000Z,,2024-02-15T14:50:17.340440Z,772.0,CVPIIDEI,2958,29,Male,Asian,United States,United States,United States,English,Yes,Full-Time,Not Applicable
562be0d4733ea00011162e31,<b>I would need to be totally wowed if I were to change my opinion of a restaurant I don?t like.,Highly disagree,75/94,Somewhat agree,3,1708008526435,1708008531036,\Somewhat agree\,\Somewhat agree\,\3\,1708008530688,1708008530688,4253,4253,4601,buq,qns-item-noham,75,469628,0.0-1.0-0.74,65ce21a0011e383dd0e3c049,AWAITING REVIEW,2024-02-15T14:37:25.131000Z,2024-02-15T14:50:16.807000Z,,2024-02-15T14:50:17.340440Z,772.0,CVPIIDEI,2958,29,Male,Asian,United States,United States,United States,English,Yes,Full-Time,Not Applicable
562be0d4733ea00011162e31,<b>I care a lot about politics.,Highly disagree,76/94,Somewhat agree,3,1708008531037,1708008533430,\Somewhat agree\,\Somewhat agree\,\3\,1708008533190,1708008533190,2153,2153,2393,buq,qns-item-noham,76,472022,0.0-1.0-0.75,65ce21a0011e383dd0e3c049,AWAITING REVIEW,2024-02-15T14:37:25.131000Z,2024-02-15T14:50:16.807000Z,,2024-02-15T14:50:17.340440Z,772.0,CVPIIDEI,2958,29,Male,Asian,United States,United States,United States,English,Yes,Full-Time,Not Applicable
562be0d4733ea00011162e31,<b>There are some topics I?ve been really wrong about.,Highly disagree,77/94,Highly agree,4,1708008533431,1708008536828,\Highly agree\,\Highly agree\,\4\,1708008534943,1708008535716,1512,2285,3397,buq,qns-item-noham,77,475420,0.0-1.0-0.76,65ce21a0011e383dd0e3c049,AWAITING REVIEW,2024-02-15T14:37:25.131000Z,2024-02-15T14:50:16.807000Z,,2024-02-15T14:50:17.340440Z,772.0,CVPIIDEI,2958,29,Male,Asian,United States,United States,United States,English,Yes,Full-Time,Not Applicable
562be0d4733ea00011162e31,<b>Most beliefs can be supported with at least some evidence.,Highly disagree,78/94,Somewhat agree,3,1708008536829,1708008542149,\Somewhat agree\,\Somewhat agree\,\3\,1708008537908,1708008541784,1079,4955,5320,buq,qns-item-noham,78,480741,0.0-1.0-0.77,65ce21a0011e383dd0e3c049,AWAITING REVIEW,2024-02-15T14:37:25.131000Z,2024-02-15T14:50:16.807000Z,,2024-02-15T14:50:17.340440Z,772.0,CVPIIDEI,2958,29,Male,Asian,United States,United States,United States,English,Yes,Full-Time,Not Applicable
562be0d4733ea00011162e31,<b>Other people make life out to be more complicated than it really is.,Highly disagree,79/94,Highly disagree,1,1708008542150,1708008544302,\Highly disagree\,\Highly disagree\,\1\,1708008543986,1708008543986,1836,1836,2152,buq,qns-item-noham,79,482894,0.0-1.0-0.78,65ce21a0011e383dd0e3c049,AWAITING REVIEW,2024-02-15T14:37:25.131000Z,2024-02-15T14:50:16.807000Z,,2024-02-15T14:50:17.340440Z,772.0,CVPIIDEI,2958,29,Male,Asian,United States,United States,United States,English,Yes,Full-Time,Not Applicable
562be0d4733ea00011162e31,"<b>Policy details don?t matter much, just the big picture.",Highly disagree,80/94,Somewhat disagree,2,1708008544303,1708008565906,\Highly disagree\,\Somewhat disagree\,\1\,1708008561210,1708008565288,16907,20985,21603,buq,qns-item-noham,80,504498,0.0-1.0-0.79,65ce21a0011e383dd0e3c049,AWAITING REVIEW,2024-02-15T14:37:25.131000Z,2024-02-15T14:50:16.807000Z,,2024-02-15T14:50:17.340440Z,772.0,CVPIIDEI,2958,29,Male,Asian,United States,United States,United States,English,Yes,Full-Time,Not Applicable
562be0d4733ea00011162e31,<b>I know my friends so well they can hardly ever surprise me.,Highly disagree,81/94,Somewhat disagree,2,1708008565907,1708008567512,\Somewhat disagree\,\Somewhat disagree\,\2\,1708008567296,1708008567296,1389,1389,1605,buq,qns-item-noham,81,506104,0.0-1.0-0.80,65ce21a0011e383dd0e3c049,AWAITING REVIEW,2024-02-15T14:37:25.131000Z,2024-02-15T14:50:16.807000Z,,2024-02-15T14:50:17.340440Z,772.0,CVPIIDEI,2958,29,Male,Asian,United States,United States,United States,English,Yes,Full-Time,Not Applicable
562be0d4733ea00011162e31,<b>I do not often change my views on people.,Highly disagree,82/94,Somewhat disagree,2,1708008567514,1708008569852,\Highly disagree\,\Somewhat disagree\,\1\,1708008568694,1708008569387,1180,1873,2338,buq,qns-item-noham,82,508444,0.0-1.0-0.81,65ce21a0011e383dd0e3c049,AWAITING REVIEW,2024-02-15T14:37:25.131000Z,2024-02-15T14:50:16.807000Z,,2024-02-15T14:50:17.340440Z,772.0,CVPIIDEI,2958,29,Male,Asian,United States,United States,United States,English,Yes,Full-Time,Not Applicable
562be0d4733ea00011162e31,<b>I?m more certain about my beliefs than I used to be.,Highly disagree,83/94,Somewhat disagree,2,1708008569853,1708008573343,\Somewhat disagree\,\Somewhat disagree\,\2\,1708008572794,1708008572794,2941,2941,3490,buq,qns-item-noham,83,511935,0.0-1.0-0.82,65ce21a0011e383dd0e3c049,AWAITING REVIEW,2024-02-15T14:37:25.131000Z,2024-02-15T14:50:16.807000Z,,2024-02-15T14:50:17.340440Z,772.0,CVPIIDEI,2958,29,Male,Asian,United States,United States,United States,English,Yes,Full-Time,Not Applicable
562be0d4733ea00011162e31,<b>People often tell falsehoods unintentionally.,Highly disagree,84/94,Somewhat agree,3,1708008573345,1708008574996,\Somewhat agree\,\Somewhat agree\,\3\,1708008574795,1708008574795,1450,1450,1651,buq,qns-item-noham,84,513588,0.0-1.0-0.83,65ce21a0011e383dd0e3c049,AWAITING REVIEW,2024-02-15T14:37:25.131000Z,2024-02-15T14:50:16.807000Z,,2024-02-15T14:50:17.340440Z,772.0,CVPIIDEI,2958,29,Male,Asian,United States,United States,United States,English,Yes,Full-Time,Not Applicable
562be0d4733ea00011162e31,<b>Most people don?t know much about most things.,Highly disagree,85/94,Somewhat disagree,2,1708008574997,1708008577303,\Somewhat disagree\,\Somewhat disagree\,\2\,1708008576246,1708008576246,1249,1249,2306,buq,qns-item-noham,85,515895,0.0-1.0-0.84,65ce21a0011e383dd0e3c049,AWAITING REVIEW,2024-02-15T14:37:25.131000Z,2024-02-15T14:50:16.807000Z,,2024-02-15T14:50:17.340440Z,772.0,CVPIIDEI,2958,29,Male,Asian,United States,United States,United States,English,Yes,Full-Time,Not Applicable
562be0d4733ea00011162e31,"<b>If I find out something new about someone, I easily change my views about them.",Highly disagree,86/94,Somewhat disagree,2,1708008577305,1708008581816,\Somewhat disagree\,\Somewhat disagree\,\2\,1708008578440,1708008578440,1135,1135,4511,buq,qns-item-noham,86,520408,0.0-1.0-0.85,65ce21a0011e383dd0e3c049,AWAITING REVIEW,2024-02-15T14:37:25.131000Z,2024-02-15T14:50:16.807000Z,,2024-02-15T14:50:17.340440Z,772.0,CVPIIDEI,2958,29,Male,Asian,United States,United States,United States,English,Yes,Full-Time,Not Applicable
562be0d4733ea00011162e31,<b>Having true beliefs is difficult.,Highly disagree,87/94,Somewhat disagree,2,1708008581817,1708008583321,\Somewhat disagree\,\Somewhat disagree\,\2\,1708008583082,1708008583082,1265,1265,1504,buq,qns-item-noham,87,521914,0.0-1.0-0.86,65ce21a0011e383dd0e3c049,AWAITING REVIEW,2024-02-15T14:37:25.131000Z,2024-02-15T14:50:16.807000Z,,2024-02-15T14:50:17.340440Z,772.0,CVPIIDEI,2958,29,Male,Asian,United States,United States,United States,English,Yes,Full-Time,Not Applicable
562be0d4733ea00011162e31,<b>I don?t try new foods since I know I won?t like them.,Highly disagree,88/94,Highly disagree,1,1708008583323,1708008584742,\Highly disagree\,\Highly disagree\,\1\,1708008584502,1708008584502,1179,1179,1419,buq,qns-item-noham,88,523334,0.0-1.0-0.87,65ce21a0011e383dd0e3c049,AWAITING REVIEW,2024-02-15T14:37:25.131000Z,2024-02-15T14:50:16.807000Z,,2024-02-15T14:50:17.340440Z,772.0,CVPIIDEI,2958,29,Male,Asian,United States,United States,United States,English,Yes,Full-Time,Not Applicable
562be0d4733ea00011162e31,<b>Other people trick each other a lot.,Highly disagree,89/94,Somewhat agree,3,1708008584743,1708008586155,\Somewhat agree\,\Somewhat agree\,\3\,1708008585784,1708008585784,1041,1041,1412,buq,qns-item-noham,89,524747,0.0-1.0-0.88,65ce21a0011e383dd0e3c049,AWAITING REVIEW,2024-02-15T14:37:25.131000Z,2024-02-15T14:50:16.807000Z,,2024-02-15T14:50:17.340440Z,772.0,CVPIIDEI,2958,29,Male,Asian,United States,United States,United States,English,Yes,Full-Time,Not Applicable
562be0d4733ea00011162e31,<b>I would need to learn a lot about a person for my opinion of them to be swayed.,Highly disagree,90/94,Somewhat agree,3,1708008586157,1708008589977,\Somewhat agree\,\Somewhat agree\,\3\,1708008587986,1708008589684,1829,3527,3820,buq,qns-item-noham,90,528570,0.0-1.0-0.89,65ce21a0011e383dd0e3c049,AWAITING REVIEW,2024-02-15T14:37:25.131000Z,2024-02-15T14:50:16.807000Z,,2024-02-15T14:50:17.340440Z,772.0,CVPIIDEI,2958,29,Male,Asian,United States,United States,United States,English,Yes,Full-Time,Not Applicable
562be0d4733ea00011162e31,<b>People can?t usually trick me when it comes to topics I care about.,Highly disagree,91/94,Somewhat disagree,2,1708008589979,1708008594719,\Somewhat disagree\,\Somewhat disagree\,\2\,1708008594441,1708008594441,4462,4462,4740,buq,qns-item-noham,91,533311,0.0-1.0-0.90,65ce21a0011e383dd0e3c049,AWAITING REVIEW,2024-02-15T14:37:25.131000Z,2024-02-15T14:50:16.807000Z,,2024-02-15T14:50:17.340440Z,772.0,CVPIIDEI,2958,29,Male,Asian,United States,United States,United States,English,Yes,Full-Time,Not Applicable
562be0d4733ea00011162e31,<b>I do not often change my views on food.,Highly disagree,92/94,Somewhat agree,3,1708008594720,1708008597871,\Somewhat disagree\,\Somewhat agree\,\2\,1708008596196,1708008597624,1476,2904,3151,buq,qns-item-noham,92,536463,0.0-1.0-0.91,65ce21a0011e383dd0e3c049,AWAITING REVIEW,2024-02-15T14:37:25.131000Z,2024-02-15T14:50:16.807000Z,,2024-02-15T14:50:17.340440Z,772.0,CVPIIDEI,2958,29,Male,Asian,United States,United States,United States,English,Yes,Full-Time,Not Applicable
562be0d4733ea00011162e31,<b>Specific policies are often very important to me.,Highly disagree,93/94,Somewhat agree,3,1708008597873,1708008601162,\Somewhat agree\,\Somewhat agree\,\3\,1708008599362,1708008599362,1489,1489,3289,buq,qns-item-noham,93,539754,0.0-1.0-0.92,65ce21a0011e383dd0e3c049,AWAITING REVIEW,2024-02-15T14:37:25.131000Z,2024-02-15T14:50:16.807000Z,,2024-02-15T14:50:17.340440Z,772.0,CVPIIDEI,2958,29,Male,Asian,United States,United States,United States,English,Yes,Full-Time,Not Applicable
562be0d4733ea00011162e31,<b>Most people are woefully under-informed.,Highly disagree,94/94,Somewhat agree,3,1708008601163,1708008602684,\Somewhat agree\,\Somewhat agree\,\3\,1708008602436,1708008602436,1273,1273,1521,buq,qns-item-noham,94,541276,0.0-1.0-0.93,65ce21a0011e383dd0e3c049,AWAITING REVIEW,2024-02-15T14:37:25.131000Z,2024-02-15T14:50:16.807000Z,,2024-02-15T14:50:17.340440Z,772.0,CVPIIDEI,2958,29,Male,Asian,United States,United States,United States,English,Yes,Full-Time,Not Applicable
562be0d4733ea00011162e31,,,,,,,,,,,,,,,,,,,,,65ce21a0011e383dd0e3c049,AWAITING REVIEW,2024-02-15T14:37:25.131000Z,2024-02-15T14:50:16.807000Z,,2024-02-15T14:50:17.340440Z,772.0,CVPIIDEI,2958,29,Male,Asian,United States,United States,United States,English,Yes,Full-Time,Not Applicable
