PROLIFIC_PID,Question,qns_options,quest_num,answer,answer_num,question_load_timestamp,next_btn_timestamp,text_selected,final_text_selected,option_num_selected,preview_timestamps,final_text_selected_time_stamp,rt_first_option_click,rt_final_option_click,rt_submit_click,questionnaire,trial_type,trial_index,time_elapsed,internal_node_id,Demographic_Submission id,Demographic_Status,Demographic_Started at,Demographic_Completed at,Demographic_Reviewed at,Demographic_Archived at,Demographic_Time taken,Demographic_Completion code,Demographic_Total approvals,Demographic_Age,Demographic_Sex,Demographic_Ethnicity simplified,Demographic_Country of birth,Demographic_Country of residence,Demographic_Nationality,Demographic_Language,Demographic_Student status,Demographic_Employment status,Demographic_Custom study tncs accepted at
5748077a5e5491000e3bf711,<b>Knowing what?s true and knowing what to do about it are usually basically the same.,Highly disagree,1/94,Somewhat agree,3,1708007979324,1708007987359,\Somewhat agree\,\Somewhat agree\,\3\,1708007986794,1708007986794,7470,7470,8035,buq,qns-item-noham,1,14359,0.0-1.0-0.0,65ce21fdc91222bcb97d4c16,AWAITING REVIEW,2024-02-15T14:39:16.266000Z,2024-02-15T14:46:10.025000Z,,2024-02-15T14:46:10.705094Z,414.0,CVPIIDEI,4918,30,Male,White,United States,United States,United States,English,DATA_EXPIRED,Due to start a new job within the next month,Not Applicable
5748077a5e5491000e3bf711,<b>Most people just believe whatever is convenient for them.,Highly disagree,2/94,Highly agree,4,1708007987361,1708007990947,\Highly agree\,\Highly agree\,\4\,1708007990566,1708007990566,3205,3205,3586,buq,qns-item-noham,2,17946,0.0-1.0-0.1,65ce21fdc91222bcb97d4c16,AWAITING REVIEW,2024-02-15T14:39:16.266000Z,2024-02-15T14:46:10.025000Z,,2024-02-15T14:46:10.705094Z,414.0,CVPIIDEI,4918,30,Male,White,United States,United States,United States,English,DATA_EXPIRED,Due to start a new job within the next month,Not Applicable
5748077a5e5491000e3bf711,<b>Having some big beliefs helps me sort out minor ones.,Highly disagree,3/94,Somewhat agree,3,1708007990948,1708007994766,\Somewhat agree\,\Somewhat agree\,\3\,1708007994461,1708007994461,3513,3513,3818,buq,qns-item-noham,3,21765,0.0-1.0-0.2,65ce21fdc91222bcb97d4c16,AWAITING REVIEW,2024-02-15T14:39:16.266000Z,2024-02-15T14:46:10.025000Z,,2024-02-15T14:46:10.705094Z,414.0,CVPIIDEI,4918,30,Male,White,United States,United States,United States,English,DATA_EXPIRED,Due to start a new job within the next month,Not Applicable
5748077a5e5491000e3bf711,<b>Political questions are usually pretty complicated.,Highly disagree,4/94,Highly agree,4,1708007994769,1708007998562,\Highly agree\,\Highly agree\,\4\,1708007998196,1708007998196,3427,3427,3793,buq,qns-item-noham,4,25562,0.0-1.0-0.3,65ce21fdc91222bcb97d4c16,AWAITING REVIEW,2024-02-15T14:39:16.266000Z,2024-02-15T14:46:10.025000Z,,2024-02-15T14:46:10.705094Z,414.0,CVPIIDEI,4918,30,Male,White,United States,United States,United States,English,DATA_EXPIRED,Due to start a new job within the next month,Not Applicable
5748077a5e5491000e3bf711,<b>Figuring out what?s important in life requires learning a lot of facts.,Highly disagree,5/94,Somewhat disagree,2,1708007998563,1708008005345,\Somewhat agree\,\Somewhat disagree\,\3\,1708008004305,1708008004983,5742,6420,6782,buq,qns-item-noham,5,32344,0.0-1.0-0.4,65ce21fdc91222bcb97d4c16,AWAITING REVIEW,2024-02-15T14:39:16.266000Z,2024-02-15T14:46:10.025000Z,,2024-02-15T14:46:10.705094Z,414.0,CVPIIDEI,4918,30,Male,White,United States,United States,United States,English,DATA_EXPIRED,Due to start a new job within the next month,Not Applicable
5748077a5e5491000e3bf711,<b>It is difficult for me to remember the last time I was surprised by politics.,Highly disagree,6/94,Somewhat disagree,2,1708008005346,1708008022476,\Somewhat agree\,\Somewhat disagree\,\3\,1708008020799,1708008021525,15453,16179,17130,buq,qns-item-noham,6,49475,0.0-1.0-0.5,65ce21fdc91222bcb97d4c16,AWAITING REVIEW,2024-02-15T14:39:16.266000Z,2024-02-15T14:46:10.025000Z,,2024-02-15T14:46:10.705094Z,414.0,CVPIIDEI,4918,30,Male,White,United States,United States,United States,English,DATA_EXPIRED,Due to start a new job within the next month,Not Applicable
5748077a5e5491000e3bf711,<b>People?s false beliefs are understandable.,Highly disagree,7/94,Somewhat disagree,2,1708008022477,1708008024965,\Somewhat disagree\,\Somewhat disagree\,\2\,1708008024587,1708008024587,2110,2110,2488,buq,qns-item-noham,7,51964,0.0-1.0-0.6,65ce21fdc91222bcb97d4c16,AWAITING REVIEW,2024-02-15T14:39:16.266000Z,2024-02-15T14:46:10.025000Z,,2024-02-15T14:46:10.705094Z,414.0,CVPIIDEI,4918,30,Male,White,United States,United States,United States,English,DATA_EXPIRED,Due to start a new job within the next month,Not Applicable
5748077a5e5491000e3bf711,<b>I spend a lot of time trying to be informed about politics.,Highly disagree,8/94,Highly disagree,1,1708008024967,1708008027489,\Highly disagree\,\Highly disagree\,\1\,1708008027097,1708008027097,2130,2130,2522,buq,qns-item-noham,8,54488,0.0-1.0-0.7,65ce21fdc91222bcb97d4c16,AWAITING REVIEW,2024-02-15T14:39:16.266000Z,2024-02-15T14:46:10.025000Z,,2024-02-15T14:46:10.705094Z,414.0,CVPIIDEI,4918,30,Male,White,United States,United States,United States,English,DATA_EXPIRED,Due to start a new job within the next month,Not Applicable
5748077a5e5491000e3bf711,<b>I think a lot about whether my beliefs are right.,Highly disagree,9/94,Somewhat agree,3,1708008027490,1708008031370,\Somewhat agree\,\Somewhat agree\,\3\,1708008031038,1708008031038,3548,3548,3880,buq,qns-item-noham,9,58369,0.0-1.0-0.8,65ce21fdc91222bcb97d4c16,AWAITING REVIEW,2024-02-15T14:39:16.266000Z,2024-02-15T14:46:10.025000Z,,2024-02-15T14:46:10.705094Z,414.0,CVPIIDEI,4918,30,Male,White,United States,United States,United States,English,DATA_EXPIRED,Due to start a new job within the next month,Not Applicable
5748077a5e5491000e3bf711,<b>Statistics can be pretty misleading sometimes.,Highly disagree,10/94,Highly agree,4,1708008031371,1708008033523,\Highly agree\,\Highly agree\,\4\,1708008033197,1708008033197,1826,1826,2152,buq,qns-item-noham,10,60522,0.0-1.0-0.9,65ce21fdc91222bcb97d4c16,AWAITING REVIEW,2024-02-15T14:39:16.266000Z,2024-02-15T14:46:10.025000Z,,2024-02-15T14:46:10.705094Z,414.0,CVPIIDEI,4918,30,Male,White,United States,United States,United States,English,DATA_EXPIRED,Due to start a new job within the next month,Not Applicable
5748077a5e5491000e3bf711,<b>I have lots of beliefs that I?m only sort of sure about.,Highly disagree,11/94,Somewhat agree,3,1708008033524,1708008036873,\Somewhat agree\,\Somewhat agree\,\3\,1708008036552,1708008036552,3028,3028,3349,buq,qns-item-noham,11,63872,0.0-1.0-0.10,65ce21fdc91222bcb97d4c16,AWAITING REVIEW,2024-02-15T14:39:16.266000Z,2024-02-15T14:46:10.025000Z,,2024-02-15T14:46:10.705094Z,414.0,CVPIIDEI,4918,30,Male,White,United States,United States,United States,English,DATA_EXPIRED,Due to start a new job within the next month,Not Applicable
5748077a5e5491000e3bf711,"<b>If I go to my favorite restaurant and the food is surprisingly bad, it reminds me there are many disappointments in life.",Highly disagree,12/94,Highly agree,4,1708008036874,1708008041075,\Somewhat agree\,\Highly agree\,\3\,1708008040433,1708008040795,3559,3921,4201,buq,qns-item-noham,12,68074,0.0-1.0-0.11,65ce21fdc91222bcb97d4c16,AWAITING REVIEW,2024-02-15T14:39:16.266000Z,2024-02-15T14:46:10.025000Z,,2024-02-15T14:46:10.705094Z,414.0,CVPIIDEI,4918,30,Male,White,United States,United States,United States,English,DATA_EXPIRED,Due to start a new job within the next month,Not Applicable
5748077a5e5491000e3bf711,"<b>If you are paying attention, please select ?Somewhat agree?",Highly disagree,13/94,Somewhat agree,3,1708008041076,1708008043313,\Somewhat agree\,\Somewhat agree\,\3\,1708008042938,1708008042938,1862,1862,2237,buq,qns-item-noham,13,70312,0.0-1.0-0.12,65ce21fdc91222bcb97d4c16,AWAITING REVIEW,2024-02-15T14:39:16.266000Z,2024-02-15T14:46:10.025000Z,,2024-02-15T14:46:10.705094Z,414.0,CVPIIDEI,4918,30,Male,White,United States,United States,United States,English,DATA_EXPIRED,Due to start a new job within the next month,Not Applicable
5748077a5e5491000e3bf711,"<b>When I talk to others, I often worry I?ll convince them of something I didn?t mean to.",Highly disagree,14/94,Highly disagree,1,1708008043314,1708008053114,\Somewhat disagree\,\Highly disagree\,\2\,1708008052267,1708008052726,8953,9412,9800,buq,qns-item-noham,14,80113,0.0-1.0-0.13,65ce21fdc91222bcb97d4c16,AWAITING REVIEW,2024-02-15T14:39:16.266000Z,2024-02-15T14:46:10.025000Z,,2024-02-15T14:46:10.705094Z,414.0,CVPIIDEI,4918,30,Male,White,United States,United States,United States,English,DATA_EXPIRED,Due to start a new job within the next month,Not Applicable
5748077a5e5491000e3bf711,<b>I would need to learn something utterly shocking about my party in order to change my political views.,Highly disagree,15/94,Somewhat agree,3,1708008053115,1708008058503,\Somewhat agree\,\Somewhat agree\,\3\,1708008058136,1708008058136,5021,5021,5388,buq,qns-item-noham,15,85502,0.0-1.0-0.14,65ce21fdc91222bcb97d4c16,AWAITING REVIEW,2024-02-15T14:39:16.266000Z,2024-02-15T14:46:10.025000Z,,2024-02-15T14:46:10.705094Z,414.0,CVPIIDEI,4918,30,Male,White,United States,United States,United States,English,DATA_EXPIRED,Due to start a new job within the next month,Not Applicable
5748077a5e5491000e3bf711,"<b>When I have new experiences, I tend to think of them as unique.",Highly disagree,16/94,Somewhat agree,3,1708008058504,1708008062549,\Somewhat agree\,\Somewhat agree\,\3\,1708008061723,1708008061723,3219,3219,4045,buq,qns-item-noham,16,89548,0.0-1.0-0.15,65ce21fdc91222bcb97d4c16,AWAITING REVIEW,2024-02-15T14:39:16.266000Z,2024-02-15T14:46:10.025000Z,,2024-02-15T14:46:10.705094Z,414.0,CVPIIDEI,4918,30,Male,White,United States,United States,United States,English,DATA_EXPIRED,Due to start a new job within the next month,Not Applicable
5748077a5e5491000e3bf711,<b>I change my mind about specific policies pretty frequently.,Highly disagree,17/94,Highly disagree,1,1708008062550,1708008084254,\Highly disagree\,\Highly disagree\,\1\,1708008083413,1708008083413,20863,20863,21704,buq,qns-item-noham,17,111254,0.0-1.0-0.16,65ce21fdc91222bcb97d4c16,AWAITING REVIEW,2024-02-15T14:39:16.266000Z,2024-02-15T14:46:10.025000Z,,2024-02-15T14:46:10.705094Z,414.0,CVPIIDEI,4918,30,Male,White,United States,United States,United States,English,DATA_EXPIRED,Due to start a new job within the next month,Not Applicable
5748077a5e5491000e3bf711,"<b>If a politician in my political party supports something I disagree with, I give them the benefit of the doubt, as such issues often involve hidden complexities that aren?t obvious.   ",Highly disagree,18/94,Somewhat disagree,2,1708008084257,1708008088975,\Somewhat disagree\,\Somewhat disagree\,\2\,1708008088497,1708008088497,4240,4240,4718,buq,qns-item-noham,18,115974,0.0-1.0-0.17,65ce21fdc91222bcb97d4c16,AWAITING REVIEW,2024-02-15T14:39:16.266000Z,2024-02-15T14:46:10.025000Z,,2024-02-15T14:46:10.705094Z,414.0,CVPIIDEI,4918,30,Male,White,United States,United States,United States,English,DATA_EXPIRED,Due to start a new job within the next month,Not Applicable
5748077a5e5491000e3bf711,<b>People?s bad politics are usually motivated by hatefulness.,Highly disagree,19/94,Somewhat agree,3,1708008088976,1708008093571,\Somewhat agree\,\Somewhat agree\,\3\,1708008093257,1708008093257,4281,4281,4595,buq,qns-item-noham,19,120570,0.0-1.0-0.18,65ce21fdc91222bcb97d4c16,AWAITING REVIEW,2024-02-15T14:39:16.266000Z,2024-02-15T14:46:10.025000Z,,2024-02-15T14:46:10.705094Z,414.0,CVPIIDEI,4918,30,Male,White,United States,United States,United States,English,DATA_EXPIRED,Due to start a new job within the next month,Not Applicable
5748077a5e5491000e3bf711,<b>I think a lot about how to reconcile my beliefs with one another.,Highly disagree,20/94,Somewhat disagree,2,1708008093572,1708008098589,\Somewhat agree\,\Somewhat disagree\,\3\,1708008097404,1708008098130,3832,4558,5017,buq,qns-item-noham,20,125588,0.0-1.0-0.19,65ce21fdc91222bcb97d4c16,AWAITING REVIEW,2024-02-15T14:39:16.266000Z,2024-02-15T14:46:10.025000Z,,2024-02-15T14:46:10.705094Z,414.0,CVPIIDEI,4918,30,Male,White,United States,United States,United States,English,DATA_EXPIRED,Due to start a new job within the next month,Not Applicable
5748077a5e5491000e3bf711,<b>I might have false beliefs about important topics.,Highly disagree,21/94,Highly disagree,1,1708008098590,1708008100639,\Highly disagree\,\Highly disagree\,\1\,1708008100314,1708008100314,1724,1724,2049,buq,qns-item-noham,21,127638,0.0-1.0-0.20,65ce21fdc91222bcb97d4c16,AWAITING REVIEW,2024-02-15T14:39:16.266000Z,2024-02-15T14:46:10.025000Z,,2024-02-15T14:46:10.705094Z,414.0,CVPIIDEI,4918,30,Male,White,United States,United States,United States,English,DATA_EXPIRED,Due to start a new job within the next month,Not Applicable
5748077a5e5491000e3bf711,"<b>If a good friend of mine does something unexpected that upsets me, I feel like I don?t know them anymore.",Highly disagree,22/94,Somewhat agree,3,1708008100639,1708008105188,\Somewhat agree\,\Somewhat agree\,\3\,1708008104820,1708008104820,4181,4181,4549,buq,qns-item-noham,22,132187,0.0-1.0-0.21,65ce21fdc91222bcb97d4c16,AWAITING REVIEW,2024-02-15T14:39:16.266000Z,2024-02-15T14:46:10.025000Z,,2024-02-15T14:46:10.705094Z,414.0,CVPIIDEI,4918,30,Male,White,United States,United States,United States,English,DATA_EXPIRED,Due to start a new job within the next month,Not Applicable
5748077a5e5491000e3bf711,<b>Other people?s beliefs are often incoherent.,Highly disagree,23/94,Somewhat disagree,2,1708008105189,1708008108605,\Somewhat disagree\,\Somewhat disagree\,\2\,1708008107320,1708008107320,2131,2131,3416,buq,qns-item-noham,23,135604,0.0-1.0-0.22,65ce21fdc91222bcb97d4c16,AWAITING REVIEW,2024-02-15T14:39:16.266000Z,2024-02-15T14:46:10.025000Z,,2024-02-15T14:46:10.705094Z,414.0,CVPIIDEI,4918,30,Male,White,United States,United States,United States,English,DATA_EXPIRED,Due to start a new job within the next month,Not Applicable
5748077a5e5491000e3bf711,"<b>Every now and then, a new experience will unsettle beliefs I?ve had for a while.",Highly disagree,24/94,Somewhat agree,3,1708008108605,1708008112759,\Somewhat agree\,\Somewhat agree\,\3\,1708008112405,1708008112405,3800,3800,4154,buq,qns-item-noham,24,139758,0.0-1.0-0.23,65ce21fdc91222bcb97d4c16,AWAITING REVIEW,2024-02-15T14:39:16.266000Z,2024-02-15T14:46:10.025000Z,,2024-02-15T14:46:10.705094Z,414.0,CVPIIDEI,4918,30,Male,White,United States,United States,United States,English,DATA_EXPIRED,Due to start a new job within the next month,Not Applicable
5748077a5e5491000e3bf711,<b>Some policies I agree with in principle are so bad I don?t support them. ,Highly disagree,25/94,Somewhat agree,3,1708008112760,1708008117193,\Somewhat agree\,\Somewhat agree\,\3\,1708008116767,1708008116767,4007,4007,4433,buq,qns-item-noham,25,144192,0.0-1.0-0.24,65ce21fdc91222bcb97d4c16,AWAITING REVIEW,2024-02-15T14:39:16.266000Z,2024-02-15T14:46:10.025000Z,,2024-02-15T14:46:10.705094Z,414.0,CVPIIDEI,4918,30,Male,White,United States,United States,United States,English,DATA_EXPIRED,Due to start a new job within the next month,Not Applicable
5748077a5e5491000e3bf711,<b>I?m pretty sure I?ve accidentally spread false information.,Highly disagree,26/94,Somewhat disagree,2,1708008117194,1708008119955,\Somewhat disagree\,\Somewhat disagree\,\2\,1708008119550,1708008119550,2356,2356,2761,buq,qns-item-noham,26,146954,0.0-1.0-0.25,65ce21fdc91222bcb97d4c16,AWAITING REVIEW,2024-02-15T14:39:16.266000Z,2024-02-15T14:46:10.025000Z,,2024-02-15T14:46:10.705094Z,414.0,CVPIIDEI,4918,30,Male,White,United States,United States,United States,English,DATA_EXPIRED,Due to start a new job within the next month,Not Applicable
5748077a5e5491000e3bf711,"<b>If I go to my favorite restaurant and the food is unexpectedly bad, then they have changed owners.",Highly disagree,27/94,Highly disagree,1,1708008119956,1708008123973,\Highly disagree\,\Highly disagree\,\1\,1708008123523,1708008123523,3567,3567,4017,buq,qns-item-noham,27,150972,0.0-1.0-0.26,65ce21fdc91222bcb97d4c16,AWAITING REVIEW,2024-02-15T14:39:16.266000Z,2024-02-15T14:46:10.025000Z,,2024-02-15T14:46:10.705094Z,414.0,CVPIIDEI,4918,30,Male,White,United States,United States,United States,English,DATA_EXPIRED,Due to start a new job within the next month,Not Applicable
5748077a5e5491000e3bf711,"<b>In politics, it?s important to trust your friends and family.",Highly disagree,28/94,Highly disagree,1,1708008123974,1708008127323,\Highly disagree\,\Highly disagree\,\1\,1708008126792,1708008126792,2818,2818,3349,buq,qns-item-noham,28,154322,0.0-1.0-0.27,65ce21fdc91222bcb97d4c16,AWAITING REVIEW,2024-02-15T14:39:16.266000Z,2024-02-15T14:46:10.025000Z,,2024-02-15T14:46:10.705094Z,414.0,CVPIIDEI,4918,30,Male,White,United States,United States,United States,English,DATA_EXPIRED,Due to start a new job within the next month,Not Applicable
5748077a5e5491000e3bf711,<b>It?s OK to have some conflicting beliefs.,Highly disagree,29/94,Highly agree,4,1708008127324,1708008129125,\Highly agree\,\Highly agree\,\4\,1708008128751,1708008128751,1427,1427,1801,buq,qns-item-noham,29,156124,0.0-1.0-0.28,65ce21fdc91222bcb97d4c16,AWAITING REVIEW,2024-02-15T14:39:16.266000Z,2024-02-15T14:46:10.025000Z,,2024-02-15T14:46:10.705094Z,414.0,CVPIIDEI,4918,30,Male,White,United States,United States,United States,English,DATA_EXPIRED,Due to start a new job within the next month,Not Applicable
5748077a5e5491000e3bf711,<b>Listening to people I disagree with makes my opinions better.,Highly disagree,30/94,Somewhat disagree,2,1708008129126,1708008133559,\Highly agree\,\Somewhat disagree\,\4\,1708008131456,1708008133011,2330,3885,4433,buq,qns-item-noham,30,160558,0.0-1.0-0.29,65ce21fdc91222bcb97d4c16,AWAITING REVIEW,2024-02-15T14:39:16.266000Z,2024-02-15T14:46:10.025000Z,,2024-02-15T14:46:10.705094Z,414.0,CVPIIDEI,4918,30,Male,White,United States,United States,United States,English,DATA_EXPIRED,Due to start a new job within the next month,Not Applicable
5748077a5e5491000e3bf711,<b>My moral compass sometimes makes it harder to determine what?s true.,Highly disagree,31/94,Somewhat agree,3,1708008133560,1708008136743,\Somewhat agree\,\Somewhat agree\,\3\,1708008136396,1708008136396,2836,2836,3183,buq,qns-item-noham,31,163742,0.0-1.0-0.30,65ce21fdc91222bcb97d4c16,AWAITING REVIEW,2024-02-15T14:39:16.266000Z,2024-02-15T14:46:10.025000Z,,2024-02-15T14:46:10.705094Z,414.0,CVPIIDEI,4918,30,Male,White,United States,United States,United States,English,DATA_EXPIRED,Due to start a new job within the next month,Not Applicable
5748077a5e5491000e3bf711,<b>Evidence pointing in the wrong direction isn?t really evidence at all.,Highly disagree,32/94,Somewhat agree,3,1708008136744,1708008140061,\Somewhat agree\,\Somewhat agree\,\3\,1708008139585,1708008139585,2841,2841,3317,buq,qns-item-noham,32,167060,0.0-1.0-0.31,65ce21fdc91222bcb97d4c16,AWAITING REVIEW,2024-02-15T14:39:16.266000Z,2024-02-15T14:46:10.025000Z,,2024-02-15T14:46:10.705094Z,414.0,CVPIIDEI,4918,30,Male,White,United States,United States,United States,English,DATA_EXPIRED,Due to start a new job within the next month,Not Applicable
5748077a5e5491000e3bf711,"<b>If the political party I support messes up, it makes me think politics is rotten.",Highly disagree,33/94,Somewhat agree,3,1708008140062,1708008143517,\Somewhat agree\,\Somewhat agree\,\3\,1708008143205,1708008143205,3143,3143,3455,buq,qns-item-noham,33,170516,0.0-1.0-0.32,65ce21fdc91222bcb97d4c16,AWAITING REVIEW,2024-02-15T14:39:16.266000Z,2024-02-15T14:46:10.025000Z,,2024-02-15T14:46:10.705094Z,414.0,CVPIIDEI,4918,30,Male,White,United States,United States,United States,English,DATA_EXPIRED,Due to start a new job within the next month,Not Applicable
5748077a5e5491000e3bf711,<b>Lots of important topics can only really be understood by some groups of people.,Highly disagree,34/94,Highly disagree,1,1708008143518,1708008146632,\Highly disagree\,\Highly disagree\,\1\,1708008146262,1708008146262,2744,2744,3114,buq,qns-item-noham,34,173631,0.0-1.0-0.33,65ce21fdc91222bcb97d4c16,AWAITING REVIEW,2024-02-15T14:39:16.266000Z,2024-02-15T14:46:10.025000Z,,2024-02-15T14:46:10.705094Z,414.0,CVPIIDEI,4918,30,Male,White,United States,United States,United States,English,DATA_EXPIRED,Due to start a new job within the next month,Not Applicable
5748077a5e5491000e3bf711,<b>Having conflicting beliefs means you haven?t thought about them enough.,Highly disagree,35/94,Highly disagree,1,1708008146633,1708008151433,\Highly disagree\,\Highly disagree\,\1\,1708008151069,1708008151069,4436,4436,4800,buq,qns-item-noham,35,178432,0.0-1.0-0.34,65ce21fdc91222bcb97d4c16,AWAITING REVIEW,2024-02-15T14:39:16.266000Z,2024-02-15T14:46:10.025000Z,,2024-02-15T14:46:10.705094Z,414.0,CVPIIDEI,4918,30,Male,White,United States,United States,United States,English,DATA_EXPIRED,Due to start a new job within the next month,Not Applicable
5748077a5e5491000e3bf711,<b>I do not often change my political opinions.,Highly disagree,36/94,Somewhat agree,3,1708008151435,1708008154141,\Somewhat agree\,\Somewhat agree\,\3\,1708008153752,1708008153752,2317,2317,2706,buq,qns-item-noham,36,181140,0.0-1.0-0.35,65ce21fdc91222bcb97d4c16,AWAITING REVIEW,2024-02-15T14:39:16.266000Z,2024-02-15T14:46:10.025000Z,,2024-02-15T14:46:10.705094Z,414.0,CVPIIDEI,4918,30,Male,White,United States,United States,United States,English,DATA_EXPIRED,Due to start a new job within the next month,Not Applicable
5748077a5e5491000e3bf711,<b>It?s difficult to not have at least some conflicting beliefs.,Highly disagree,37/94,Somewhat agree,3,1708008154142,1708008158131,\Somewhat agree\,\Somewhat agree\,\3\,1708008157832,1708008157832,3690,3690,3989,buq,qns-item-noham,37,185130,0.0-1.0-0.36,65ce21fdc91222bcb97d4c16,AWAITING REVIEW,2024-02-15T14:39:16.266000Z,2024-02-15T14:46:10.025000Z,,2024-02-15T14:46:10.705094Z,414.0,CVPIIDEI,4918,30,Male,White,United States,United States,United States,English,DATA_EXPIRED,Due to start a new job within the next month,Not Applicable
5748077a5e5491000e3bf711,<b>Wishful thinking causes a lot of problems.,Highly disagree,38/94,Somewhat disagree,2,1708008158132,1708008159880,\Somewhat disagree\,\Somewhat disagree\,\2\,1708008159542,1708008159542,1410,1410,1748,buq,qns-item-noham,38,186879,0.0-1.0-0.37,65ce21fdc91222bcb97d4c16,AWAITING REVIEW,2024-02-15T14:39:16.266000Z,2024-02-15T14:46:10.025000Z,,2024-02-15T14:46:10.705094Z,414.0,CVPIIDEI,4918,30,Male,White,United States,United States,United States,English,DATA_EXPIRED,Due to start a new job within the next month,Not Applicable
5748077a5e5491000e3bf711,<b>I judge a food item only once I try it many times.,Highly disagree,39/94,Highly agree,4,1708008159881,1708008163565,\Somewhat agree\,\Highly agree\,\3\,1708008162716,1708008163233,2835,3352,3684,buq,qns-item-noham,39,190564,0.0-1.0-0.38,65ce21fdc91222bcb97d4c16,AWAITING REVIEW,2024-02-15T14:39:16.266000Z,2024-02-15T14:46:10.025000Z,,2024-02-15T14:46:10.705094Z,414.0,CVPIIDEI,4918,30,Male,White,United States,United States,United States,English,DATA_EXPIRED,Due to start a new job within the next month,Not Applicable
5748077a5e5491000e3bf711,"<b>When a person holds conflicting beliefs, they should really try to figure out what?s wrong.",Highly disagree,40/94,Highly disagree,1,1708008163566,1708008166788,\Highly disagree\,\Highly disagree\,\1\,1708008166238,1708008166238,2672,2672,3222,buq,qns-item-noham,40,193787,0.0-1.0-0.39,65ce21fdc91222bcb97d4c16,AWAITING REVIEW,2024-02-15T14:39:16.266000Z,2024-02-15T14:46:10.025000Z,,2024-02-15T14:46:10.705094Z,414.0,CVPIIDEI,4918,30,Male,White,United States,United States,United States,English,DATA_EXPIRED,Due to start a new job within the next month,Not Applicable
5748077a5e5491000e3bf711,<b>Knowing what?s important in life is easy.,Highly disagree,41/94,Highly disagree,1,1708008166789,1708008169345,\Highly disagree\,\Highly disagree\,\1\,1708008168838,1708008168838,2049,2049,2556,buq,qns-item-noham,41,196344,0.0-1.0-0.40,65ce21fdc91222bcb97d4c16,AWAITING REVIEW,2024-02-15T14:39:16.266000Z,2024-02-15T14:46:10.025000Z,,2024-02-15T14:46:10.705094Z,414.0,CVPIIDEI,4918,30,Male,White,United States,United States,United States,English,DATA_EXPIRED,Due to start a new job within the next month,Not Applicable
5748077a5e5491000e3bf711,<b>I swim across the Atlantic Ocean to get to work every day.,Highly disagree,42/94,Highly disagree,1,1708008169346,1708008170985,\Highly disagree\,\Highly disagree\,\1\,1708008170565,1708008170565,1219,1219,1639,buq,qns-item-noham,42,197985,0.0-1.0-0.41,65ce21fdc91222bcb97d4c16,AWAITING REVIEW,2024-02-15T14:39:16.266000Z,2024-02-15T14:46:10.025000Z,,2024-02-15T14:46:10.705094Z,414.0,CVPIIDEI,4918,30,Male,White,United States,United States,United States,English,DATA_EXPIRED,Due to start a new job within the next month,Not Applicable
5748077a5e5491000e3bf711,"<b>Sometimes, you just have to ignore evidence that you know is wrong.",Highly disagree,43/94,Highly disagree,1,1708008170987,1708008175024,\Highly disagree\,\Highly disagree\,\1\,1708008173074,1708008173074,2087,2087,4037,buq,qns-item-noham,43,202023,0.0-1.0-0.42,65ce21fdc91222bcb97d4c16,AWAITING REVIEW,2024-02-15T14:39:16.266000Z,2024-02-15T14:46:10.025000Z,,2024-02-15T14:46:10.705094Z,414.0,CVPIIDEI,4918,30,Male,White,United States,United States,United States,English,DATA_EXPIRED,Due to start a new job within the next month,Not Applicable
5748077a5e5491000e3bf711,<b>I have had some false beliefs.,Highly disagree,44/94,Somewhat agree,3,1708008175025,1708008176731,\Somewhat agree\,\Somewhat agree\,\3\,1708008176433,1708008176433,1408,1408,1706,buq,qns-item-noham,44,203730,0.0-1.0-0.43,65ce21fdc91222bcb97d4c16,AWAITING REVIEW,2024-02-15T14:39:16.266000Z,2024-02-15T14:46:10.025000Z,,2024-02-15T14:46:10.705094Z,414.0,CVPIIDEI,4918,30,Male,White,United States,United States,United States,English,DATA_EXPIRED,Due to start a new job within the next month,Not Applicable
5748077a5e5491000e3bf711,"<b>If one friend does something that upsets me, I sometimes start to distrust people in general.",Highly disagree,45/94,Highly disagree,1,1708008176732,1708008179765,\Highly disagree\,\Highly disagree\,\1\,1708008179448,1708008179448,2716,2716,3033,buq,qns-item-noham,45,206764,0.0-1.0-0.44,65ce21fdc91222bcb97d4c16,AWAITING REVIEW,2024-02-15T14:39:16.266000Z,2024-02-15T14:46:10.025000Z,,2024-02-15T14:46:10.705094Z,414.0,CVPIIDEI,4918,30,Male,White,United States,United States,United States,English,DATA_EXPIRED,Due to start a new job within the next month,Not Applicable
5748077a5e5491000e3bf711,<b>The facts about most important matters are easy to find.,Highly disagree,46/94,Highly disagree,1,1708008179766,1708008183664,\Highly disagree\,\Highly disagree\,\1\,1708008183033,1708008183033,3267,3267,3898,buq,qns-item-noham,46,210663,0.0-1.0-0.45,65ce21fdc91222bcb97d4c16,AWAITING REVIEW,2024-02-15T14:39:16.266000Z,2024-02-15T14:46:10.025000Z,,2024-02-15T14:46:10.705094Z,414.0,CVPIIDEI,4918,30,Male,White,United States,United States,United States,English,DATA_EXPIRED,Due to start a new job within the next month,Not Applicable
5748077a5e5491000e3bf711,<b>It?s better to know what?s true than to know what?s moral.,Highly disagree,47/94,Highly disagree,1,1708008183665,1708008187126,\Highly disagree\,\Highly disagree\,\1\,1708008186801,1708008186801,3136,3136,3461,buq,qns-item-noham,47,214125,0.0-1.0-0.46,65ce21fdc91222bcb97d4c16,AWAITING REVIEW,2024-02-15T14:39:16.266000Z,2024-02-15T14:46:10.025000Z,,2024-02-15T14:46:10.705094Z,414.0,CVPIIDEI,4918,30,Male,White,United States,United States,United States,English,DATA_EXPIRED,Due to start a new job within the next month,Not Applicable
5748077a5e5491000e3bf711,<b>I used to think the world was less complicated than I do now.,Highly disagree,48/94,Highly agree,4,1708008187128,1708008191802,\Somewhat agree\,\Highly agree\,\3\,1708008189992,1708008191515,2864,4387,4674,buq,qns-item-noham,48,218801,0.0-1.0-0.47,65ce21fdc91222bcb97d4c16,AWAITING REVIEW,2024-02-15T14:39:16.266000Z,2024-02-15T14:46:10.025000Z,,2024-02-15T14:46:10.705094Z,414.0,CVPIIDEI,4918,30,Male,White,United States,United States,United States,English,DATA_EXPIRED,Due to start a new job within the next month,Not Applicable
5748077a5e5491000e3bf711,<b>People are usually completely right or completely wrong.,Highly disagree,49/94,Highly disagree,1,1708008191803,1708008194640,\Highly disagree\,\Highly disagree\,\1\,1708008194361,1708008194361,2558,2558,2837,buq,qns-item-noham,49,221639,0.0-1.0-0.48,65ce21fdc91222bcb97d4c16,AWAITING REVIEW,2024-02-15T14:39:16.266000Z,2024-02-15T14:46:10.025000Z,,2024-02-15T14:46:10.705094Z,414.0,CVPIIDEI,4918,30,Male,White,United States,United States,United States,English,DATA_EXPIRED,Due to start a new job within the next month,Not Applicable
5748077a5e5491000e3bf711,<b>I spend a lot of time considering alternatives to my beliefs.,Highly disagree,50/94,Somewhat agree,3,1708008194641,1708008197060,\Somewhat agree\,\Somewhat agree\,\3\,1708008196776,1708008196776,2135,2135,2419,buq,qns-item-noham,50,224059,0.0-1.0-0.49,65ce21fdc91222bcb97d4c16,AWAITING REVIEW,2024-02-15T14:39:16.266000Z,2024-02-15T14:46:10.025000Z,,2024-02-15T14:46:10.705094Z,414.0,CVPIIDEI,4918,30,Male,White,United States,United States,United States,English,DATA_EXPIRED,Due to start a new job within the next month,Not Applicable
5748077a5e5491000e3bf711,"<b>Political enemies need to be defeated, not convinced.",Highly disagree,51/94,Highly disagree,1,1708008197061,1708008199124,\Highly disagree\,\Highly disagree\,\1\,1708008198735,1708008198735,1674,1674,2063,buq,qns-item-noham,51,226123,0.0-1.0-0.50,65ce21fdc91222bcb97d4c16,AWAITING REVIEW,2024-02-15T14:39:16.266000Z,2024-02-15T14:46:10.025000Z,,2024-02-15T14:46:10.705094Z,414.0,CVPIIDEI,4918,30,Male,White,United States,United States,United States,English,DATA_EXPIRED,Due to start a new job within the next month,Not Applicable
5748077a5e5491000e3bf711,<b>I form my political views only after meticulously gathering historical and present information about their policies.,Highly disagree,52/94,Somewhat agree,3,1708008199125,1708008204252,\Somewhat disagree\,\Somewhat agree\,\2\,1708008202829,1708008203705,3704,4580,5127,buq,qns-item-noham,52,231251,0.0-1.0-0.51,65ce21fdc91222bcb97d4c16,AWAITING REVIEW,2024-02-15T14:39:16.266000Z,2024-02-15T14:46:10.025000Z,,2024-02-15T14:46:10.705094Z,414.0,CVPIIDEI,4918,30,Male,White,United States,United States,United States,English,DATA_EXPIRED,Due to start a new job within the next month,Not Applicable
5748077a5e5491000e3bf711,<b>It is difficult for me to remember the last time I was surprised by politics.,Highly disagree,53/94,Somewhat agree,3,1708008204253,1708008207685,\Somewhat agree\,\Somewhat agree\,\3\,1708008207331,1708008207331,3078,3078,3432,buq,qns-item-noham,53,234685,0.0-1.0-0.52,65ce21fdc91222bcb97d4c16,AWAITING REVIEW,2024-02-15T14:39:16.266000Z,2024-02-15T14:46:10.025000Z,,2024-02-15T14:46:10.705094Z,414.0,CVPIIDEI,4918,30,Male,White,United States,United States,United States,English,DATA_EXPIRED,Due to start a new job within the next month,Not Applicable
5748077a5e5491000e3bf711,"<b>When I find out I?m wrong, I think a lot about my related beliefs.",Highly disagree,54/94,Somewhat agree,3,1708008207686,1708008209828,\Somewhat agree\,\Somewhat agree\,\3\,1708008209529,1708008209529,1843,1843,2142,buq,qns-item-noham,54,236827,0.0-1.0-0.53,65ce21fdc91222bcb97d4c16,AWAITING REVIEW,2024-02-15T14:39:16.266000Z,2024-02-15T14:46:10.025000Z,,2024-02-15T14:46:10.705094Z,414.0,CVPIIDEI,4918,30,Male,White,United States,United States,United States,English,DATA_EXPIRED,Due to start a new job within the next month,Not Applicable
5748077a5e5491000e3bf711,"<b>If the political party I support messes up, it makes me think you can?t trust anyone these days",Highly disagree,55/94,Somewhat agree,3,1708008209829,1708008215647,\Somewhat agree\,\Somewhat agree\,\3\,1708008215099,1708008215099,5270,5270,5818,buq,qns-item-noham,55,242646,0.0-1.0-0.54,65ce21fdc91222bcb97d4c16,AWAITING REVIEW,2024-02-15T14:39:16.266000Z,2024-02-15T14:46:10.025000Z,,2024-02-15T14:46:10.705094Z,414.0,CVPIIDEI,4918,30,Male,White,United States,United States,United States,English,DATA_EXPIRED,Due to start a new job within the next month,Not Applicable
5748077a5e5491000e3bf711,<b>People?s brains turn off when they talk about politics.,Highly disagree,56/94,Somewhat disagree,2,1708008215648,1708008218364,\Highly disagree\,\Somewhat disagree\,\1\,1708008217600,1708008218023,1952,2375,2716,buq,qns-item-noham,56,245364,0.0-1.0-0.55,65ce21fdc91222bcb97d4c16,AWAITING REVIEW,2024-02-15T14:39:16.266000Z,2024-02-15T14:46:10.025000Z,,2024-02-15T14:46:10.705094Z,414.0,CVPIIDEI,4918,30,Male,White,United States,United States,United States,English,DATA_EXPIRED,Due to start a new job within the next month,Not Applicable
5748077a5e5491000e3bf711,<b>People who are wrong are usually just ignoring the obvious.,Highly disagree,57/94,Highly disagree,1,1708008218365,1708008221224,\Highly disagree\,\Highly disagree\,\1\,1708008220878,1708008220878,2513,2513,2859,buq,qns-item-noham,57,248223,0.0-1.0-0.56,65ce21fdc91222bcb97d4c16,AWAITING REVIEW,2024-02-15T14:39:16.266000Z,2024-02-15T14:46:10.025000Z,,2024-02-15T14:46:10.705094Z,414.0,CVPIIDEI,4918,30,Male,White,United States,United States,United States,English,DATA_EXPIRED,Due to start a new job within the next month,Not Applicable
5748077a5e5491000e3bf711,"<b>When forming my views on people, I rely more on what they are like now rather than rely on my past experience with them.",Highly disagree,58/94,Somewhat agree,3,1708008221225,1708008226465,\Somewhat agree\,\Somewhat agree\,\3\,1708008225836,1708008225836,4611,4611,5240,buq,qns-item-noham,58,253464,0.0-1.0-0.57,65ce21fdc91222bcb97d4c16,AWAITING REVIEW,2024-02-15T14:39:16.266000Z,2024-02-15T14:46:10.025000Z,,2024-02-15T14:46:10.705094Z,414.0,CVPIIDEI,4918,30,Male,White,United States,United States,United States,English,DATA_EXPIRED,Due to start a new job within the next month,Not Applicable
5748077a5e5491000e3bf711,"<b>When people contradict my beliefs, I usually know about their evidence already.",Highly disagree,59/94,Highly disagree,1,1708008226466,1708008230421,\Highly disagree\,\Highly disagree\,\1\,1708008229326,1708008229326,2860,2860,3955,buq,qns-item-noham,59,257420,0.0-1.0-0.58,65ce21fdc91222bcb97d4c16,AWAITING REVIEW,2024-02-15T14:39:16.266000Z,2024-02-15T14:46:10.025000Z,,2024-02-15T14:46:10.705094Z,414.0,CVPIIDEI,4918,30,Male,White,United States,United States,United States,English,DATA_EXPIRED,Due to start a new job within the next month,Not Applicable
5748077a5e5491000e3bf711,<b>Figuring out what?s true and what?s false mainly requires a strong moral compass.,Highly disagree,60/94,Highly disagree,1,1708008230422,1708008234328,\Highly disagree\,\Highly disagree\,\1\,1708008234053,1708008234053,3631,3631,3906,buq,qns-item-noham,60,261327,0.0-1.0-0.59,65ce21fdc91222bcb97d4c16,AWAITING REVIEW,2024-02-15T14:39:16.266000Z,2024-02-15T14:46:10.025000Z,,2024-02-15T14:46:10.705094Z,414.0,CVPIIDEI,4918,30,Male,White,United States,United States,United States,English,DATA_EXPIRED,Due to start a new job within the next month,Not Applicable
5748077a5e5491000e3bf711,"<b>Usually I?m wrong about simple things, not complicated ones.",Highly disagree,61/94,Somewhat agree,3,1708008234328,1708008241178,\Somewhat disagree\,\Somewhat agree\,\2\,1708008238218,1708008240879,3890,6551,6850,buq,qns-item-noham,61,268177,0.0-1.0-0.60,65ce21fdc91222bcb97d4c16,AWAITING REVIEW,2024-02-15T14:39:16.266000Z,2024-02-15T14:46:10.025000Z,,2024-02-15T14:46:10.705094Z,414.0,CVPIIDEI,4918,30,Male,White,United States,United States,United States,English,DATA_EXPIRED,Due to start a new job within the next month,Not Applicable
5748077a5e5491000e3bf711,<b>Getting all the information I want about important things is hard.,Highly disagree,62/94,Somewhat agree,3,1708008241179,1708008243921,\Somewhat agree\,\Somewhat agree\,\3\,1708008243602,1708008243602,2423,2423,2742,buq,qns-item-noham,62,270920,0.0-1.0-0.61,65ce21fdc91222bcb97d4c16,AWAITING REVIEW,2024-02-15T14:39:16.266000Z,2024-02-15T14:46:10.025000Z,,2024-02-15T14:46:10.705094Z,414.0,CVPIIDEI,4918,30,Male,White,United States,United States,United States,English,DATA_EXPIRED,Due to start a new job within the next month,Not Applicable
5748077a5e5491000e3bf711,<b>Most false beliefs spread because people try to deceive one another.,Highly disagree,63/94,Highly disagree,1,1708008243921,1708008246980,\Highly disagree\,\Highly disagree\,\1\,1708008246667,1708008246667,2746,2746,3059,buq,qns-item-noham,63,273979,0.0-1.0-0.62,65ce21fdc91222bcb97d4c16,AWAITING REVIEW,2024-02-15T14:39:16.266000Z,2024-02-15T14:46:10.025000Z,,2024-02-15T14:46:10.705094Z,414.0,CVPIIDEI,4918,30,Male,White,United States,United States,United States,English,DATA_EXPIRED,Due to start a new job within the next month,Not Applicable
5748077a5e5491000e3bf711,<b>I can usually find something to agree with in most people?s beliefs.,Highly disagree,64/94,Somewhat agree,3,1708008246981,1708008252554,\Somewhat agree\,\Somewhat agree\,\3\,1708008252241,1708008252241,5260,5260,5573,buq,qns-item-noham,64,279554,0.0-1.0-0.63,65ce21fdc91222bcb97d4c16,AWAITING REVIEW,2024-02-15T14:39:16.266000Z,2024-02-15T14:46:10.025000Z,,2024-02-15T14:46:10.705094Z,414.0,CVPIIDEI,4918,30,Male,White,United States,United States,United States,English,DATA_EXPIRED,Due to start a new job within the next month,Not Applicable
5748077a5e5491000e3bf711,<b>I only form my views of people once I get to know them very well.,Highly disagree,65/94,Somewhat agree,3,1708008252556,1708008254894,\Somewhat agree\,\Somewhat agree\,\3\,1708008254580,1708008254580,2024,2024,2338,buq,qns-item-noham,65,281893,0.0-1.0-0.64,65ce21fdc91222bcb97d4c16,AWAITING REVIEW,2024-02-15T14:39:16.266000Z,2024-02-15T14:46:10.025000Z,,2024-02-15T14:46:10.705094Z,414.0,CVPIIDEI,4918,30,Male,White,United States,United States,United States,English,DATA_EXPIRED,Due to start a new job within the next month,Not Applicable
5748077a5e5491000e3bf711,"<b>When people tell me important things about the world, I usually believe them.",Highly disagree,66/94,Somewhat disagree,2,1708008254895,1708008258587,\Somewhat disagree\,\Somewhat disagree\,\2\,1708008258297,1708008258297,3402,3402,3692,buq,qns-item-noham,66,285586,0.0-1.0-0.65,65ce21fdc91222bcb97d4c16,AWAITING REVIEW,2024-02-15T14:39:16.266000Z,2024-02-15T14:46:10.025000Z,,2024-02-15T14:46:10.705094Z,414.0,CVPIIDEI,4918,30,Male,White,United States,United States,United States,English,DATA_EXPIRED,Due to start a new job within the next month,Not Applicable
5748077a5e5491000e3bf711,"<b>If a friend does something that upsets me, it reminds me what an unpredictable place the world is.",Highly disagree,67/94,Somewhat agree,3,1708008258588,1708008262676,\Somewhat agree\,\Somewhat agree\,\3\,1708008262300,1708008262300,3712,3712,4088,buq,qns-item-noham,67,289675,0.0-1.0-0.66,65ce21fdc91222bcb97d4c16,AWAITING REVIEW,2024-02-15T14:39:16.266000Z,2024-02-15T14:46:10.025000Z,,2024-02-15T14:46:10.705094Z,414.0,CVPIIDEI,4918,30,Male,White,United States,United States,United States,English,DATA_EXPIRED,Due to start a new job within the next month,Not Applicable
5748077a5e5491000e3bf711,<b>People tend to believe whatever is good for their friends.,Highly disagree,68/94,Somewhat agree,3,1708008262677,1708008265583,\Somewhat agree\,\Somewhat agree\,\3\,1708008265076,1708008265076,2399,2399,2906,buq,qns-item-noham,68,292582,0.0-1.0-0.67,65ce21fdc91222bcb97d4c16,AWAITING REVIEW,2024-02-15T14:39:16.266000Z,2024-02-15T14:46:10.025000Z,,2024-02-15T14:46:10.705094Z,414.0,CVPIIDEI,4918,30,Male,White,United States,United States,United States,English,DATA_EXPIRED,Due to start a new job within the next month,Not Applicable
5748077a5e5491000e3bf711,<b>I used to be more certain my beliefs were true.,Highly disagree,69/94,Highly agree,4,1708008265584,1708008268229,\Highly agree\,\Highly agree\,\4\,1708008267679,1708008267679,2095,2095,2645,buq,qns-item-noham,69,295228,0.0-1.0-0.68,65ce21fdc91222bcb97d4c16,AWAITING REVIEW,2024-02-15T14:39:16.266000Z,2024-02-15T14:46:10.025000Z,,2024-02-15T14:46:10.705094Z,414.0,CVPIIDEI,4918,30,Male,White,United States,United States,United States,English,DATA_EXPIRED,Due to start a new job within the next month,Not Applicable
5748077a5e5491000e3bf711,<b>It?s often pretty easy to figure out whether something is true based on who said it.,Highly disagree,70/94,Somewhat disagree,2,1708008268230,1708008273426,\Somewhat agree\,\Somewhat disagree\,\3\,1708008271866,1708008273134,3636,4904,5196,buq,qns-item-noham,70,300425,0.0-1.0-0.69,65ce21fdc91222bcb97d4c16,AWAITING REVIEW,2024-02-15T14:39:16.266000Z,2024-02-15T14:46:10.025000Z,,2024-02-15T14:46:10.705094Z,414.0,CVPIIDEI,4918,30,Male,White,United States,United States,United States,English,DATA_EXPIRED,Due to start a new job within the next month,Not Applicable
5748077a5e5491000e3bf711,<b>I transform into a hummingbird every day.,Highly disagree,71/94,Highly disagree,1,1708008273427,1708008277586,\Highly disagree\,\Highly disagree\,\1\,1708008276893,1708008276893,3466,3466,4159,buq,qns-item-noham,71,304585,0.0-1.0-0.70,65ce21fdc91222bcb97d4c16,AWAITING REVIEW,2024-02-15T14:39:16.266000Z,2024-02-15T14:46:10.025000Z,,2024-02-15T14:46:10.705094Z,414.0,CVPIIDEI,4918,30,Male,White,United States,United States,United States,English,DATA_EXPIRED,Due to start a new job within the next month,Not Applicable
5748077a5e5491000e3bf711,<b>I think a lot about arguments against my views.,Highly disagree,72/94,Somewhat agree,3,1708008277587,1708008280244,\Somewhat agree\,\Somewhat agree\,\3\,1708008279914,1708008279914,2327,2327,2657,buq,qns-item-noham,72,307243,0.0-1.0-0.71,65ce21fdc91222bcb97d4c16,AWAITING REVIEW,2024-02-15T14:39:16.266000Z,2024-02-15T14:46:10.025000Z,,2024-02-15T14:46:10.705094Z,414.0,CVPIIDEI,4918,30,Male,White,United States,United States,United States,English,DATA_EXPIRED,Due to start a new job within the next month,Not Applicable
5748077a5e5491000e3bf711,<b>Personal experience is usually more important than facts and figures.,Highly disagree,73/94,Somewhat disagree,2,1708008280245,1708008283684,\Highly disagree\,\Somewhat disagree\,\1\,1708008282326,1708008283240,2081,2995,3439,buq,qns-item-noham,73,310683,0.0-1.0-0.72,65ce21fdc91222bcb97d4c16,AWAITING REVIEW,2024-02-15T14:39:16.266000Z,2024-02-15T14:46:10.025000Z,,2024-02-15T14:46:10.705094Z,414.0,CVPIIDEI,4918,30,Male,White,United States,United States,United States,English,DATA_EXPIRED,Due to start a new job within the next month,Not Applicable
5748077a5e5491000e3bf711,<b>I?ve been tricked before about important matters.,Highly disagree,74/94,Highly agree,4,1708008283685,1708008287158,\Somewhat agree\,\Highly agree\,\3\,1708008286230,1708008286842,2545,3157,3473,buq,qns-item-noham,74,314157,0.0-1.0-0.73,65ce21fdc91222bcb97d4c16,AWAITING REVIEW,2024-02-15T14:39:16.266000Z,2024-02-15T14:46:10.025000Z,,2024-02-15T14:46:10.705094Z,414.0,CVPIIDEI,4918,30,Male,White,United States,United States,United States,English,DATA_EXPIRED,Due to start a new job within the next month,Not Applicable
5748077a5e5491000e3bf711,<b>I would need to be totally wowed if I were to change my opinion of a restaurant I don?t like.,Highly disagree,75/94,Somewhat agree,3,1708008287159,1708008291335,\Somewhat agree\,\Somewhat agree\,\3\,1708008291013,1708008291013,3854,3854,4176,buq,qns-item-noham,75,318334,0.0-1.0-0.74,65ce21fdc91222bcb97d4c16,AWAITING REVIEW,2024-02-15T14:39:16.266000Z,2024-02-15T14:46:10.025000Z,,2024-02-15T14:46:10.705094Z,414.0,CVPIIDEI,4918,30,Male,White,United States,United States,United States,English,DATA_EXPIRED,Due to start a new job within the next month,Not Applicable
5748077a5e5491000e3bf711,<b>I care a lot about politics.,Highly disagree,76/94,Highly disagree,1,1708008291336,1708008292869,\Highly disagree\,\Highly disagree\,\1\,1708008292463,1708008292463,1127,1127,1533,buq,qns-item-noham,76,319868,0.0-1.0-0.75,65ce21fdc91222bcb97d4c16,AWAITING REVIEW,2024-02-15T14:39:16.266000Z,2024-02-15T14:46:10.025000Z,,2024-02-15T14:46:10.705094Z,414.0,CVPIIDEI,4918,30,Male,White,United States,United States,United States,English,DATA_EXPIRED,Due to start a new job within the next month,Not Applicable
5748077a5e5491000e3bf711,<b>There are some topics I?ve been really wrong about.,Highly disagree,77/94,Somewhat agree,3,1708008292870,1708008295662,\Somewhat agree\,\Somewhat agree\,\3\,1708008295349,1708008295349,2479,2479,2792,buq,qns-item-noham,77,322661,0.0-1.0-0.76,65ce21fdc91222bcb97d4c16,AWAITING REVIEW,2024-02-15T14:39:16.266000Z,2024-02-15T14:46:10.025000Z,,2024-02-15T14:46:10.705094Z,414.0,CVPIIDEI,4918,30,Male,White,United States,United States,United States,English,DATA_EXPIRED,Due to start a new job within the next month,Not Applicable
5748077a5e5491000e3bf711,<b>Most beliefs can be supported with at least some evidence.,Highly disagree,78/94,Somewhat agree,3,1708008295664,1708008301760,\Somewhat agree\,\Somewhat agree\,\3\,1708008301227,1708008301227,5563,5563,6096,buq,qns-item-noham,78,328759,0.0-1.0-0.77,65ce21fdc91222bcb97d4c16,AWAITING REVIEW,2024-02-15T14:39:16.266000Z,2024-02-15T14:46:10.025000Z,,2024-02-15T14:46:10.705094Z,414.0,CVPIIDEI,4918,30,Male,White,United States,United States,United States,English,DATA_EXPIRED,Due to start a new job within the next month,Not Applicable
5748077a5e5491000e3bf711,<b>Other people make life out to be more complicated than it really is.,Highly disagree,79/94,Highly disagree,1,1708008301762,1708008305718,\Highly disagree\,\Highly disagree\,\1\,1708008305108,1708008305108,3346,3346,3956,buq,qns-item-noham,79,332717,0.0-1.0-0.78,65ce21fdc91222bcb97d4c16,AWAITING REVIEW,2024-02-15T14:39:16.266000Z,2024-02-15T14:46:10.025000Z,,2024-02-15T14:46:10.705094Z,414.0,CVPIIDEI,4918,30,Male,White,United States,United States,United States,English,DATA_EXPIRED,Due to start a new job within the next month,Not Applicable
5748077a5e5491000e3bf711,"<b>Policy details don?t matter much, just the big picture.",Highly disagree,80/94,Somewhat disagree,2,1708008305719,1708008309947,\Somewhat agree\,\Somewhat disagree\,\3\,1708008308145,1708008309289,2426,3570,4228,buq,qns-item-noham,80,336946,0.0-1.0-0.79,65ce21fdc91222bcb97d4c16,AWAITING REVIEW,2024-02-15T14:39:16.266000Z,2024-02-15T14:46:10.025000Z,,2024-02-15T14:46:10.705094Z,414.0,CVPIIDEI,4918,30,Male,White,United States,United States,United States,English,DATA_EXPIRED,Due to start a new job within the next month,Not Applicable
5748077a5e5491000e3bf711,<b>I know my friends so well they can hardly ever surprise me.,Highly disagree,81/94,Highly disagree,1,1708008309948,1708008312765,\Highly disagree\,\Highly disagree\,\1\,1708008312443,1708008312443,2495,2495,2817,buq,qns-item-noham,81,339764,0.0-1.0-0.80,65ce21fdc91222bcb97d4c16,AWAITING REVIEW,2024-02-15T14:39:16.266000Z,2024-02-15T14:46:10.025000Z,,2024-02-15T14:46:10.705094Z,414.0,CVPIIDEI,4918,30,Male,White,United States,United States,United States,English,DATA_EXPIRED,Due to start a new job within the next month,Not Applicable
5748077a5e5491000e3bf711,<b>I do not often change my views on people.,Highly disagree,82/94,Somewhat agree,3,1708008312767,1708008315803,\Somewhat agree\,\Somewhat agree\,\3\,1708008315501,1708008315501,2734,2734,3036,buq,qns-item-noham,82,342802,0.0-1.0-0.81,65ce21fdc91222bcb97d4c16,AWAITING REVIEW,2024-02-15T14:39:16.266000Z,2024-02-15T14:46:10.025000Z,,2024-02-15T14:46:10.705094Z,414.0,CVPIIDEI,4918,30,Male,White,United States,United States,United States,English,DATA_EXPIRED,Due to start a new job within the next month,Not Applicable
5748077a5e5491000e3bf711,<b>I?m more certain about my beliefs than I used to be.,Highly disagree,83/94,Somewhat agree,3,1708008315804,1708008318423,\Somewhat agree\,\Somewhat agree\,\3\,1708008318096,1708008318096,2292,2292,2619,buq,qns-item-noham,83,345422,0.0-1.0-0.82,65ce21fdc91222bcb97d4c16,AWAITING REVIEW,2024-02-15T14:39:16.266000Z,2024-02-15T14:46:10.025000Z,,2024-02-15T14:46:10.705094Z,414.0,CVPIIDEI,4918,30,Male,White,United States,United States,United States,English,DATA_EXPIRED,Due to start a new job within the next month,Not Applicable
5748077a5e5491000e3bf711,<b>People often tell falsehoods unintentionally.,Highly disagree,84/94,Somewhat agree,3,1708008318424,1708008321244,\Somewhat agree\,\Somewhat agree\,\3\,1708008320980,1708008320980,2556,2556,2820,buq,qns-item-noham,84,348243,0.0-1.0-0.83,65ce21fdc91222bcb97d4c16,AWAITING REVIEW,2024-02-15T14:39:16.266000Z,2024-02-15T14:46:10.025000Z,,2024-02-15T14:46:10.705094Z,414.0,CVPIIDEI,4918,30,Male,White,United States,United States,United States,English,DATA_EXPIRED,Due to start a new job within the next month,Not Applicable
5748077a5e5491000e3bf711,<b>Most people don?t know much about most things.,Highly disagree,85/94,Highly agree,4,1708008321245,1708008326621,\Highly agree\,\Highly agree\,\4\,1708008326295,1708008326295,5050,5050,5376,buq,qns-item-noham,85,353620,0.0-1.0-0.84,65ce21fdc91222bcb97d4c16,AWAITING REVIEW,2024-02-15T14:39:16.266000Z,2024-02-15T14:46:10.025000Z,,2024-02-15T14:46:10.705094Z,414.0,CVPIIDEI,4918,30,Male,White,United States,United States,United States,English,DATA_EXPIRED,Due to start a new job within the next month,Not Applicable
5748077a5e5491000e3bf711,"<b>If I find out something new about someone, I easily change my views about them.",Highly disagree,86/94,Somewhat disagree,2,1708008326622,1708008331592,\Somewhat disagree\,\Somewhat disagree\,\2\,1708008331170,1708008331170,4548,4548,4970,buq,qns-item-noham,86,358591,0.0-1.0-0.85,65ce21fdc91222bcb97d4c16,AWAITING REVIEW,2024-02-15T14:39:16.266000Z,2024-02-15T14:46:10.025000Z,,2024-02-15T14:46:10.705094Z,414.0,CVPIIDEI,4918,30,Male,White,United States,United States,United States,English,DATA_EXPIRED,Due to start a new job within the next month,Not Applicable
5748077a5e5491000e3bf711,<b>Having true beliefs is difficult.,Highly disagree,87/94,Somewhat agree,3,1708008331594,1708008333738,\Somewhat agree\,\Somewhat agree\,\3\,1708008333397,1708008333397,1803,1803,2144,buq,qns-item-noham,87,360737,0.0-1.0-0.86,65ce21fdc91222bcb97d4c16,AWAITING REVIEW,2024-02-15T14:39:16.266000Z,2024-02-15T14:46:10.025000Z,,2024-02-15T14:46:10.705094Z,414.0,CVPIIDEI,4918,30,Male,White,United States,United States,United States,English,DATA_EXPIRED,Due to start a new job within the next month,Not Applicable
5748077a5e5491000e3bf711,<b>I don?t try new foods since I know I won?t like them.,Highly disagree,88/94,Highly disagree,1,1708008333739,1708008336233,\Highly disagree\,\Highly disagree\,\1\,1708008335853,1708008335853,2114,2114,2494,buq,qns-item-noham,88,363232,0.0-1.0-0.87,65ce21fdc91222bcb97d4c16,AWAITING REVIEW,2024-02-15T14:39:16.266000Z,2024-02-15T14:46:10.025000Z,,2024-02-15T14:46:10.705094Z,414.0,CVPIIDEI,4918,30,Male,White,United States,United States,United States,English,DATA_EXPIRED,Due to start a new job within the next month,Not Applicable
5748077a5e5491000e3bf711,<b>Other people trick each other a lot.,Highly disagree,89/94,Somewhat agree,3,1708008336234,1708008338186,\Somewhat agree\,\Somewhat agree\,\3\,1708008337861,1708008337861,1627,1627,1952,buq,qns-item-noham,89,365185,0.0-1.0-0.88,65ce21fdc91222bcb97d4c16,AWAITING REVIEW,2024-02-15T14:39:16.266000Z,2024-02-15T14:46:10.025000Z,,2024-02-15T14:46:10.705094Z,414.0,CVPIIDEI,4918,30,Male,White,United States,United States,United States,English,DATA_EXPIRED,Due to start a new job within the next month,Not Applicable
5748077a5e5491000e3bf711,<b>I would need to learn a lot about a person for my opinion of them to be swayed.,Highly disagree,90/94,Somewhat agree,3,1708008338187,1708008341574,\Somewhat agree\,\Somewhat agree\,\3\,1708008341261,1708008341261,3074,3074,3387,buq,qns-item-noham,90,368573,0.0-1.0-0.89,65ce21fdc91222bcb97d4c16,AWAITING REVIEW,2024-02-15T14:39:16.266000Z,2024-02-15T14:46:10.025000Z,,2024-02-15T14:46:10.705094Z,414.0,CVPIIDEI,4918,30,Male,White,United States,United States,United States,English,DATA_EXPIRED,Due to start a new job within the next month,Not Applicable
5748077a5e5491000e3bf711,<b>People can?t usually trick me when it comes to topics I care about.,Highly disagree,91/94,Somewhat agree,3,1708008341575,1708008345345,\Somewhat agree\,\Somewhat agree\,\3\,1708008344926,1708008344926,3351,3351,3770,buq,qns-item-noham,91,372344,0.0-1.0-0.90,65ce21fdc91222bcb97d4c16,AWAITING REVIEW,2024-02-15T14:39:16.266000Z,2024-02-15T14:46:10.025000Z,,2024-02-15T14:46:10.705094Z,414.0,CVPIIDEI,4918,30,Male,White,United States,United States,United States,English,DATA_EXPIRED,Due to start a new job within the next month,Not Applicable
5748077a5e5491000e3bf711,<b>I do not often change my views on food.,Highly disagree,92/94,Somewhat disagree,2,1708008345346,1708008348770,\Somewhat disagree\,\Somewhat disagree\,\2\,1708008348430,1708008348430,3084,3084,3424,buq,qns-item-noham,92,375769,0.0-1.0-0.91,65ce21fdc91222bcb97d4c16,AWAITING REVIEW,2024-02-15T14:39:16.266000Z,2024-02-15T14:46:10.025000Z,,2024-02-15T14:46:10.705094Z,414.0,CVPIIDEI,4918,30,Male,White,United States,United States,United States,English,DATA_EXPIRED,Due to start a new job within the next month,Not Applicable
5748077a5e5491000e3bf711,<b>Specific policies are often very important to me.,Highly disagree,93/94,Somewhat agree,3,1708008348771,1708008352552,\Somewhat disagree\,\Somewhat agree\,\2\,1708008352009,1708008352318,3238,3547,3781,buq,qns-item-noham,93,379551,0.0-1.0-0.92,65ce21fdc91222bcb97d4c16,AWAITING REVIEW,2024-02-15T14:39:16.266000Z,2024-02-15T14:46:10.025000Z,,2024-02-15T14:46:10.705094Z,414.0,CVPIIDEI,4918,30,Male,White,United States,United States,United States,English,DATA_EXPIRED,Due to start a new job within the next month,Not Applicable
5748077a5e5491000e3bf711,<b>Most people are woefully under-informed.,Highly disagree,94/94,Highly agree,4,1708008352553,1708008354498,\Highly agree\,\Highly agree\,\4\,1708008354209,1708008354209,1656,1656,1945,buq,qns-item-noham,94,381497,0.0-1.0-0.93,65ce21fdc91222bcb97d4c16,AWAITING REVIEW,2024-02-15T14:39:16.266000Z,2024-02-15T14:46:10.025000Z,,2024-02-15T14:46:10.705094Z,414.0,CVPIIDEI,4918,30,Male,White,United States,United States,United States,English,DATA_EXPIRED,Due to start a new job within the next month,Not Applicable
5748077a5e5491000e3bf711,,,,,,,,,,,,,,,,,,,,,65ce21fdc91222bcb97d4c16,AWAITING REVIEW,2024-02-15T14:39:16.266000Z,2024-02-15T14:46:10.025000Z,,2024-02-15T14:46:10.705094Z,414.0,CVPIIDEI,4918,30,Male,White,United States,United States,United States,English,DATA_EXPIRED,Due to start a new job within the next month,Not Applicable
