PROLIFIC_PID,Question,qns_options,quest_num,answer,answer_num,question_load_timestamp,next_btn_timestamp,text_selected,final_text_selected,option_num_selected,preview_timestamps,final_text_selected_time_stamp,rt_first_option_click,rt_final_option_click,rt_submit_click,questionnaire,trial_type,trial_index,time_elapsed,internal_node_id,Demographic_Submission id,Demographic_Status,Demographic_Started at,Demographic_Completed at,Demographic_Reviewed at,Demographic_Archived at,Demographic_Time taken,Demographic_Completion code,Demographic_Total approvals,Demographic_Age,Demographic_Sex,Demographic_Ethnicity simplified,Demographic_Country of birth,Demographic_Country of residence,Demographic_Nationality,Demographic_Language,Demographic_Student status,Demographic_Employment status,Demographic_Custom study tncs accepted at
652c1127ce21a1fecfc05fbc,<b>Knowing what?s true and knowing what to do about it are usually basically the same.,Highly disagree,1/94,Somewhat agree,3,1708008927278,1708008947260,\Somewhat agree\,\Somewhat agree\,\3\,1708008946115,1708008946115,18837,18837,19982,buq,qns-item-noham,1,48370,0.0-1.0-0.0,65ce2182c3acaed2024fd267,AWAITING REVIEW,2024-02-15T14:38:24.082000Z,2024-02-15T15:14:35.159000Z,,2024-02-15T15:14:35.798501Z,2172.0,CVPIIDEI,509,36,Male,Black,Nigeria,United States,United States,English,DATA_EXPIRED,Full-Time,Not Applicable
652c1127ce21a1fecfc05fbc,<b>Most people just believe whatever is convenient for them.,Highly disagree,2/94,Highly agree,4,1708008947264,1708008953036,\Highly agree\,\Highly agree\,\4\,1708008951501,1708008951501,4237,4237,5772,buq,qns-item-noham,2,54146,0.0-1.0-0.1,65ce2182c3acaed2024fd267,AWAITING REVIEW,2024-02-15T14:38:24.082000Z,2024-02-15T15:14:35.159000Z,,2024-02-15T15:14:35.798501Z,2172.0,CVPIIDEI,509,36,Male,Black,Nigeria,United States,United States,English,DATA_EXPIRED,Full-Time,Not Applicable
652c1127ce21a1fecfc05fbc,<b>Having some big beliefs helps me sort out minor ones.,Highly disagree,3/94,Highly agree,4,1708008953037,1708008961283,\Highly agree\,\Highly agree\,\4\,1708008958165,1708008958165,5128,5128,8246,buq,qns-item-noham,3,62393,0.0-1.0-0.2,65ce2182c3acaed2024fd267,AWAITING REVIEW,2024-02-15T14:38:24.082000Z,2024-02-15T15:14:35.159000Z,,2024-02-15T15:14:35.798501Z,2172.0,CVPIIDEI,509,36,Male,Black,Nigeria,United States,United States,English,DATA_EXPIRED,Full-Time,Not Applicable
652c1127ce21a1fecfc05fbc,<b>Political questions are usually pretty complicated.,Highly disagree,4/94,Highly agree,4,1708008961287,1708008972131,\Highly agree\,\Highly agree\,\4\,1708008966132,1708008966132,4845,4845,10844,buq,qns-item-noham,4,73242,0.0-1.0-0.3,65ce2182c3acaed2024fd267,AWAITING REVIEW,2024-02-15T14:38:24.082000Z,2024-02-15T15:14:35.159000Z,,2024-02-15T15:14:35.798501Z,2172.0,CVPIIDEI,509,36,Male,Black,Nigeria,United States,United States,English,DATA_EXPIRED,Full-Time,Not Applicable
652c1127ce21a1fecfc05fbc,<b>Figuring out what?s important in life requires learning a lot of facts.,Highly disagree,5/94,Highly agree,4,1708008972136,1708008993908,\Highly agree\,\Highly agree\,\4\,1708008992646,1708008992646,20510,20510,21772,buq,qns-item-noham,5,95019,0.0-1.0-0.4,65ce2182c3acaed2024fd267,AWAITING REVIEW,2024-02-15T14:38:24.082000Z,2024-02-15T15:14:35.159000Z,,2024-02-15T15:14:35.798501Z,2172.0,CVPIIDEI,509,36,Male,Black,Nigeria,United States,United States,English,DATA_EXPIRED,Full-Time,Not Applicable
652c1127ce21a1fecfc05fbc,<b>It is difficult for me to remember the last time I was surprised by politics.,Highly disagree,6/94,Highly disagree,1,1708008993912,1708009001906,\Highly disagree\,\Highly disagree\,\1\,1708009000177,1708009000177,6265,6265,7994,buq,qns-item-noham,6,103016,0.0-1.0-0.5,65ce2182c3acaed2024fd267,AWAITING REVIEW,2024-02-15T14:38:24.082000Z,2024-02-15T15:14:35.159000Z,,2024-02-15T15:14:35.798501Z,2172.0,CVPIIDEI,509,36,Male,Black,Nigeria,United States,United States,English,DATA_EXPIRED,Full-Time,Not Applicable
652c1127ce21a1fecfc05fbc,<b>People?s false beliefs are understandable.,Highly disagree,7/94,Somewhat agree,3,1708009001907,1708009018296,\Somewhat agree\,\Somewhat agree\,\3\,1708009017122,1708009017122,15215,15215,16389,buq,qns-item-noham,7,119406,0.0-1.0-0.6,65ce2182c3acaed2024fd267,AWAITING REVIEW,2024-02-15T14:38:24.082000Z,2024-02-15T15:14:35.159000Z,,2024-02-15T15:14:35.798501Z,2172.0,CVPIIDEI,509,36,Male,Black,Nigeria,United States,United States,English,DATA_EXPIRED,Full-Time,Not Applicable
652c1127ce21a1fecfc05fbc,<b>I spend a lot of time trying to be informed about politics.,Highly disagree,8/94,Somewhat agree,3,1708009018298,1708009025305,\Somewhat agree\,\Somewhat agree\,\3\,1708009023921,1708009023921,5623,5623,7007,buq,qns-item-noham,8,126415,0.0-1.0-0.7,65ce2182c3acaed2024fd267,AWAITING REVIEW,2024-02-15T14:38:24.082000Z,2024-02-15T15:14:35.159000Z,,2024-02-15T15:14:35.798501Z,2172.0,CVPIIDEI,509,36,Male,Black,Nigeria,United States,United States,English,DATA_EXPIRED,Full-Time,Not Applicable
652c1127ce21a1fecfc05fbc,<b>I think a lot about whether my beliefs are right.,Highly disagree,9/94,Highly agree,4,1708009025307,1708009029971,\Highly agree\,\Highly agree\,\4\,1708009028737,1708009028737,3430,3430,4664,buq,qns-item-noham,9,131081,0.0-1.0-0.8,65ce2182c3acaed2024fd267,AWAITING REVIEW,2024-02-15T14:38:24.082000Z,2024-02-15T15:14:35.159000Z,,2024-02-15T15:14:35.798501Z,2172.0,CVPIIDEI,509,36,Male,Black,Nigeria,United States,United States,English,DATA_EXPIRED,Full-Time,Not Applicable
652c1127ce21a1fecfc05fbc,<b>Statistics can be pretty misleading sometimes.,Highly disagree,10/94,Somewhat disagree,2,1708009029974,1708009037289,\Somewhat disagree\,\Somewhat disagree\,\2\,1708009035888,1708009035888,5914,5914,7315,buq,qns-item-noham,10,138400,0.0-1.0-0.9,65ce2182c3acaed2024fd267,AWAITING REVIEW,2024-02-15T14:38:24.082000Z,2024-02-15T15:14:35.159000Z,,2024-02-15T15:14:35.798501Z,2172.0,CVPIIDEI,509,36,Male,Black,Nigeria,United States,United States,English,DATA_EXPIRED,Full-Time,Not Applicable
652c1127ce21a1fecfc05fbc,<b>I have lots of beliefs that I?m only sort of sure about.,Highly disagree,11/94,Somewhat agree,3,1708009037293,1708009044403,\Somewhat agree\,\Somewhat agree\,\3\,1708009043289,1708009043289,5996,5996,7110,buq,qns-item-noham,11,145513,0.0-1.0-0.10,65ce2182c3acaed2024fd267,AWAITING REVIEW,2024-02-15T14:38:24.082000Z,2024-02-15T15:14:35.159000Z,,2024-02-15T15:14:35.798501Z,2172.0,CVPIIDEI,509,36,Male,Black,Nigeria,United States,United States,English,DATA_EXPIRED,Full-Time,Not Applicable
652c1127ce21a1fecfc05fbc,"<b>If I go to my favorite restaurant and the food is surprisingly bad, it reminds me there are many disappointments in life.",Highly disagree,12/94,Highly agree,4,1708009044404,1708009057767,\Highly agree\,\Highly agree\,\4\,1708009056458,1708009056458,12054,12054,13363,buq,qns-item-noham,12,158877,0.0-1.0-0.11,65ce2182c3acaed2024fd267,AWAITING REVIEW,2024-02-15T14:38:24.082000Z,2024-02-15T15:14:35.159000Z,,2024-02-15T15:14:35.798501Z,2172.0,CVPIIDEI,509,36,Male,Black,Nigeria,United States,United States,English,DATA_EXPIRED,Full-Time,Not Applicable
652c1127ce21a1fecfc05fbc,"<b>If you are paying attention, please select ?Somewhat agree?",Highly disagree,13/94,Somewhat agree,3,1708009057769,1708009066598,\Somewhat agree\,\Somewhat agree\,\3\,1708009064651,1708009064651,6882,6882,8829,buq,qns-item-noham,13,167708,0.0-1.0-0.12,65ce2182c3acaed2024fd267,AWAITING REVIEW,2024-02-15T14:38:24.082000Z,2024-02-15T15:14:35.159000Z,,2024-02-15T15:14:35.798501Z,2172.0,CVPIIDEI,509,36,Male,Black,Nigeria,United States,United States,English,DATA_EXPIRED,Full-Time,Not Applicable
652c1127ce21a1fecfc05fbc,"<b>When I talk to others, I often worry I?ll convince them of something I didn?t mean to.",Highly disagree,14/94,Somewhat agree,3,1708009066599,1708009080514,\Somewhat agree\,\Somewhat agree\,\3\,1708009074702,1708009074702,8103,8103,13915,buq,qns-item-noham,14,181624,0.0-1.0-0.13,65ce2182c3acaed2024fd267,AWAITING REVIEW,2024-02-15T14:38:24.082000Z,2024-02-15T15:14:35.159000Z,,2024-02-15T15:14:35.798501Z,2172.0,CVPIIDEI,509,36,Male,Black,Nigeria,United States,United States,English,DATA_EXPIRED,Full-Time,Not Applicable
652c1127ce21a1fecfc05fbc,<b>I would need to learn something utterly shocking about my party in order to change my political views.,Highly disagree,15/94,Highly agree,4,1708009080516,1708009088782,\Highly agree\,\Highly agree\,\4\,1708009087296,1708009087296,6780,6780,8266,buq,qns-item-noham,15,189892,0.0-1.0-0.14,65ce2182c3acaed2024fd267,AWAITING REVIEW,2024-02-15T14:38:24.082000Z,2024-02-15T15:14:35.159000Z,,2024-02-15T15:14:35.798501Z,2172.0,CVPIIDEI,509,36,Male,Black,Nigeria,United States,United States,English,DATA_EXPIRED,Full-Time,Not Applicable
652c1127ce21a1fecfc05fbc,"<b>When I have new experiences, I tend to think of them as unique.",Highly disagree,16/94,Highly agree,4,1708009088783,1708009094711,\Highly agree\,\Highly agree\,\4\,1708009093413,1708009093413,4630,4630,5928,buq,qns-item-noham,16,195821,0.0-1.0-0.15,65ce2182c3acaed2024fd267,AWAITING REVIEW,2024-02-15T14:38:24.082000Z,2024-02-15T15:14:35.159000Z,,2024-02-15T15:14:35.798501Z,2172.0,CVPIIDEI,509,36,Male,Black,Nigeria,United States,United States,English,DATA_EXPIRED,Full-Time,Not Applicable
652c1127ce21a1fecfc05fbc,<b>I change my mind about specific policies pretty frequently.,Highly disagree,17/94,Somewhat agree,3,1708009094713,1708009102795,\Somewhat agree\,\Somewhat agree\,\3\,1708009101546,1708009101546,6833,6833,8082,buq,qns-item-noham,17,203905,0.0-1.0-0.16,65ce2182c3acaed2024fd267,AWAITING REVIEW,2024-02-15T14:38:24.082000Z,2024-02-15T15:14:35.159000Z,,2024-02-15T15:14:35.798501Z,2172.0,CVPIIDEI,509,36,Male,Black,Nigeria,United States,United States,English,DATA_EXPIRED,Full-Time,Not Applicable
652c1127ce21a1fecfc05fbc,"<b>If a politician in my political party supports something I disagree with, I give them the benefit of the doubt, as such issues often involve hidden complexities that aren?t obvious.   ",Highly disagree,18/94,Somewhat agree,3,1708009102798,1708009114645,\Somewhat agree\,\Somewhat agree\,\3\,1708009113430,1708009113430,10632,10632,11847,buq,qns-item-noham,18,215756,0.0-1.0-0.17,65ce2182c3acaed2024fd267,AWAITING REVIEW,2024-02-15T14:38:24.082000Z,2024-02-15T15:14:35.159000Z,,2024-02-15T15:14:35.798501Z,2172.0,CVPIIDEI,509,36,Male,Black,Nigeria,United States,United States,English,DATA_EXPIRED,Full-Time,Not Applicable
652c1127ce21a1fecfc05fbc,<b>People?s bad politics are usually motivated by hatefulness.,Highly disagree,19/94,Somewhat disagree,2,1708009114648,1708009125129,\Somewhat disagree\,\Somewhat disagree\,\2\,1708009122438,1708009122912,7790,8264,10481,buq,qns-item-noham,19,226239,0.0-1.0-0.18,65ce2182c3acaed2024fd267,AWAITING REVIEW,2024-02-15T14:38:24.082000Z,2024-02-15T15:14:35.159000Z,,2024-02-15T15:14:35.798501Z,2172.0,CVPIIDEI,509,36,Male,Black,Nigeria,United States,United States,English,DATA_EXPIRED,Full-Time,Not Applicable
652c1127ce21a1fecfc05fbc,<b>I think a lot about how to reconcile my beliefs with one another.,Highly disagree,20/94,Somewhat agree,3,1708009125131,1708009131625,\Somewhat agree\,\Somewhat agree\,\3\,1708009130444,1708009130444,5313,5313,6494,buq,qns-item-noham,20,232735,0.0-1.0-0.19,65ce2182c3acaed2024fd267,AWAITING REVIEW,2024-02-15T14:38:24.082000Z,2024-02-15T15:14:35.159000Z,,2024-02-15T15:14:35.798501Z,2172.0,CVPIIDEI,509,36,Male,Black,Nigeria,United States,United States,English,DATA_EXPIRED,Full-Time,Not Applicable
652c1127ce21a1fecfc05fbc,<b>I might have false beliefs about important topics.,Highly disagree,21/94,Highly disagree,1,1708009131628,1708009137443,\Highly disagree\,\Highly disagree\,\1\,1708009136008,1708009136008,4380,4380,5815,buq,qns-item-noham,21,238553,0.0-1.0-0.20,65ce2182c3acaed2024fd267,AWAITING REVIEW,2024-02-15T14:38:24.082000Z,2024-02-15T15:14:35.159000Z,,2024-02-15T15:14:35.798501Z,2172.0,CVPIIDEI,509,36,Male,Black,Nigeria,United States,United States,English,DATA_EXPIRED,Full-Time,Not Applicable
652c1127ce21a1fecfc05fbc,"<b>If a good friend of mine does something unexpected that upsets me, I feel like I don?t know them anymore.",Highly disagree,22/94,Somewhat agree,3,1708009137445,1708009151457,\Somewhat agree\,\Somewhat agree\,\3\,1708009150222,1708009150222,12777,12777,14012,buq,qns-item-noham,22,252567,0.0-1.0-0.21,65ce2182c3acaed2024fd267,AWAITING REVIEW,2024-02-15T14:38:24.082000Z,2024-02-15T15:14:35.159000Z,,2024-02-15T15:14:35.798501Z,2172.0,CVPIIDEI,509,36,Male,Black,Nigeria,United States,United States,English,DATA_EXPIRED,Full-Time,Not Applicable
652c1127ce21a1fecfc05fbc,<b>Other people?s beliefs are often incoherent.,Highly disagree,23/94,Highly disagree,1,1708009151459,1708009161971,\Highly disagree\,\Highly disagree\,\1\,1708009160640,1708009160640,9181,9181,10512,buq,qns-item-noham,23,263082,0.0-1.0-0.22,65ce2182c3acaed2024fd267,AWAITING REVIEW,2024-02-15T14:38:24.082000Z,2024-02-15T15:14:35.159000Z,,2024-02-15T15:14:35.798501Z,2172.0,CVPIIDEI,509,36,Male,Black,Nigeria,United States,United States,English,DATA_EXPIRED,Full-Time,Not Applicable
652c1127ce21a1fecfc05fbc,"<b>Every now and then, a new experience will unsettle beliefs I?ve had for a while.",Highly disagree,24/94,Somewhat disagree,2,1708009161975,1708009174985,\Somewhat disagree\,\Somewhat disagree\,\2\,1708009173570,1708009173570,11595,11595,13010,buq,qns-item-noham,24,276095,0.0-1.0-0.23,65ce2182c3acaed2024fd267,AWAITING REVIEW,2024-02-15T14:38:24.082000Z,2024-02-15T15:14:35.159000Z,,2024-02-15T15:14:35.798501Z,2172.0,CVPIIDEI,509,36,Male,Black,Nigeria,United States,United States,English,DATA_EXPIRED,Full-Time,Not Applicable
652c1127ce21a1fecfc05fbc,<b>Some policies I agree with in principle are so bad I don?t support them. ,Highly disagree,25/94,Somewhat agree,3,1708009174988,1708009182388,\Somewhat agree\,\Somewhat agree\,\3\,1708009181220,1708009181220,6232,6232,7400,buq,qns-item-noham,25,283498,0.0-1.0-0.24,65ce2182c3acaed2024fd267,AWAITING REVIEW,2024-02-15T14:38:24.082000Z,2024-02-15T15:14:35.159000Z,,2024-02-15T15:14:35.798501Z,2172.0,CVPIIDEI,509,36,Male,Black,Nigeria,United States,United States,English,DATA_EXPIRED,Full-Time,Not Applicable
652c1127ce21a1fecfc05fbc,<b>I?m pretty sure I?ve accidentally spread false information.,Highly disagree,26/94,Somewhat agree,3,1708009182390,1708009188069,\Somewhat agree\,\Somewhat agree\,\3\,1708009186893,1708009186893,4503,4503,5679,buq,qns-item-noham,26,289179,0.0-1.0-0.25,65ce2182c3acaed2024fd267,AWAITING REVIEW,2024-02-15T14:38:24.082000Z,2024-02-15T15:14:35.159000Z,,2024-02-15T15:14:35.798501Z,2172.0,CVPIIDEI,509,36,Male,Black,Nigeria,United States,United States,English,DATA_EXPIRED,Full-Time,Not Applicable
652c1127ce21a1fecfc05fbc,"<b>If I go to my favorite restaurant and the food is unexpectedly bad, then they have changed owners.",Highly disagree,27/94,Highly disagree,1,1708009188072,1708009212150,\Highly disagree\,\Highly disagree\,\1\,1708009210868,1708009210868,22796,22796,24078,buq,qns-item-noham,27,313260,0.0-1.0-0.26,65ce2182c3acaed2024fd267,AWAITING REVIEW,2024-02-15T14:38:24.082000Z,2024-02-15T15:14:35.159000Z,,2024-02-15T15:14:35.798501Z,2172.0,CVPIIDEI,509,36,Male,Black,Nigeria,United States,United States,English,DATA_EXPIRED,Full-Time,Not Applicable
652c1127ce21a1fecfc05fbc,"<b>In politics, it?s important to trust your friends and family.",Highly disagree,28/94,Highly agree,4,1708009212151,1708009217631,\Highly agree\,\Highly agree\,\4\,1708009216418,1708009216418,4267,4267,5480,buq,qns-item-noham,28,318741,0.0-1.0-0.27,65ce2182c3acaed2024fd267,AWAITING REVIEW,2024-02-15T14:38:24.082000Z,2024-02-15T15:14:35.159000Z,,2024-02-15T15:14:35.798501Z,2172.0,CVPIIDEI,509,36,Male,Black,Nigeria,United States,United States,English,DATA_EXPIRED,Full-Time,Not Applicable
652c1127ce21a1fecfc05fbc,<b>It?s OK to have some conflicting beliefs.,Highly disagree,29/94,Somewhat agree,3,1708009217634,1708009222199,\Somewhat agree\,\Somewhat agree\,\3\,1708009220983,1708009220983,3349,3349,4565,buq,qns-item-noham,29,323309,0.0-1.0-0.28,65ce2182c3acaed2024fd267,AWAITING REVIEW,2024-02-15T14:38:24.082000Z,2024-02-15T15:14:35.159000Z,,2024-02-15T15:14:35.798501Z,2172.0,CVPIIDEI,509,36,Male,Black,Nigeria,United States,United States,English,DATA_EXPIRED,Full-Time,Not Applicable
652c1127ce21a1fecfc05fbc,<b>Listening to people I disagree with makes my opinions better.,Highly disagree,30/94,Highly disagree,1,1708009222201,1708009228966,\Highly disagree\,\Highly disagree\,\1\,1708009227696,1708009227696,5495,5495,6765,buq,qns-item-noham,30,330076,0.0-1.0-0.29,65ce2182c3acaed2024fd267,AWAITING REVIEW,2024-02-15T14:38:24.082000Z,2024-02-15T15:14:35.159000Z,,2024-02-15T15:14:35.798501Z,2172.0,CVPIIDEI,509,36,Male,Black,Nigeria,United States,United States,English,DATA_EXPIRED,Full-Time,Not Applicable
652c1127ce21a1fecfc05fbc,<b>My moral compass sometimes makes it harder to determine what?s true.,Highly disagree,31/94,Highly disagree,1,1708009228967,1708009236980,\Highly disagree\,\Highly disagree\,\1\,1708009235682,1708009235682,6715,6715,8013,buq,qns-item-noham,31,338090,0.0-1.0-0.30,65ce2182c3acaed2024fd267,AWAITING REVIEW,2024-02-15T14:38:24.082000Z,2024-02-15T15:14:35.159000Z,,2024-02-15T15:14:35.798501Z,2172.0,CVPIIDEI,509,36,Male,Black,Nigeria,United States,United States,English,DATA_EXPIRED,Full-Time,Not Applicable
652c1127ce21a1fecfc05fbc,<b>Evidence pointing in the wrong direction isn?t really evidence at all.,Highly disagree,32/94,Somewhat agree,3,1708009236982,1708009249293,\Somewhat agree\,\Somewhat agree\,\3\,1708009248144,1708009248144,11162,11162,12311,buq,qns-item-noham,32,350403,0.0-1.0-0.31,65ce2182c3acaed2024fd267,AWAITING REVIEW,2024-02-15T14:38:24.082000Z,2024-02-15T15:14:35.159000Z,,2024-02-15T15:14:35.798501Z,2172.0,CVPIIDEI,509,36,Male,Black,Nigeria,United States,United States,English,DATA_EXPIRED,Full-Time,Not Applicable
652c1127ce21a1fecfc05fbc,"<b>If the political party I support messes up, it makes me think politics is rotten.",Highly disagree,33/94,Somewhat agree,3,1708009249295,1708009257925,\Somewhat agree\,\Somewhat agree\,\3\,1708009256728,1708009256728,7433,7433,8630,buq,qns-item-noham,33,359035,0.0-1.0-0.32,65ce2182c3acaed2024fd267,AWAITING REVIEW,2024-02-15T14:38:24.082000Z,2024-02-15T15:14:35.159000Z,,2024-02-15T15:14:35.798501Z,2172.0,CVPIIDEI,509,36,Male,Black,Nigeria,United States,United States,English,DATA_EXPIRED,Full-Time,Not Applicable
652c1127ce21a1fecfc05fbc,<b>Lots of important topics can only really be understood by some groups of people.,Highly disagree,34/94,Highly agree,4,1708009257927,1708009267578,\Highly agree\,\Highly agree\,\4\,1708009265626,1708009265626,7699,7699,9651,buq,qns-item-noham,34,368688,0.0-1.0-0.33,65ce2182c3acaed2024fd267,AWAITING REVIEW,2024-02-15T14:38:24.082000Z,2024-02-15T15:14:35.159000Z,,2024-02-15T15:14:35.798501Z,2172.0,CVPIIDEI,509,36,Male,Black,Nigeria,United States,United States,English,DATA_EXPIRED,Full-Time,Not Applicable
652c1127ce21a1fecfc05fbc,<b>Having conflicting beliefs means you haven?t thought about them enough.,Highly disagree,35/94,Highly agree,4,1708009267580,1708009277422,\Highly agree\,\Highly agree\,\4\,1708009275793,1708009275793,8213,8213,9842,buq,qns-item-noham,35,378532,0.0-1.0-0.34,65ce2182c3acaed2024fd267,AWAITING REVIEW,2024-02-15T14:38:24.082000Z,2024-02-15T15:14:35.159000Z,,2024-02-15T15:14:35.798501Z,2172.0,CVPIIDEI,509,36,Male,Black,Nigeria,United States,United States,English,DATA_EXPIRED,Full-Time,Not Applicable
652c1127ce21a1fecfc05fbc,<b>I do not often change my political opinions.,Highly disagree,36/94,Somewhat agree,3,1708009277424,1708009283366,\Somewhat agree\,\Somewhat agree\,\3\,1708009282089,1708009282089,4665,4665,5942,buq,qns-item-noham,36,384476,0.0-1.0-0.35,65ce2182c3acaed2024fd267,AWAITING REVIEW,2024-02-15T14:38:24.082000Z,2024-02-15T15:14:35.159000Z,,2024-02-15T15:14:35.798501Z,2172.0,CVPIIDEI,509,36,Male,Black,Nigeria,United States,United States,English,DATA_EXPIRED,Full-Time,Not Applicable
652c1127ce21a1fecfc05fbc,<b>It?s difficult to not have at least some conflicting beliefs.,Highly disagree,37/94,Somewhat agree,3,1708009283372,1708009296420,\Somewhat agree\,\Somewhat agree\,\3\,1708009294986,1708009294986,11614,11614,13048,buq,qns-item-noham,37,397530,0.0-1.0-0.36,65ce2182c3acaed2024fd267,AWAITING REVIEW,2024-02-15T14:38:24.082000Z,2024-02-15T15:14:35.159000Z,,2024-02-15T15:14:35.798501Z,2172.0,CVPIIDEI,509,36,Male,Black,Nigeria,United States,United States,English,DATA_EXPIRED,Full-Time,Not Applicable
652c1127ce21a1fecfc05fbc,<b>Wishful thinking causes a lot of problems.,Highly disagree,38/94,Somewhat disagree,2,1708009296422,1708009315700,\Somewhat disagree\,\Somewhat disagree\,\2\,1708009314201,1708009314201,17779,17779,19278,buq,qns-item-noham,38,416810,0.0-1.0-0.37,65ce2182c3acaed2024fd267,AWAITING REVIEW,2024-02-15T14:38:24.082000Z,2024-02-15T15:14:35.159000Z,,2024-02-15T15:14:35.798501Z,2172.0,CVPIIDEI,509,36,Male,Black,Nigeria,United States,United States,English,DATA_EXPIRED,Full-Time,Not Applicable
652c1127ce21a1fecfc05fbc,<b>I judge a food item only once I try it many times.,Highly disagree,39/94,Highly agree,4,1708009315704,1708009327434,\Highly agree\,\Highly agree\,\4\,1708009326191,1708009326191,10487,10487,11730,buq,qns-item-noham,39,428544,0.0-1.0-0.38,65ce2182c3acaed2024fd267,AWAITING REVIEW,2024-02-15T14:38:24.082000Z,2024-02-15T15:14:35.159000Z,,2024-02-15T15:14:35.798501Z,2172.0,CVPIIDEI,509,36,Male,Black,Nigeria,United States,United States,English,DATA_EXPIRED,Full-Time,Not Applicable
652c1127ce21a1fecfc05fbc,"<b>When a person holds conflicting beliefs, they should really try to figure out what?s wrong.",Highly disagree,40/94,Somewhat agree,3,1708009327436,1708009334770,\Somewhat agree\,\Somewhat agree\,\3\,1708009333750,1708009333750,6314,6314,7334,buq,qns-item-noham,40,435880,0.0-1.0-0.39,65ce2182c3acaed2024fd267,AWAITING REVIEW,2024-02-15T14:38:24.082000Z,2024-02-15T15:14:35.159000Z,,2024-02-15T15:14:35.798501Z,2172.0,CVPIIDEI,509,36,Male,Black,Nigeria,United States,United States,English,DATA_EXPIRED,Full-Time,Not Applicable
652c1127ce21a1fecfc05fbc,<b>Knowing what?s important in life is easy.,Highly disagree,41/94,Highly agree,4,1708009334773,1708009343499,\Highly agree\,\Highly agree\,\4\,1708009342148,1708009342148,7375,7375,8726,buq,qns-item-noham,41,444609,0.0-1.0-0.40,65ce2182c3acaed2024fd267,AWAITING REVIEW,2024-02-15T14:38:24.082000Z,2024-02-15T15:14:35.159000Z,,2024-02-15T15:14:35.798501Z,2172.0,CVPIIDEI,509,36,Male,Black,Nigeria,United States,United States,English,DATA_EXPIRED,Full-Time,Not Applicable
652c1127ce21a1fecfc05fbc,<b>I swim across the Atlantic Ocean to get to work every day.,Highly disagree,42/94,Highly disagree,1,1708009343502,1708009350467,\Highly disagree\,\Highly disagree\,\1\,1708009348867,1708009348867,5365,5365,6965,buq,qns-item-noham,42,451577,0.0-1.0-0.41,65ce2182c3acaed2024fd267,AWAITING REVIEW,2024-02-15T14:38:24.082000Z,2024-02-15T15:14:35.159000Z,,2024-02-15T15:14:35.798501Z,2172.0,CVPIIDEI,509,36,Male,Black,Nigeria,United States,United States,English,DATA_EXPIRED,Full-Time,Not Applicable
652c1127ce21a1fecfc05fbc,"<b>Sometimes, you just have to ignore evidence that you know is wrong.",Highly disagree,43/94,Highly agree,4,1708009350469,1708009368928,\Highly disagree\,\Highly agree\,\1\,1708009359729,1708009361877,9260,11408,18459,buq,qns-item-noham,43,470038,0.0-1.0-0.42,65ce2182c3acaed2024fd267,AWAITING REVIEW,2024-02-15T14:38:24.082000Z,2024-02-15T15:14:35.159000Z,,2024-02-15T15:14:35.798501Z,2172.0,CVPIIDEI,509,36,Male,Black,Nigeria,United States,United States,English,DATA_EXPIRED,Full-Time,Not Applicable
652c1127ce21a1fecfc05fbc,<b>I have had some false beliefs.,Highly disagree,44/94,Somewhat agree,3,1708009368930,1708009375994,\Somewhat agree\,\Somewhat agree\,\3\,1708009374750,1708009374750,5820,5820,7064,buq,qns-item-noham,44,477104,0.0-1.0-0.43,65ce2182c3acaed2024fd267,AWAITING REVIEW,2024-02-15T14:38:24.082000Z,2024-02-15T15:14:35.159000Z,,2024-02-15T15:14:35.798501Z,2172.0,CVPIIDEI,509,36,Male,Black,Nigeria,United States,United States,English,DATA_EXPIRED,Full-Time,Not Applicable
652c1127ce21a1fecfc05fbc,"<b>If one friend does something that upsets me, I sometimes start to distrust people in general.",Highly disagree,45/94,Highly agree,4,1708009375996,1708009385142,\Highly agree\,\Highly agree\,\4\,1708009383759,1708009383759,7763,7763,9146,buq,qns-item-noham,45,486252,0.0-1.0-0.44,65ce2182c3acaed2024fd267,AWAITING REVIEW,2024-02-15T14:38:24.082000Z,2024-02-15T15:14:35.159000Z,,2024-02-15T15:14:35.798501Z,2172.0,CVPIIDEI,509,36,Male,Black,Nigeria,United States,United States,English,DATA_EXPIRED,Full-Time,Not Applicable
652c1127ce21a1fecfc05fbc,<b>The facts about most important matters are easy to find.,Highly disagree,46/94,Highly agree,4,1708009385144,1708009394440,\Somewhat agree\,\Highly agree\,\3\,1708009391395,1708009393077,6251,7933,9296,buq,qns-item-noham,46,495550,0.0-1.0-0.45,65ce2182c3acaed2024fd267,AWAITING REVIEW,2024-02-15T14:38:24.082000Z,2024-02-15T15:14:35.159000Z,,2024-02-15T15:14:35.798501Z,2172.0,CVPIIDEI,509,36,Male,Black,Nigeria,United States,United States,English,DATA_EXPIRED,Full-Time,Not Applicable
652c1127ce21a1fecfc05fbc,<b>It?s better to know what?s true than to know what?s moral.,Highly disagree,47/94,Highly agree,4,1708009394442,1708009404092,\Highly agree\,\Highly agree\,\4\,1708009402557,1708009402557,8115,8115,9650,buq,qns-item-noham,47,505203,0.0-1.0-0.46,65ce2182c3acaed2024fd267,AWAITING REVIEW,2024-02-15T14:38:24.082000Z,2024-02-15T15:14:35.159000Z,,2024-02-15T15:14:35.798501Z,2172.0,CVPIIDEI,509,36,Male,Black,Nigeria,United States,United States,English,DATA_EXPIRED,Full-Time,Not Applicable
652c1127ce21a1fecfc05fbc,<b>I used to think the world was less complicated than I do now.,Highly disagree,48/94,Somewhat agree,3,1708009404095,1708009427554,\Somewhat agree\,\Somewhat agree\,\3\,1708009426487,1708009426487,22392,22392,23459,buq,qns-item-noham,48,528665,0.0-1.0-0.47,65ce2182c3acaed2024fd267,AWAITING REVIEW,2024-02-15T14:38:24.082000Z,2024-02-15T15:14:35.159000Z,,2024-02-15T15:14:35.798501Z,2172.0,CVPIIDEI,509,36,Male,Black,Nigeria,United States,United States,English,DATA_EXPIRED,Full-Time,Not Applicable
652c1127ce21a1fecfc05fbc,<b>People are usually completely right or completely wrong.,Highly disagree,49/94,Highly agree,4,1708009427558,1708009440605,\Highly agree\,\Highly agree\,\4\,1708009439270,1708009439270,11712,11712,13047,buq,qns-item-noham,49,541715,0.0-1.0-0.48,65ce2182c3acaed2024fd267,AWAITING REVIEW,2024-02-15T14:38:24.082000Z,2024-02-15T15:14:35.159000Z,,2024-02-15T15:14:35.798501Z,2172.0,CVPIIDEI,509,36,Male,Black,Nigeria,United States,United States,English,DATA_EXPIRED,Full-Time,Not Applicable
652c1127ce21a1fecfc05fbc,<b>I spend a lot of time considering alternatives to my beliefs.,Highly disagree,50/94,Highly agree,4,1708009440610,1708009451884,\Highly agree\,\Highly agree\,\4\,1708009450653,1708009450653,10043,10043,11274,buq,qns-item-noham,50,552994,0.0-1.0-0.49,65ce2182c3acaed2024fd267,AWAITING REVIEW,2024-02-15T14:38:24.082000Z,2024-02-15T15:14:35.159000Z,,2024-02-15T15:14:35.798501Z,2172.0,CVPIIDEI,509,36,Male,Black,Nigeria,United States,United States,English,DATA_EXPIRED,Full-Time,Not Applicable
652c1127ce21a1fecfc05fbc,"<b>Political enemies need to be defeated, not convinced.",Highly disagree,51/94,Highly agree,4,1708009451886,1708009459233,\Highly agree\,\Highly agree\,\4\,1708009458003,1708009458003,6117,6117,7347,buq,qns-item-noham,51,560343,0.0-1.0-0.50,65ce2182c3acaed2024fd267,AWAITING REVIEW,2024-02-15T14:38:24.082000Z,2024-02-15T15:14:35.159000Z,,2024-02-15T15:14:35.798501Z,2172.0,CVPIIDEI,509,36,Male,Black,Nigeria,United States,United States,English,DATA_EXPIRED,Full-Time,Not Applicable
652c1127ce21a1fecfc05fbc,<b>I form my political views only after meticulously gathering historical and present information about their policies.,Highly disagree,52/94,Somewhat agree,3,1708009459236,1708009476116,\Somewhat agree\,\Somewhat agree\,\3\,1708009474481,1708009474481,15245,15245,16880,buq,qns-item-noham,52,577226,0.0-1.0-0.51,65ce2182c3acaed2024fd267,AWAITING REVIEW,2024-02-15T14:38:24.082000Z,2024-02-15T15:14:35.159000Z,,2024-02-15T15:14:35.798501Z,2172.0,CVPIIDEI,509,36,Male,Black,Nigeria,United States,United States,English,DATA_EXPIRED,Full-Time,Not Applicable
652c1127ce21a1fecfc05fbc,<b>It is difficult for me to remember the last time I was surprised by politics.,Highly disagree,53/94,Somewhat agree,3,1708009476120,1708009486181,\Somewhat agree\,\Somewhat agree\,\3\,1708009484631,1708009484631,8511,8511,10061,buq,qns-item-noham,53,587291,0.0-1.0-0.52,65ce2182c3acaed2024fd267,AWAITING REVIEW,2024-02-15T14:38:24.082000Z,2024-02-15T15:14:35.159000Z,,2024-02-15T15:14:35.798501Z,2172.0,CVPIIDEI,509,36,Male,Black,Nigeria,United States,United States,English,DATA_EXPIRED,Full-Time,Not Applicable
652c1127ce21a1fecfc05fbc,"<b>When I find out I?m wrong, I think a lot about my related beliefs.",Highly disagree,54/94,Somewhat agree,3,1708009486183,1708009496677,\Somewhat agree\,\Somewhat agree\,\3\,1708009495195,1708009495195,9012,9012,10494,buq,qns-item-noham,54,597787,0.0-1.0-0.53,65ce2182c3acaed2024fd267,AWAITING REVIEW,2024-02-15T14:38:24.082000Z,2024-02-15T15:14:35.159000Z,,2024-02-15T15:14:35.798501Z,2172.0,CVPIIDEI,509,36,Male,Black,Nigeria,United States,United States,English,DATA_EXPIRED,Full-Time,Not Applicable
652c1127ce21a1fecfc05fbc,"<b>If the political party I support messes up, it makes me think you can?t trust anyone these days",Highly disagree,55/94,Highly disagree,1,1708009496680,1708009529006,\Highly disagree\,\Highly disagree\,\1\,1708009527843,1708009527843,31163,31163,32326,buq,qns-item-noham,55,630117,0.0-1.0-0.54,65ce2182c3acaed2024fd267,AWAITING REVIEW,2024-02-15T14:38:24.082000Z,2024-02-15T15:14:35.159000Z,,2024-02-15T15:14:35.798501Z,2172.0,CVPIIDEI,509,36,Male,Black,Nigeria,United States,United States,English,DATA_EXPIRED,Full-Time,Not Applicable
652c1127ce21a1fecfc05fbc,<b>People?s brains turn off when they talk about politics.,Highly disagree,56/94,Highly disagree,1,1708009529008,1708009537409,\Highly disagree\,\Highly disagree\,\1\,1708009535591,1708009535591,6583,6583,8401,buq,qns-item-noham,56,638519,0.0-1.0-0.55,65ce2182c3acaed2024fd267,AWAITING REVIEW,2024-02-15T14:38:24.082000Z,2024-02-15T15:14:35.159000Z,,2024-02-15T15:14:35.798501Z,2172.0,CVPIIDEI,509,36,Male,Black,Nigeria,United States,United States,English,DATA_EXPIRED,Full-Time,Not Applicable
652c1127ce21a1fecfc05fbc,<b>People who are wrong are usually just ignoring the obvious.,Highly disagree,57/94,Highly disagree,1,1708009537411,1708009571518,\Highly disagree\,\Highly disagree\,\1\,1708009570238,1708009570238,32827,32827,34107,buq,qns-item-noham,57,672628,0.0-1.0-0.56,65ce2182c3acaed2024fd267,AWAITING REVIEW,2024-02-15T14:38:24.082000Z,2024-02-15T15:14:35.159000Z,,2024-02-15T15:14:35.798501Z,2172.0,CVPIIDEI,509,36,Male,Black,Nigeria,United States,United States,English,DATA_EXPIRED,Full-Time,Not Applicable
652c1127ce21a1fecfc05fbc,"<b>When forming my views on people, I rely more on what they are like now rather than rely on my past experience with them.",Highly disagree,58/94,Highly agree,4,1708009571520,1708009582750,\Highly agree\,\Highly agree\,\4\,1708009581501,1708009581501,9981,9981,11230,buq,qns-item-noham,58,683860,0.0-1.0-0.57,65ce2182c3acaed2024fd267,AWAITING REVIEW,2024-02-15T14:38:24.082000Z,2024-02-15T15:14:35.159000Z,,2024-02-15T15:14:35.798501Z,2172.0,CVPIIDEI,509,36,Male,Black,Nigeria,United States,United States,English,DATA_EXPIRED,Full-Time,Not Applicable
652c1127ce21a1fecfc05fbc,"<b>When people contradict my beliefs, I usually know about their evidence already.",Highly disagree,59/94,Somewhat agree,3,1708009582754,1708009599048,\Somewhat agree\,\Somewhat agree\,\3\,1708009597865,1708009597865,15111,15111,16294,buq,qns-item-noham,59,700158,0.0-1.0-0.58,65ce2182c3acaed2024fd267,AWAITING REVIEW,2024-02-15T14:38:24.082000Z,2024-02-15T15:14:35.159000Z,,2024-02-15T15:14:35.798501Z,2172.0,CVPIIDEI,509,36,Male,Black,Nigeria,United States,United States,English,DATA_EXPIRED,Full-Time,Not Applicable
652c1127ce21a1fecfc05fbc,<b>Figuring out what?s true and what?s false mainly requires a strong moral compass.,Highly disagree,60/94,Highly agree,4,1708009599051,1708009608098,\Highly agree\,\Highly agree\,\4\,1708009606830,1708009606830,7779,7779,9047,buq,qns-item-noham,60,709208,0.0-1.0-0.59,65ce2182c3acaed2024fd267,AWAITING REVIEW,2024-02-15T14:38:24.082000Z,2024-02-15T15:14:35.159000Z,,2024-02-15T15:14:35.798501Z,2172.0,CVPIIDEI,509,36,Male,Black,Nigeria,United States,United States,English,DATA_EXPIRED,Full-Time,Not Applicable
652c1127ce21a1fecfc05fbc,"<b>Usually I?m wrong about simple things, not complicated ones.",Highly disagree,61/94,Somewhat agree,3,1708009608100,1708009615381,\Somewhat agree\,\Somewhat agree\,\3\,1708009614214,1708009614214,6114,6114,7281,buq,qns-item-noham,61,716491,0.0-1.0-0.60,65ce2182c3acaed2024fd267,AWAITING REVIEW,2024-02-15T14:38:24.082000Z,2024-02-15T15:14:35.159000Z,,2024-02-15T15:14:35.798501Z,2172.0,CVPIIDEI,509,36,Male,Black,Nigeria,United States,United States,English,DATA_EXPIRED,Full-Time,Not Applicable
652c1127ce21a1fecfc05fbc,<b>Getting all the information I want about important things is hard.,Highly disagree,62/94,Highly disagree,1,1708009615385,1708009622547,\Highly disagree\,\Highly disagree\,\1\,1708009621210,1708009621210,5825,5825,7162,buq,qns-item-noham,62,723657,0.0-1.0-0.61,65ce2182c3acaed2024fd267,AWAITING REVIEW,2024-02-15T14:38:24.082000Z,2024-02-15T15:14:35.159000Z,,2024-02-15T15:14:35.798501Z,2172.0,CVPIIDEI,509,36,Male,Black,Nigeria,United States,United States,English,DATA_EXPIRED,Full-Time,Not Applicable
652c1127ce21a1fecfc05fbc,<b>Most false beliefs spread because people try to deceive one another.,Highly disagree,63/94,Highly agree,4,1708009622550,1708009634327,\Highly agree\,\Highly agree\,\4\,1708009633078,1708009633078,10528,10528,11777,buq,qns-item-noham,63,735437,0.0-1.0-0.62,65ce2182c3acaed2024fd267,AWAITING REVIEW,2024-02-15T14:38:24.082000Z,2024-02-15T15:14:35.159000Z,,2024-02-15T15:14:35.798501Z,2172.0,CVPIIDEI,509,36,Male,Black,Nigeria,United States,United States,English,DATA_EXPIRED,Full-Time,Not Applicable
652c1127ce21a1fecfc05fbc,<b>I can usually find something to agree with in most people?s beliefs.,Highly disagree,64/94,Highly agree,4,1708009634329,1708009642229,\Highly agree\,\Highly agree\,\4\,1708009640944,1708009640944,6615,6615,7900,buq,qns-item-noham,64,743339,0.0-1.0-0.63,65ce2182c3acaed2024fd267,AWAITING REVIEW,2024-02-15T14:38:24.082000Z,2024-02-15T15:14:35.159000Z,,2024-02-15T15:14:35.798501Z,2172.0,CVPIIDEI,509,36,Male,Black,Nigeria,United States,United States,English,DATA_EXPIRED,Full-Time,Not Applicable
652c1127ce21a1fecfc05fbc,<b>I only form my views of people once I get to know them very well.,Highly disagree,65/94,Somewhat agree,3,1708009642232,1708009648725,\Somewhat agree\,\Somewhat agree\,\3\,1708009647544,1708009647544,5312,5312,6493,buq,qns-item-noham,65,749835,0.0-1.0-0.64,65ce2182c3acaed2024fd267,AWAITING REVIEW,2024-02-15T14:38:24.082000Z,2024-02-15T15:14:35.159000Z,,2024-02-15T15:14:35.798501Z,2172.0,CVPIIDEI,509,36,Male,Black,Nigeria,United States,United States,English,DATA_EXPIRED,Full-Time,Not Applicable
652c1127ce21a1fecfc05fbc,"<b>When people tell me important things about the world, I usually believe them.",Highly disagree,66/94,Somewhat agree,3,1708009648728,1708009657039,\Somewhat agree\,\Somewhat agree\,\3\,1708009655925,1708009655925,7197,7197,8311,buq,qns-item-noham,66,758149,0.0-1.0-0.65,65ce2182c3acaed2024fd267,AWAITING REVIEW,2024-02-15T14:38:24.082000Z,2024-02-15T15:14:35.159000Z,,2024-02-15T15:14:35.798501Z,2172.0,CVPIIDEI,509,36,Male,Black,Nigeria,United States,United States,English,DATA_EXPIRED,Full-Time,Not Applicable
652c1127ce21a1fecfc05fbc,"<b>If a friend does something that upsets me, it reminds me what an unpredictable place the world is.",Highly disagree,67/94,Highly agree,4,1708009657042,1708009668874,\Highly agree\,\Highly agree\,\4\,1708009667539,1708009667539,10497,10497,11832,buq,qns-item-noham,67,769984,0.0-1.0-0.66,65ce2182c3acaed2024fd267,AWAITING REVIEW,2024-02-15T14:38:24.082000Z,2024-02-15T15:14:35.159000Z,,2024-02-15T15:14:35.798501Z,2172.0,CVPIIDEI,509,36,Male,Black,Nigeria,United States,United States,English,DATA_EXPIRED,Full-Time,Not Applicable
652c1127ce21a1fecfc05fbc,<b>People tend to believe whatever is good for their friends.,Highly disagree,68/94,Somewhat agree,3,1708009668878,1708009674296,\Somewhat agree\,\Somewhat agree\,\3\,1708009673224,1708009673224,4346,4346,5418,buq,qns-item-noham,68,775406,0.0-1.0-0.67,65ce2182c3acaed2024fd267,AWAITING REVIEW,2024-02-15T14:38:24.082000Z,2024-02-15T15:14:35.159000Z,,2024-02-15T15:14:35.798501Z,2172.0,CVPIIDEI,509,36,Male,Black,Nigeria,United States,United States,English,DATA_EXPIRED,Full-Time,Not Applicable
652c1127ce21a1fecfc05fbc,<b>I used to be more certain my beliefs were true.,Highly disagree,69/94,Highly agree,4,1708009674299,1708009678905,\Highly agree\,\Highly agree\,\4\,1708009677673,1708009677673,3374,3374,4606,buq,qns-item-noham,69,780015,0.0-1.0-0.68,65ce2182c3acaed2024fd267,AWAITING REVIEW,2024-02-15T14:38:24.082000Z,2024-02-15T15:14:35.159000Z,,2024-02-15T15:14:35.798501Z,2172.0,CVPIIDEI,509,36,Male,Black,Nigeria,United States,United States,English,DATA_EXPIRED,Full-Time,Not Applicable
652c1127ce21a1fecfc05fbc,<b>It?s often pretty easy to figure out whether something is true based on who said it.,Highly disagree,70/94,Somewhat agree,3,1708009678908,1708009685489,\Somewhat agree\,\Somewhat agree\,\3\,1708009684257,1708009684257,5349,5349,6581,buq,qns-item-noham,70,786599,0.0-1.0-0.69,65ce2182c3acaed2024fd267,AWAITING REVIEW,2024-02-15T14:38:24.082000Z,2024-02-15T15:14:35.159000Z,,2024-02-15T15:14:35.798501Z,2172.0,CVPIIDEI,509,36,Male,Black,Nigeria,United States,United States,English,DATA_EXPIRED,Full-Time,Not Applicable
652c1127ce21a1fecfc05fbc,<b>I transform into a hummingbird every day.,Highly disagree,71/94,Highly disagree,1,1708009685490,1708009696486,\Highly disagree\,\Highly disagree\,\1\,1708009695103,1708009695103,9613,9613,10996,buq,qns-item-noham,71,797597,0.0-1.0-0.70,65ce2182c3acaed2024fd267,AWAITING REVIEW,2024-02-15T14:38:24.082000Z,2024-02-15T15:14:35.159000Z,,2024-02-15T15:14:35.798501Z,2172.0,CVPIIDEI,509,36,Male,Black,Nigeria,United States,United States,English,DATA_EXPIRED,Full-Time,Not Applicable
652c1127ce21a1fecfc05fbc,<b>I think a lot about arguments against my views.,Highly disagree,72/94,Somewhat agree,3,1708009696488,1708009706120,\Somewhat agree\,\Somewhat agree\,\3\,1708009705003,1708009705003,8515,8515,9632,buq,qns-item-noham,72,807231,0.0-1.0-0.71,65ce2182c3acaed2024fd267,AWAITING REVIEW,2024-02-15T14:38:24.082000Z,2024-02-15T15:14:35.159000Z,,2024-02-15T15:14:35.798501Z,2172.0,CVPIIDEI,509,36,Male,Black,Nigeria,United States,United States,English,DATA_EXPIRED,Full-Time,Not Applicable
652c1127ce21a1fecfc05fbc,<b>Personal experience is usually more important than facts and figures.,Highly disagree,73/94,Highly agree,4,1708009706122,1708009721734,\Highly agree\,\Highly agree\,\4\,1708009720333,1708009720333,14211,14211,15612,buq,qns-item-noham,73,822844,0.0-1.0-0.72,65ce2182c3acaed2024fd267,AWAITING REVIEW,2024-02-15T14:38:24.082000Z,2024-02-15T15:14:35.159000Z,,2024-02-15T15:14:35.798501Z,2172.0,CVPIIDEI,509,36,Male,Black,Nigeria,United States,United States,English,DATA_EXPIRED,Full-Time,Not Applicable
652c1127ce21a1fecfc05fbc,<b>I?ve been tricked before about important matters.,Highly disagree,74/94,Somewhat agree,3,1708009721736,1708009728549,\Somewhat agree\,\Somewhat agree\,\3\,1708009727015,1708009727015,5279,5279,6813,buq,qns-item-noham,74,829659,0.0-1.0-0.73,65ce2182c3acaed2024fd267,AWAITING REVIEW,2024-02-15T14:38:24.082000Z,2024-02-15T15:14:35.159000Z,,2024-02-15T15:14:35.798501Z,2172.0,CVPIIDEI,509,36,Male,Black,Nigeria,United States,United States,English,DATA_EXPIRED,Full-Time,Not Applicable
652c1127ce21a1fecfc05fbc,<b>I would need to be totally wowed if I were to change my opinion of a restaurant I don?t like.,Highly disagree,75/94,Highly agree,4,1708009728551,1708009738514,\Somewhat agree\,\Highly agree\,\3\,1708009735344,1708009737180,6793,8629,9963,buq,qns-item-noham,75,839624,0.0-1.0-0.74,65ce2182c3acaed2024fd267,AWAITING REVIEW,2024-02-15T14:38:24.082000Z,2024-02-15T15:14:35.159000Z,,2024-02-15T15:14:35.798501Z,2172.0,CVPIIDEI,509,36,Male,Black,Nigeria,United States,United States,English,DATA_EXPIRED,Full-Time,Not Applicable
652c1127ce21a1fecfc05fbc,<b>I care a lot about politics.,Highly disagree,76/94,Highly agree,4,1708009738516,1708009742422,\Highly agree\,\Highly agree\,\4\,1708009741183,1708009741183,2667,2667,3906,buq,qns-item-noham,76,843533,0.0-1.0-0.75,65ce2182c3acaed2024fd267,AWAITING REVIEW,2024-02-15T14:38:24.082000Z,2024-02-15T15:14:35.159000Z,,2024-02-15T15:14:35.798501Z,2172.0,CVPIIDEI,509,36,Male,Black,Nigeria,United States,United States,English,DATA_EXPIRED,Full-Time,Not Applicable
652c1127ce21a1fecfc05fbc,<b>There are some topics I?ve been really wrong about.,Highly disagree,77/94,Somewhat agree,3,1708009742426,1708009749066,\Somewhat agree\,\Somewhat agree\,\3\,1708009747781,1708009747781,5355,5355,6640,buq,qns-item-noham,77,850176,0.0-1.0-0.76,65ce2182c3acaed2024fd267,AWAITING REVIEW,2024-02-15T14:38:24.082000Z,2024-02-15T15:14:35.159000Z,,2024-02-15T15:14:35.798501Z,2172.0,CVPIIDEI,509,36,Male,Black,Nigeria,United States,United States,English,DATA_EXPIRED,Full-Time,Not Applicable
652c1127ce21a1fecfc05fbc,<b>Most beliefs can be supported with at least some evidence.,Highly disagree,78/94,Highly agree,4,1708009749068,1708009755327,\Highly agree\,\Highly agree\,\4\,1708009754061,1708009754061,4993,4993,6259,buq,qns-item-noham,78,856437,0.0-1.0-0.77,65ce2182c3acaed2024fd267,AWAITING REVIEW,2024-02-15T14:38:24.082000Z,2024-02-15T15:14:35.159000Z,,2024-02-15T15:14:35.798501Z,2172.0,CVPIIDEI,509,36,Male,Black,Nigeria,United States,United States,English,DATA_EXPIRED,Full-Time,Not Applicable
652c1127ce21a1fecfc05fbc,<b>Other people make life out to be more complicated than it really is.,Highly disagree,79/94,Somewhat agree,3,1708009755330,1708009761261,\Somewhat agree\,\Somewhat agree\,\3\,1708009759847,1708009759847,4517,4517,5931,buq,qns-item-noham,79,862371,0.0-1.0-0.78,65ce2182c3acaed2024fd267,AWAITING REVIEW,2024-02-15T14:38:24.082000Z,2024-02-15T15:14:35.159000Z,,2024-02-15T15:14:35.798501Z,2172.0,CVPIIDEI,509,36,Male,Black,Nigeria,United States,United States,English,DATA_EXPIRED,Full-Time,Not Applicable
652c1127ce21a1fecfc05fbc,"<b>Policy details don?t matter much, just the big picture.",Highly disagree,80/94,Highly disagree,1,1708009761263,1708009774124,\Highly disagree\,\Highly disagree\,\1\,1708009769975,1708009769975,8712,8712,12861,buq,qns-item-noham,80,875234,0.0-1.0-0.79,65ce2182c3acaed2024fd267,AWAITING REVIEW,2024-02-15T14:38:24.082000Z,2024-02-15T15:14:35.159000Z,,2024-02-15T15:14:35.798501Z,2172.0,CVPIIDEI,509,36,Male,Black,Nigeria,United States,United States,English,DATA_EXPIRED,Full-Time,Not Applicable
652c1127ce21a1fecfc05fbc,<b>I know my friends so well they can hardly ever surprise me.,Highly disagree,81/94,Somewhat agree,3,1708009774126,1708009784241,\Somewhat agree\,\Somewhat agree\,\3\,1708009783007,1708009783007,8881,8881,10115,buq,qns-item-noham,81,885351,0.0-1.0-0.80,65ce2182c3acaed2024fd267,AWAITING REVIEW,2024-02-15T14:38:24.082000Z,2024-02-15T15:14:35.159000Z,,2024-02-15T15:14:35.798501Z,2172.0,CVPIIDEI,509,36,Male,Black,Nigeria,United States,United States,English,DATA_EXPIRED,Full-Time,Not Applicable
652c1127ce21a1fecfc05fbc,<b>I do not often change my views on people.,Highly disagree,82/94,Somewhat agree,3,1708009784242,1708009791940,\Somewhat agree\,\Somewhat agree\,\3\,1708009790626,1708009790626,6384,6384,7698,buq,qns-item-noham,82,893050,0.0-1.0-0.81,65ce2182c3acaed2024fd267,AWAITING REVIEW,2024-02-15T14:38:24.082000Z,2024-02-15T15:14:35.159000Z,,2024-02-15T15:14:35.798501Z,2172.0,CVPIIDEI,509,36,Male,Black,Nigeria,United States,United States,English,DATA_EXPIRED,Full-Time,Not Applicable
652c1127ce21a1fecfc05fbc,<b>I?m more certain about my beliefs than I used to be.,Highly disagree,83/94,Highly agree,4,1708009791943,1708009797258,\Highly agree\,\Highly agree\,\4\,1708009796042,1708009796042,4099,4099,5315,buq,qns-item-noham,83,898368,0.0-1.0-0.82,65ce2182c3acaed2024fd267,AWAITING REVIEW,2024-02-15T14:38:24.082000Z,2024-02-15T15:14:35.159000Z,,2024-02-15T15:14:35.798501Z,2172.0,CVPIIDEI,509,36,Male,Black,Nigeria,United States,United States,English,DATA_EXPIRED,Full-Time,Not Applicable
652c1127ce21a1fecfc05fbc,<b>People often tell falsehoods unintentionally.,Highly disagree,84/94,Somewhat agree,3,1708009797259,1708009815635,\Somewhat agree\,\Somewhat agree\,\3\,1708009814504,1708009814504,17245,17245,18376,buq,qns-item-noham,84,916745,0.0-1.0-0.83,65ce2182c3acaed2024fd267,AWAITING REVIEW,2024-02-15T14:38:24.082000Z,2024-02-15T15:14:35.159000Z,,2024-02-15T15:14:35.798501Z,2172.0,CVPIIDEI,509,36,Male,Black,Nigeria,United States,United States,English,DATA_EXPIRED,Full-Time,Not Applicable
652c1127ce21a1fecfc05fbc,<b>Most people don?t know much about most things.,Highly disagree,85/94,Somewhat agree,3,1708009815638,1708009823088,\Somewhat agree\,\Somewhat agree\,\3\,1708009821620,1708009821620,5982,5982,7450,buq,qns-item-noham,85,924198,0.0-1.0-0.84,65ce2182c3acaed2024fd267,AWAITING REVIEW,2024-02-15T14:38:24.082000Z,2024-02-15T15:14:35.159000Z,,2024-02-15T15:14:35.798501Z,2172.0,CVPIIDEI,509,36,Male,Black,Nigeria,United States,United States,English,DATA_EXPIRED,Full-Time,Not Applicable
652c1127ce21a1fecfc05fbc,"<b>If I find out something new about someone, I easily change my views about them.",Highly disagree,86/94,Highly disagree,1,1708009823090,1708009832819,\Highly disagree\,\Highly disagree\,\1\,1708009831519,1708009831519,8429,8429,9729,buq,qns-item-noham,86,933929,0.0-1.0-0.85,65ce2182c3acaed2024fd267,AWAITING REVIEW,2024-02-15T14:38:24.082000Z,2024-02-15T15:14:35.159000Z,,2024-02-15T15:14:35.798501Z,2172.0,CVPIIDEI,509,36,Male,Black,Nigeria,United States,United States,English,DATA_EXPIRED,Full-Time,Not Applicable
652c1127ce21a1fecfc05fbc,<b>Having true beliefs is difficult.,Highly disagree,87/94,Highly disagree,1,1708009832821,1708009837275,\Highly disagree\,\Highly disagree\,\1\,1708009835885,1708009835885,3064,3064,4454,buq,qns-item-noham,87,938385,0.0-1.0-0.86,65ce2182c3acaed2024fd267,AWAITING REVIEW,2024-02-15T14:38:24.082000Z,2024-02-15T15:14:35.159000Z,,2024-02-15T15:14:35.798501Z,2172.0,CVPIIDEI,509,36,Male,Black,Nigeria,United States,United States,English,DATA_EXPIRED,Full-Time,Not Applicable
652c1127ce21a1fecfc05fbc,<b>I don?t try new foods since I know I won?t like them.,Highly disagree,88/94,Somewhat disagree,2,1708009837278,1708009849790,\Somewhat disagree\,\Somewhat disagree\,\2\,1708009848485,1708009848485,11207,11207,12512,buq,qns-item-noham,88,950900,0.0-1.0-0.87,65ce2182c3acaed2024fd267,AWAITING REVIEW,2024-02-15T14:38:24.082000Z,2024-02-15T15:14:35.159000Z,,2024-02-15T15:14:35.798501Z,2172.0,CVPIIDEI,509,36,Male,Black,Nigeria,United States,United States,English,DATA_EXPIRED,Full-Time,Not Applicable
652c1127ce21a1fecfc05fbc,<b>Other people trick each other a lot.,Highly disagree,89/94,Somewhat agree,3,1708009849794,1708009856648,\Somewhat agree\,\Somewhat agree\,\3\,1708009855450,1708009855450,5656,5656,6854,buq,qns-item-noham,89,957759,0.0-1.0-0.88,65ce2182c3acaed2024fd267,AWAITING REVIEW,2024-02-15T14:38:24.082000Z,2024-02-15T15:14:35.159000Z,,2024-02-15T15:14:35.798501Z,2172.0,CVPIIDEI,509,36,Male,Black,Nigeria,United States,United States,English,DATA_EXPIRED,Full-Time,Not Applicable
652c1127ce21a1fecfc05fbc,<b>I would need to learn a lot about a person for my opinion of them to be swayed.,Highly disagree,90/94,Somewhat agree,3,1708009856651,1708009864167,\Somewhat agree\,\Somewhat agree\,\3\,1708009862917,1708009862917,6266,6266,7516,buq,qns-item-noham,90,965277,0.0-1.0-0.89,65ce2182c3acaed2024fd267,AWAITING REVIEW,2024-02-15T14:38:24.082000Z,2024-02-15T15:14:35.159000Z,,2024-02-15T15:14:35.798501Z,2172.0,CVPIIDEI,509,36,Male,Black,Nigeria,United States,United States,English,DATA_EXPIRED,Full-Time,Not Applicable
652c1127ce21a1fecfc05fbc,<b>People can?t usually trick me when it comes to topics I care about.,Highly disagree,91/94,Highly agree,4,1708009864168,1708009872629,\Highly agree\,\Highly agree\,\4\,1708009871248,1708009871248,7080,7080,8461,buq,qns-item-noham,91,973739,0.0-1.0-0.90,65ce2182c3acaed2024fd267,AWAITING REVIEW,2024-02-15T14:38:24.082000Z,2024-02-15T15:14:35.159000Z,,2024-02-15T15:14:35.798501Z,2172.0,CVPIIDEI,509,36,Male,Black,Nigeria,United States,United States,English,DATA_EXPIRED,Full-Time,Not Applicable
652c1127ce21a1fecfc05fbc,<b>I do not often change my views on food.,Highly disagree,92/94,Highly agree,4,1708009872631,1708009878462,\Highly agree\,\Highly agree\,\4\,1708009877227,1708009877227,4596,4596,5831,buq,qns-item-noham,92,979572,0.0-1.0-0.91,65ce2182c3acaed2024fd267,AWAITING REVIEW,2024-02-15T14:38:24.082000Z,2024-02-15T15:14:35.159000Z,,2024-02-15T15:14:35.798501Z,2172.0,CVPIIDEI,509,36,Male,Black,Nigeria,United States,United States,English,DATA_EXPIRED,Full-Time,Not Applicable
652c1127ce21a1fecfc05fbc,<b>Specific policies are often very important to me.,Highly disagree,93/94,Highly agree,4,1708009878464,1708009884964,\Highly agree\,\Highly agree\,\4\,1708009883630,1708009883630,5166,5166,6500,buq,qns-item-noham,93,986074,0.0-1.0-0.92,65ce2182c3acaed2024fd267,AWAITING REVIEW,2024-02-15T14:38:24.082000Z,2024-02-15T15:14:35.159000Z,,2024-02-15T15:14:35.798501Z,2172.0,CVPIIDEI,509,36,Male,Black,Nigeria,United States,United States,English,DATA_EXPIRED,Full-Time,Not Applicable
652c1127ce21a1fecfc05fbc,<b>Most people are woefully under-informed.,Highly disagree,94/94,Highly agree,4,1708009884967,1708009899029,\Highly agree\,\Highly agree\,\4\,1708009897667,1708009897667,12700,12700,14062,buq,qns-item-noham,94,1000139,0.0-1.0-0.93,65ce2182c3acaed2024fd267,AWAITING REVIEW,2024-02-15T14:38:24.082000Z,2024-02-15T15:14:35.159000Z,,2024-02-15T15:14:35.798501Z,2172.0,CVPIIDEI,509,36,Male,Black,Nigeria,United States,United States,English,DATA_EXPIRED,Full-Time,Not Applicable
652c1127ce21a1fecfc05fbc,,,,,,,,,,,,,,,,,,,,,65ce2182c3acaed2024fd267,AWAITING REVIEW,2024-02-15T14:38:24.082000Z,2024-02-15T15:14:35.159000Z,,2024-02-15T15:14:35.798501Z,2172.0,CVPIIDEI,509,36,Male,Black,Nigeria,United States,United States,English,DATA_EXPIRED,Full-Time,Not Applicable
