PROLIFIC_PID,Question,qns_options,quest_num,answer,answer_num,question_load_timestamp,next_btn_timestamp,text_selected,final_text_selected,option_num_selected,preview_timestamps,final_text_selected_time_stamp,rt_first_option_click,rt_final_option_click,rt_submit_click,questionnaire,trial_type,trial_index,time_elapsed,internal_node_id,Demographic_Submission id,Demographic_Status,Demographic_Started at,Demographic_Completed at,Demographic_Reviewed at,Demographic_Archived at,Demographic_Time taken,Demographic_Completion code,Demographic_Total approvals,Demographic_Age,Demographic_Sex,Demographic_Ethnicity simplified,Demographic_Country of birth,Demographic_Country of residence,Demographic_Nationality,Demographic_Language,Demographic_Student status,Demographic_Employment status,Demographic_Custom study tncs accepted at
5f171e9023611c038f0bd539,<b>Knowing what?s true and knowing what to do about it are usually basically the same.,Highly disagree,1/94,Somewhat disagree,2,1708007883102,1708007891170,\Somewhat disagree\,\Somewhat disagree\,\2\,1708007890312,1708007890312,7210,7210,8068,buq,qns-item-noham,1,12864,0.0-1.0-0.0,65ce21b116bb961d68282a7e,AWAITING REVIEW,2024-02-15T14:37:42.530000Z,2024-02-15T14:43:22.647000Z,,2024-02-15T14:43:23.280543Z,341.0,CVPIIDEI,2708,34,Male,White,United States,United States,United States,English,DATA_EXPIRED,DATA_EXPIRED,Not Applicable
5f171e9023611c038f0bd539,<b>Most people just believe whatever is convenient for them.,Highly disagree,2/94,Somewhat agree,3,1708007891183,1708007893957,\Somewhat agree\,\Somewhat agree\,\3\,1708007893365,1708007893365,2182,2182,2774,buq,qns-item-noham,2,15650,0.0-1.0-0.1,65ce21b116bb961d68282a7e,AWAITING REVIEW,2024-02-15T14:37:42.530000Z,2024-02-15T14:43:22.647000Z,,2024-02-15T14:43:23.280543Z,341.0,CVPIIDEI,2708,34,Male,White,United States,United States,United States,English,DATA_EXPIRED,DATA_EXPIRED,Not Applicable
5f171e9023611c038f0bd539,<b>Having some big beliefs helps me sort out minor ones.,Highly disagree,3/94,Somewhat agree,3,1708007893965,1708007896503,\Somewhat agree\,\Somewhat agree\,\3\,1708007895993,1708007895993,2028,2028,2538,buq,qns-item-noham,3,18197,0.0-1.0-0.2,65ce21b116bb961d68282a7e,AWAITING REVIEW,2024-02-15T14:37:42.530000Z,2024-02-15T14:43:22.647000Z,,2024-02-15T14:43:23.280543Z,341.0,CVPIIDEI,2708,34,Male,White,United States,United States,United States,English,DATA_EXPIRED,DATA_EXPIRED,Not Applicable
5f171e9023611c038f0bd539,<b>Political questions are usually pretty complicated.,Highly disagree,4/94,Highly agree,4,1708007896508,1708007900185,\Highly agree\,\Highly agree\,\4\,1708007899399,1708007899399,2891,2891,3677,buq,qns-item-noham,4,21878,0.0-1.0-0.3,65ce21b116bb961d68282a7e,AWAITING REVIEW,2024-02-15T14:37:42.530000Z,2024-02-15T14:43:22.647000Z,,2024-02-15T14:43:23.280543Z,341.0,CVPIIDEI,2708,34,Male,White,United States,United States,United States,English,DATA_EXPIRED,DATA_EXPIRED,Not Applicable
5f171e9023611c038f0bd539,<b>Figuring out what?s important in life requires learning a lot of facts.,Highly disagree,5/94,Somewhat agree,3,1708007900195,1708007903159,\Somewhat agree\,\Somewhat agree\,\3\,1708007902608,1708007902608,2413,2413,2964,buq,qns-item-noham,5,24853,0.0-1.0-0.4,65ce21b116bb961d68282a7e,AWAITING REVIEW,2024-02-15T14:37:42.530000Z,2024-02-15T14:43:22.647000Z,,2024-02-15T14:43:23.280543Z,341.0,CVPIIDEI,2708,34,Male,White,United States,United States,United States,English,DATA_EXPIRED,DATA_EXPIRED,Not Applicable
5f171e9023611c038f0bd539,<b>It is difficult for me to remember the last time I was surprised by politics.,Highly disagree,6/94,Highly disagree,1,1708007903164,1708007907280,\Highly disagree\,\Highly disagree\,\1\,1708007906546,1708007906546,3382,3382,4116,buq,qns-item-noham,6,28974,0.0-1.0-0.5,65ce21b116bb961d68282a7e,AWAITING REVIEW,2024-02-15T14:37:42.530000Z,2024-02-15T14:43:22.647000Z,,2024-02-15T14:43:23.280543Z,341.0,CVPIIDEI,2708,34,Male,White,United States,United States,United States,English,DATA_EXPIRED,DATA_EXPIRED,Not Applicable
5f171e9023611c038f0bd539,<b>People?s false beliefs are understandable.,Highly disagree,7/94,Somewhat agree,3,1708007907286,1708007910972,\Somewhat agree\,\Somewhat agree\,\3\,1708007910359,1708007910359,3073,3073,3686,buq,qns-item-noham,7,32665,0.0-1.0-0.6,65ce21b116bb961d68282a7e,AWAITING REVIEW,2024-02-15T14:37:42.530000Z,2024-02-15T14:43:22.647000Z,,2024-02-15T14:43:23.280543Z,341.0,CVPIIDEI,2708,34,Male,White,United States,United States,United States,English,DATA_EXPIRED,DATA_EXPIRED,Not Applicable
5f171e9023611c038f0bd539,<b>I spend a lot of time trying to be informed about politics.,Highly disagree,8/94,Somewhat agree,3,1708007910978,1708007913071,\Somewhat agree\,\Somewhat agree\,\3\,1708007912624,1708007912624,1646,1646,2093,buq,qns-item-noham,8,34764,0.0-1.0-0.7,65ce21b116bb961d68282a7e,AWAITING REVIEW,2024-02-15T14:37:42.530000Z,2024-02-15T14:43:22.647000Z,,2024-02-15T14:43:23.280543Z,341.0,CVPIIDEI,2708,34,Male,White,United States,United States,United States,English,DATA_EXPIRED,DATA_EXPIRED,Not Applicable
5f171e9023611c038f0bd539,<b>I think a lot about whether my beliefs are right.,Highly disagree,9/94,Somewhat agree,3,1708007913075,1708007915940,\Somewhat agree\,\Somewhat agree\,\3\,1708007915357,1708007915357,2282,2282,2865,buq,qns-item-noham,9,37633,0.0-1.0-0.8,65ce21b116bb961d68282a7e,AWAITING REVIEW,2024-02-15T14:37:42.530000Z,2024-02-15T14:43:22.647000Z,,2024-02-15T14:43:23.280543Z,341.0,CVPIIDEI,2708,34,Male,White,United States,United States,United States,English,DATA_EXPIRED,DATA_EXPIRED,Not Applicable
5f171e9023611c038f0bd539,<b>Statistics can be pretty misleading sometimes.,Highly disagree,10/94,Somewhat agree,3,1708007915947,1708007918174,\Somewhat agree\,\Somewhat agree\,\3\,1708007917684,1708007917684,1737,1737,2227,buq,qns-item-noham,10,39867,0.0-1.0-0.9,65ce21b116bb961d68282a7e,AWAITING REVIEW,2024-02-15T14:37:42.530000Z,2024-02-15T14:43:22.647000Z,,2024-02-15T14:43:23.280543Z,341.0,CVPIIDEI,2708,34,Male,White,United States,United States,United States,English,DATA_EXPIRED,DATA_EXPIRED,Not Applicable
5f171e9023611c038f0bd539,<b>I have lots of beliefs that I?m only sort of sure about.,Highly disagree,11/94,Somewhat agree,3,1708007918178,1708007920578,\Somewhat agree\,\Somewhat agree\,\3\,1708007920030,1708007920030,1852,1852,2400,buq,qns-item-noham,11,42274,0.0-1.0-0.10,65ce21b116bb961d68282a7e,AWAITING REVIEW,2024-02-15T14:37:42.530000Z,2024-02-15T14:43:22.647000Z,,2024-02-15T14:43:23.280543Z,341.0,CVPIIDEI,2708,34,Male,White,United States,United States,United States,English,DATA_EXPIRED,DATA_EXPIRED,Not Applicable
5f171e9023611c038f0bd539,"<b>If I go to my favorite restaurant and the food is surprisingly bad, it reminds me there are many disappointments in life.",Highly disagree,12/94,Somewhat disagree,2,1708007920587,1708007924350,\Somewhat disagree\,\Somewhat disagree\,\2\,1708007923841,1708007923841,3254,3254,3763,buq,qns-item-noham,12,46043,0.0-1.0-0.11,65ce21b116bb961d68282a7e,AWAITING REVIEW,2024-02-15T14:37:42.530000Z,2024-02-15T14:43:22.647000Z,,2024-02-15T14:43:23.280543Z,341.0,CVPIIDEI,2708,34,Male,White,United States,United States,United States,English,DATA_EXPIRED,DATA_EXPIRED,Not Applicable
5f171e9023611c038f0bd539,"<b>If you are paying attention, please select ?Somewhat agree?",Highly disagree,13/94,Somewhat agree,3,1708007924354,1708007927016,\Somewhat agree\,\Somewhat agree\,\3\,1708007926462,1708007926462,2108,2108,2662,buq,qns-item-noham,13,48709,0.0-1.0-0.12,65ce21b116bb961d68282a7e,AWAITING REVIEW,2024-02-15T14:37:42.530000Z,2024-02-15T14:43:22.647000Z,,2024-02-15T14:43:23.280543Z,341.0,CVPIIDEI,2708,34,Male,White,United States,United States,United States,English,DATA_EXPIRED,DATA_EXPIRED,Not Applicable
5f171e9023611c038f0bd539,"<b>When I talk to others, I often worry I?ll convince them of something I didn?t mean to.",Highly disagree,14/94,Somewhat disagree,2,1708007927020,1708007930304,\Somewhat disagree\,\Somewhat disagree\,\2\,1708007929879,1708007929879,2859,2859,3284,buq,qns-item-noham,14,51997,0.0-1.0-0.13,65ce21b116bb961d68282a7e,AWAITING REVIEW,2024-02-15T14:37:42.530000Z,2024-02-15T14:43:22.647000Z,,2024-02-15T14:43:23.280543Z,341.0,CVPIIDEI,2708,34,Male,White,United States,United States,United States,English,DATA_EXPIRED,DATA_EXPIRED,Not Applicable
5f171e9023611c038f0bd539,<b>I would need to learn something utterly shocking about my party in order to change my political views.,Highly disagree,15/94,Somewhat disagree,2,1708007930308,1708007933386,\Somewhat disagree\,\Somewhat disagree\,\2\,1708007932359,1708007932359,2051,2051,3078,buq,qns-item-noham,15,55079,0.0-1.0-0.14,65ce21b116bb961d68282a7e,AWAITING REVIEW,2024-02-15T14:37:42.530000Z,2024-02-15T14:43:22.647000Z,,2024-02-15T14:43:23.280543Z,341.0,CVPIIDEI,2708,34,Male,White,United States,United States,United States,English,DATA_EXPIRED,DATA_EXPIRED,Not Applicable
5f171e9023611c038f0bd539,"<b>When I have new experiences, I tend to think of them as unique.",Highly disagree,16/94,Somewhat agree,3,1708007933391,1708007936291,\Somewhat agree\,\Somewhat agree\,\3\,1708007935682,1708007935682,2291,2291,2900,buq,qns-item-noham,16,57984,0.0-1.0-0.15,65ce21b116bb961d68282a7e,AWAITING REVIEW,2024-02-15T14:37:42.530000Z,2024-02-15T14:43:22.647000Z,,2024-02-15T14:43:23.280543Z,341.0,CVPIIDEI,2708,34,Male,White,United States,United States,United States,English,DATA_EXPIRED,DATA_EXPIRED,Not Applicable
5f171e9023611c038f0bd539,<b>I change my mind about specific policies pretty frequently.,Highly disagree,17/94,Somewhat agree,3,1708007936295,1708007938535,\Somewhat agree\,\Somewhat agree\,\3\,1708007938090,1708007938090,1795,1795,2240,buq,qns-item-noham,17,60228,0.0-1.0-0.16,65ce21b116bb961d68282a7e,AWAITING REVIEW,2024-02-15T14:37:42.530000Z,2024-02-15T14:43:22.647000Z,,2024-02-15T14:43:23.280543Z,341.0,CVPIIDEI,2708,34,Male,White,United States,United States,United States,English,DATA_EXPIRED,DATA_EXPIRED,Not Applicable
5f171e9023611c038f0bd539,"<b>If a politician in my political party supports something I disagree with, I give them the benefit of the doubt, as such issues often involve hidden complexities that aren?t obvious.   ",Highly disagree,18/94,Somewhat agree,3,1708007938539,1708007943555,\Somewhat agree\,\Somewhat agree\,\3\,1708007942737,1708007942737,4198,4198,5016,buq,qns-item-noham,18,65248,0.0-1.0-0.17,65ce21b116bb961d68282a7e,AWAITING REVIEW,2024-02-15T14:37:42.530000Z,2024-02-15T14:43:22.647000Z,,2024-02-15T14:43:23.280543Z,341.0,CVPIIDEI,2708,34,Male,White,United States,United States,United States,English,DATA_EXPIRED,DATA_EXPIRED,Not Applicable
5f171e9023611c038f0bd539,<b>People?s bad politics are usually motivated by hatefulness.,Highly disagree,19/94,Somewhat disagree,2,1708007943560,1708007946258,\Somewhat disagree\,\Somewhat disagree\,\2\,1708007945537,1708007945537,1977,1977,2698,buq,qns-item-noham,19,67951,0.0-1.0-0.18,65ce21b116bb961d68282a7e,AWAITING REVIEW,2024-02-15T14:37:42.530000Z,2024-02-15T14:43:22.647000Z,,2024-02-15T14:43:23.280543Z,341.0,CVPIIDEI,2708,34,Male,White,United States,United States,United States,English,DATA_EXPIRED,DATA_EXPIRED,Not Applicable
5f171e9023611c038f0bd539,<b>I think a lot about how to reconcile my beliefs with one another.,Highly disagree,20/94,Somewhat disagree,2,1708007946263,1708007949331,\Somewhat agree\,\Somewhat disagree\,\3\,1708007948046,1708007948739,1783,2476,3068,buq,qns-item-noham,20,71024,0.0-1.0-0.19,65ce21b116bb961d68282a7e,AWAITING REVIEW,2024-02-15T14:37:42.530000Z,2024-02-15T14:43:22.647000Z,,2024-02-15T14:43:23.280543Z,341.0,CVPIIDEI,2708,34,Male,White,United States,United States,United States,English,DATA_EXPIRED,DATA_EXPIRED,Not Applicable
5f171e9023611c038f0bd539,<b>I might have false beliefs about important topics.,Highly disagree,21/94,Somewhat agree,3,1708007949335,1708007951838,\Somewhat agree\,\Somewhat agree\,\3\,1708007951249,1708007951249,1914,1914,2503,buq,qns-item-noham,21,73532,0.0-1.0-0.20,65ce21b116bb961d68282a7e,AWAITING REVIEW,2024-02-15T14:37:42.530000Z,2024-02-15T14:43:22.647000Z,,2024-02-15T14:43:23.280543Z,341.0,CVPIIDEI,2708,34,Male,White,United States,United States,United States,English,DATA_EXPIRED,DATA_EXPIRED,Not Applicable
5f171e9023611c038f0bd539,"<b>If a good friend of mine does something unexpected that upsets me, I feel like I don?t know them anymore.",Highly disagree,22/94,Somewhat disagree,2,1708007951842,1708007956891,\Somewhat disagree\,\Somewhat disagree\,\2\,1708007956290,1708007956290,4448,4448,5049,buq,qns-item-noham,22,78584,0.0-1.0-0.21,65ce21b116bb961d68282a7e,AWAITING REVIEW,2024-02-15T14:37:42.530000Z,2024-02-15T14:43:22.647000Z,,2024-02-15T14:43:23.280543Z,341.0,CVPIIDEI,2708,34,Male,White,United States,United States,United States,English,DATA_EXPIRED,DATA_EXPIRED,Not Applicable
5f171e9023611c038f0bd539,<b>Other people?s beliefs are often incoherent.,Highly disagree,23/94,Somewhat disagree,2,1708007956895,1708007959534,\Somewhat disagree\,\Somewhat disagree\,\2\,1708007959018,1708007959018,2123,2123,2639,buq,qns-item-noham,23,81227,0.0-1.0-0.22,65ce21b116bb961d68282a7e,AWAITING REVIEW,2024-02-15T14:37:42.530000Z,2024-02-15T14:43:22.647000Z,,2024-02-15T14:43:23.280543Z,341.0,CVPIIDEI,2708,34,Male,White,United States,United States,United States,English,DATA_EXPIRED,DATA_EXPIRED,Not Applicable
5f171e9023611c038f0bd539,"<b>Every now and then, a new experience will unsettle beliefs I?ve had for a while.",Highly disagree,24/94,Somewhat agree,3,1708007959538,1708007962272,\Somewhat agree\,\Somewhat agree\,\3\,1708007961434,1708007961434,1896,1896,2734,buq,qns-item-noham,24,83965,0.0-1.0-0.23,65ce21b116bb961d68282a7e,AWAITING REVIEW,2024-02-15T14:37:42.530000Z,2024-02-15T14:43:22.647000Z,,2024-02-15T14:43:23.280543Z,341.0,CVPIIDEI,2708,34,Male,White,United States,United States,United States,English,DATA_EXPIRED,DATA_EXPIRED,Not Applicable
5f171e9023611c038f0bd539,<b>Some policies I agree with in principle are so bad I don?t support them. ,Highly disagree,25/94,Somewhat agree,3,1708007962277,1708007964812,\Somewhat agree\,\Somewhat agree\,\3\,1708007963576,1708007963576,1299,1299,2535,buq,qns-item-noham,25,86505,0.0-1.0-0.24,65ce21b116bb961d68282a7e,AWAITING REVIEW,2024-02-15T14:37:42.530000Z,2024-02-15T14:43:22.647000Z,,2024-02-15T14:43:23.280543Z,341.0,CVPIIDEI,2708,34,Male,White,United States,United States,United States,English,DATA_EXPIRED,DATA_EXPIRED,Not Applicable
5f171e9023611c038f0bd539,<b>I?m pretty sure I?ve accidentally spread false information.,Highly disagree,26/94,Highly disagree,1,1708007964818,1708007967966,\Somewhat disagree\,\Highly disagree\,\2\,1708007966520,1708007967292,1702,2474,3148,buq,qns-item-noham,26,89659,0.0-1.0-0.25,65ce21b116bb961d68282a7e,AWAITING REVIEW,2024-02-15T14:37:42.530000Z,2024-02-15T14:43:22.647000Z,,2024-02-15T14:43:23.280543Z,341.0,CVPIIDEI,2708,34,Male,White,United States,United States,United States,English,DATA_EXPIRED,DATA_EXPIRED,Not Applicable
5f171e9023611c038f0bd539,"<b>If I go to my favorite restaurant and the food is unexpectedly bad, then they have changed owners.",Highly disagree,27/94,Highly disagree,1,1708007967970,1708007972270,\Highly disagree\,\Highly disagree\,\1\,1708007971586,1708007971586,3616,3616,4300,buq,qns-item-noham,27,93963,0.0-1.0-0.26,65ce21b116bb961d68282a7e,AWAITING REVIEW,2024-02-15T14:37:42.530000Z,2024-02-15T14:43:22.647000Z,,2024-02-15T14:43:23.280543Z,341.0,CVPIIDEI,2708,34,Male,White,United States,United States,United States,English,DATA_EXPIRED,DATA_EXPIRED,Not Applicable
5f171e9023611c038f0bd539,"<b>In politics, it?s important to trust your friends and family.",Highly disagree,28/94,Somewhat disagree,2,1708007972275,1708007974661,\Somewhat disagree\,\Somewhat disagree\,\2\,1708007974091,1708007974091,1816,1816,2386,buq,qns-item-noham,28,96354,0.0-1.0-0.27,65ce21b116bb961d68282a7e,AWAITING REVIEW,2024-02-15T14:37:42.530000Z,2024-02-15T14:43:22.647000Z,,2024-02-15T14:43:23.280543Z,341.0,CVPIIDEI,2708,34,Male,White,United States,United States,United States,English,DATA_EXPIRED,DATA_EXPIRED,Not Applicable
5f171e9023611c038f0bd539,<b>It?s OK to have some conflicting beliefs.,Highly disagree,29/94,Somewhat agree,3,1708007974666,1708007978215,\Somewhat agree\,\Somewhat agree\,\3\,1708007977626,1708007977626,2960,2960,3549,buq,qns-item-noham,29,99909,0.0-1.0-0.28,65ce21b116bb961d68282a7e,AWAITING REVIEW,2024-02-15T14:37:42.530000Z,2024-02-15T14:43:22.647000Z,,2024-02-15T14:43:23.280543Z,341.0,CVPIIDEI,2708,34,Male,White,United States,United States,United States,English,DATA_EXPIRED,DATA_EXPIRED,Not Applicable
5f171e9023611c038f0bd539,<b>Listening to people I disagree with makes my opinions better.,Highly disagree,30/94,Somewhat agree,3,1708007978219,1708007980529,\Somewhat agree\,\Somewhat agree\,\3\,1708007980064,1708007980064,1845,1845,2310,buq,qns-item-noham,30,102222,0.0-1.0-0.29,65ce21b116bb961d68282a7e,AWAITING REVIEW,2024-02-15T14:37:42.530000Z,2024-02-15T14:43:22.647000Z,,2024-02-15T14:43:23.280543Z,341.0,CVPIIDEI,2708,34,Male,White,United States,United States,United States,English,DATA_EXPIRED,DATA_EXPIRED,Not Applicable
5f171e9023611c038f0bd539,<b>My moral compass sometimes makes it harder to determine what?s true.,Highly disagree,31/94,Somewhat disagree,2,1708007980533,1708007983004,\Somewhat disagree\,\Somewhat disagree\,\2\,1708007982075,1708007982075,1542,1542,2471,buq,qns-item-noham,31,104697,0.0-1.0-0.30,65ce21b116bb961d68282a7e,AWAITING REVIEW,2024-02-15T14:37:42.530000Z,2024-02-15T14:43:22.647000Z,,2024-02-15T14:43:23.280543Z,341.0,CVPIIDEI,2708,34,Male,White,United States,United States,United States,English,DATA_EXPIRED,DATA_EXPIRED,Not Applicable
5f171e9023611c038f0bd539,<b>Evidence pointing in the wrong direction isn?t really evidence at all.,Highly disagree,32/94,Somewhat disagree,2,1708007983008,1708007985382,\Somewhat disagree\,\Somewhat disagree\,\2\,1708007984905,1708007984905,1897,1897,2374,buq,qns-item-noham,32,107075,0.0-1.0-0.31,65ce21b116bb961d68282a7e,AWAITING REVIEW,2024-02-15T14:37:42.530000Z,2024-02-15T14:43:22.647000Z,,2024-02-15T14:43:23.280543Z,341.0,CVPIIDEI,2708,34,Male,White,United States,United States,United States,English,DATA_EXPIRED,DATA_EXPIRED,Not Applicable
5f171e9023611c038f0bd539,"<b>If the political party I support messes up, it makes me think politics is rotten.",Highly disagree,33/94,Somewhat disagree,2,1708007985386,1708007988421,\Somewhat disagree\,\Somewhat disagree\,\2\,1708007988009,1708007988009,2623,2623,3035,buq,qns-item-noham,33,110114,0.0-1.0-0.32,65ce21b116bb961d68282a7e,AWAITING REVIEW,2024-02-15T14:37:42.530000Z,2024-02-15T14:43:22.647000Z,,2024-02-15T14:43:23.280543Z,341.0,CVPIIDEI,2708,34,Male,White,United States,United States,United States,English,DATA_EXPIRED,DATA_EXPIRED,Not Applicable
5f171e9023611c038f0bd539,<b>Lots of important topics can only really be understood by some groups of people.,Highly disagree,34/94,Somewhat disagree,2,1708007988426,1708007991138,\Somewhat disagree\,\Somewhat disagree\,\2\,1708007990761,1708007990761,2335,2335,2712,buq,qns-item-noham,34,112831,0.0-1.0-0.33,65ce21b116bb961d68282a7e,AWAITING REVIEW,2024-02-15T14:37:42.530000Z,2024-02-15T14:43:22.647000Z,,2024-02-15T14:43:23.280543Z,341.0,CVPIIDEI,2708,34,Male,White,United States,United States,United States,English,DATA_EXPIRED,DATA_EXPIRED,Not Applicable
5f171e9023611c038f0bd539,<b>Having conflicting beliefs means you haven?t thought about them enough.,Highly disagree,35/94,Somewhat disagree,2,1708007991143,1708007993826,\Somewhat disagree\,\Somewhat disagree\,\2\,1708007993396,1708007993396,2253,2253,2683,buq,qns-item-noham,35,115519,0.0-1.0-0.34,65ce21b116bb961d68282a7e,AWAITING REVIEW,2024-02-15T14:37:42.530000Z,2024-02-15T14:43:22.647000Z,,2024-02-15T14:43:23.280543Z,341.0,CVPIIDEI,2708,34,Male,White,United States,United States,United States,English,DATA_EXPIRED,DATA_EXPIRED,Not Applicable
5f171e9023611c038f0bd539,<b>I do not often change my political opinions.,Highly disagree,36/94,Somewhat disagree,2,1708007993831,1708007995487,\Somewhat disagree\,\Somewhat disagree\,\2\,1708007995061,1708007995061,1230,1230,1656,buq,qns-item-noham,36,117180,0.0-1.0-0.35,65ce21b116bb961d68282a7e,AWAITING REVIEW,2024-02-15T14:37:42.530000Z,2024-02-15T14:43:22.647000Z,,2024-02-15T14:43:23.280543Z,341.0,CVPIIDEI,2708,34,Male,White,United States,United States,United States,English,DATA_EXPIRED,DATA_EXPIRED,Not Applicable
5f171e9023611c038f0bd539,<b>It?s difficult to not have at least some conflicting beliefs.,Highly disagree,37/94,Somewhat disagree,2,1708007995493,1708007998675,\Somewhat disagree\,\Somewhat disagree\,\2\,1708007996926,1708007996926,1433,1433,3182,buq,qns-item-noham,37,120368,0.0-1.0-0.36,65ce21b116bb961d68282a7e,AWAITING REVIEW,2024-02-15T14:37:42.530000Z,2024-02-15T14:43:22.647000Z,,2024-02-15T14:43:23.280543Z,341.0,CVPIIDEI,2708,34,Male,White,United States,United States,United States,English,DATA_EXPIRED,DATA_EXPIRED,Not Applicable
5f171e9023611c038f0bd539,<b>Wishful thinking causes a lot of problems.,Highly disagree,38/94,Somewhat disagree,2,1708007998678,1708008000549,\Somewhat disagree\,\Somewhat disagree\,\2\,1708008000124,1708008000124,1446,1446,1871,buq,qns-item-noham,38,122242,0.0-1.0-0.37,65ce21b116bb961d68282a7e,AWAITING REVIEW,2024-02-15T14:37:42.530000Z,2024-02-15T14:43:22.647000Z,,2024-02-15T14:43:23.280543Z,341.0,CVPIIDEI,2708,34,Male,White,United States,United States,United States,English,DATA_EXPIRED,DATA_EXPIRED,Not Applicable
5f171e9023611c038f0bd539,<b>I judge a food item only once I try it many times.,Highly disagree,39/94,Somewhat disagree,2,1708008000552,1708008004349,\Somewhat disagree\,\Somewhat disagree\,\2\,1708008002202,1708008002202,1650,1650,3797,buq,qns-item-noham,39,126042,0.0-1.0-0.38,65ce21b116bb961d68282a7e,AWAITING REVIEW,2024-02-15T14:37:42.530000Z,2024-02-15T14:43:22.647000Z,,2024-02-15T14:43:23.280543Z,341.0,CVPIIDEI,2708,34,Male,White,United States,United States,United States,English,DATA_EXPIRED,DATA_EXPIRED,Not Applicable
5f171e9023611c038f0bd539,"<b>When a person holds conflicting beliefs, they should really try to figure out what?s wrong.",Highly disagree,40/94,Somewhat disagree,2,1708008004353,1708008007086,\Somewhat disagree\,\Somewhat disagree\,\2\,1708008006539,1708008006539,2186,2186,2733,buq,qns-item-noham,40,128779,0.0-1.0-0.39,65ce21b116bb961d68282a7e,AWAITING REVIEW,2024-02-15T14:37:42.530000Z,2024-02-15T14:43:22.647000Z,,2024-02-15T14:43:23.280543Z,341.0,CVPIIDEI,2708,34,Male,White,United States,United States,United States,English,DATA_EXPIRED,DATA_EXPIRED,Not Applicable
5f171e9023611c038f0bd539,<b>Knowing what?s important in life is easy.,Highly disagree,41/94,Somewhat agree,3,1708008007090,1708008010527,\Somewhat agree\,\Somewhat agree\,\3\,1708008009887,1708008009887,2797,2797,3437,buq,qns-item-noham,41,132220,0.0-1.0-0.40,65ce21b116bb961d68282a7e,AWAITING REVIEW,2024-02-15T14:37:42.530000Z,2024-02-15T14:43:22.647000Z,,2024-02-15T14:43:23.280543Z,341.0,CVPIIDEI,2708,34,Male,White,United States,United States,United States,English,DATA_EXPIRED,DATA_EXPIRED,Not Applicable
5f171e9023611c038f0bd539,<b>I swim across the Atlantic Ocean to get to work every day.,Highly disagree,42/94,Highly disagree,1,1708008010530,1708008012827,\Highly disagree\,\Highly disagree\,\1\,1708008012130,1708008012130,1600,1600,2297,buq,qns-item-noham,42,134520,0.0-1.0-0.41,65ce21b116bb961d68282a7e,AWAITING REVIEW,2024-02-15T14:37:42.530000Z,2024-02-15T14:43:22.647000Z,,2024-02-15T14:43:23.280543Z,341.0,CVPIIDEI,2708,34,Male,White,United States,United States,United States,English,DATA_EXPIRED,DATA_EXPIRED,Not Applicable
5f171e9023611c038f0bd539,"<b>Sometimes, you just have to ignore evidence that you know is wrong.",Highly disagree,43/94,Somewhat disagree,2,1708008012831,1708008016956,\Somewhat disagree\,\Somewhat disagree\,\2\,1708008014531,1708008016344,1700,3513,4125,buq,qns-item-noham,43,138649,0.0-1.0-0.42,65ce21b116bb961d68282a7e,AWAITING REVIEW,2024-02-15T14:37:42.530000Z,2024-02-15T14:43:22.647000Z,,2024-02-15T14:43:23.280543Z,341.0,CVPIIDEI,2708,34,Male,White,United States,United States,United States,English,DATA_EXPIRED,DATA_EXPIRED,Not Applicable
5f171e9023611c038f0bd539,<b>I have had some false beliefs.,Highly disagree,44/94,Somewhat agree,3,1708008016961,1708008020628,\Somewhat disagree\,\Somewhat agree\,\2\,1708008018077,1708008019925,1116,2964,3667,buq,qns-item-noham,44,142321,0.0-1.0-0.43,65ce21b116bb961d68282a7e,AWAITING REVIEW,2024-02-15T14:37:42.530000Z,2024-02-15T14:43:22.647000Z,,2024-02-15T14:43:23.280543Z,341.0,CVPIIDEI,2708,34,Male,White,United States,United States,United States,English,DATA_EXPIRED,DATA_EXPIRED,Not Applicable
5f171e9023611c038f0bd539,"<b>If one friend does something that upsets me, I sometimes start to distrust people in general.",Highly disagree,45/94,Somewhat disagree,2,1708008020631,1708008022831,\Somewhat disagree\,\Somewhat disagree\,\2\,1708008022525,1708008022525,1894,1894,2200,buq,qns-item-noham,45,144524,0.0-1.0-0.44,65ce21b116bb961d68282a7e,AWAITING REVIEW,2024-02-15T14:37:42.530000Z,2024-02-15T14:43:22.647000Z,,2024-02-15T14:43:23.280543Z,341.0,CVPIIDEI,2708,34,Male,White,United States,United States,United States,English,DATA_EXPIRED,DATA_EXPIRED,Not Applicable
5f171e9023611c038f0bd539,<b>The facts about most important matters are easy to find.,Highly disagree,46/94,Somewhat disagree,2,1708008022835,1708008027490,\Somewhat disagree\,\Somewhat disagree\,\2\,1708008024003,1708008026817,1168,3982,4655,buq,qns-item-noham,46,149183,0.0-1.0-0.45,65ce21b116bb961d68282a7e,AWAITING REVIEW,2024-02-15T14:37:42.530000Z,2024-02-15T14:43:22.647000Z,,2024-02-15T14:43:23.280543Z,341.0,CVPIIDEI,2708,34,Male,White,United States,United States,United States,English,DATA_EXPIRED,DATA_EXPIRED,Not Applicable
5f171e9023611c038f0bd539,<b>It?s better to know what?s true than to know what?s moral.,Highly disagree,47/94,Somewhat disagree,2,1708008027496,1708008032622,\Somewhat disagree\,\Somewhat disagree\,\2\,1708008029523,1708008031982,2027,4486,5126,buq,qns-item-noham,47,154315,0.0-1.0-0.46,65ce21b116bb961d68282a7e,AWAITING REVIEW,2024-02-15T14:37:42.530000Z,2024-02-15T14:43:22.647000Z,,2024-02-15T14:43:23.280543Z,341.0,CVPIIDEI,2708,34,Male,White,United States,United States,United States,English,DATA_EXPIRED,DATA_EXPIRED,Not Applicable
5f171e9023611c038f0bd539,<b>I used to think the world was less complicated than I do now.,Highly disagree,48/94,Somewhat agree,3,1708008032626,1708008035491,\Somewhat agree\,\Somewhat agree\,\3\,1708008034788,1708008034788,2162,2162,2865,buq,qns-item-noham,48,157184,0.0-1.0-0.47,65ce21b116bb961d68282a7e,AWAITING REVIEW,2024-02-15T14:37:42.530000Z,2024-02-15T14:43:22.647000Z,,2024-02-15T14:43:23.280543Z,341.0,CVPIIDEI,2708,34,Male,White,United States,United States,United States,English,DATA_EXPIRED,DATA_EXPIRED,Not Applicable
5f171e9023611c038f0bd539,<b>People are usually completely right or completely wrong.,Highly disagree,49/94,Highly disagree,1,1708008035494,1708008038163,\Somewhat disagree\,\Highly disagree\,\2\,1708008036889,1708008037640,1395,2146,2669,buq,qns-item-noham,49,159857,0.0-1.0-0.48,65ce21b116bb961d68282a7e,AWAITING REVIEW,2024-02-15T14:37:42.530000Z,2024-02-15T14:43:22.647000Z,,2024-02-15T14:43:23.280543Z,341.0,CVPIIDEI,2708,34,Male,White,United States,United States,United States,English,DATA_EXPIRED,DATA_EXPIRED,Not Applicable
5f171e9023611c038f0bd539,<b>I spend a lot of time considering alternatives to my beliefs.,Highly disagree,50/94,Somewhat agree,3,1708008038168,1708008040604,\Somewhat agree\,\Somewhat agree\,\3\,1708008039766,1708008039766,1598,1598,2436,buq,qns-item-noham,50,162297,0.0-1.0-0.49,65ce21b116bb961d68282a7e,AWAITING REVIEW,2024-02-15T14:37:42.530000Z,2024-02-15T14:43:22.647000Z,,2024-02-15T14:43:23.280543Z,341.0,CVPIIDEI,2708,34,Male,White,United States,United States,United States,English,DATA_EXPIRED,DATA_EXPIRED,Not Applicable
5f171e9023611c038f0bd539,"<b>Political enemies need to be defeated, not convinced.",Highly disagree,51/94,Highly disagree,1,1708008040609,1708008044817,\Highly disagree\,\Highly disagree\,\1\,1708008044050,1708008044050,3441,3441,4208,buq,qns-item-noham,51,166510,0.0-1.0-0.50,65ce21b116bb961d68282a7e,AWAITING REVIEW,2024-02-15T14:37:42.530000Z,2024-02-15T14:43:22.647000Z,,2024-02-15T14:43:23.280543Z,341.0,CVPIIDEI,2708,34,Male,White,United States,United States,United States,English,DATA_EXPIRED,DATA_EXPIRED,Not Applicable
5f171e9023611c038f0bd539,<b>I form my political views only after meticulously gathering historical and present information about their policies.,Highly disagree,52/94,Somewhat agree,3,1708008044821,1708008049022,\Somewhat agree\,\Somewhat agree\,\3\,1708008048300,1708008048300,3479,3479,4201,buq,qns-item-noham,52,170715,0.0-1.0-0.51,65ce21b116bb961d68282a7e,AWAITING REVIEW,2024-02-15T14:37:42.530000Z,2024-02-15T14:43:22.647000Z,,2024-02-15T14:43:23.280543Z,341.0,CVPIIDEI,2708,34,Male,White,United States,United States,United States,English,DATA_EXPIRED,DATA_EXPIRED,Not Applicable
5f171e9023611c038f0bd539,<b>It is difficult for me to remember the last time I was surprised by politics.,Highly disagree,53/94,Somewhat disagree,2,1708008049026,1708008051866,\Somewhat disagree\,\Somewhat disagree\,\2\,1708008051154,1708008051154,2128,2128,2840,buq,qns-item-noham,53,173559,0.0-1.0-0.52,65ce21b116bb961d68282a7e,AWAITING REVIEW,2024-02-15T14:37:42.530000Z,2024-02-15T14:43:22.647000Z,,2024-02-15T14:43:23.280543Z,341.0,CVPIIDEI,2708,34,Male,White,United States,United States,United States,English,DATA_EXPIRED,DATA_EXPIRED,Not Applicable
5f171e9023611c038f0bd539,"<b>When I find out I?m wrong, I think a lot about my related beliefs.",Highly disagree,54/94,Somewhat agree,3,1708008051870,1708008053942,\Somewhat agree\,\Somewhat agree\,\3\,1708008053234,1708008053234,1364,1364,2072,buq,qns-item-noham,54,175635,0.0-1.0-0.53,65ce21b116bb961d68282a7e,AWAITING REVIEW,2024-02-15T14:37:42.530000Z,2024-02-15T14:43:22.647000Z,,2024-02-15T14:43:23.280543Z,341.0,CVPIIDEI,2708,34,Male,White,United States,United States,United States,English,DATA_EXPIRED,DATA_EXPIRED,Not Applicable
5f171e9023611c038f0bd539,"<b>If the political party I support messes up, it makes me think you can?t trust anyone these days",Highly disagree,55/94,Somewhat disagree,2,1708008053948,1708008056330,\Somewhat disagree\,\Somewhat disagree\,\2\,1708008055595,1708008055595,1647,1647,2382,buq,qns-item-noham,55,178023,0.0-1.0-0.54,65ce21b116bb961d68282a7e,AWAITING REVIEW,2024-02-15T14:37:42.530000Z,2024-02-15T14:43:22.647000Z,,2024-02-15T14:43:23.280543Z,341.0,CVPIIDEI,2708,34,Male,White,United States,United States,United States,English,DATA_EXPIRED,DATA_EXPIRED,Not Applicable
5f171e9023611c038f0bd539,<b>People?s brains turn off when they talk about politics.,Highly disagree,56/94,Somewhat agree,3,1708008056334,1708008059054,\Somewhat agree\,\Somewhat agree\,\3\,1708008058302,1708008058302,1968,1968,2720,buq,qns-item-noham,56,180747,0.0-1.0-0.55,65ce21b116bb961d68282a7e,AWAITING REVIEW,2024-02-15T14:37:42.530000Z,2024-02-15T14:43:22.647000Z,,2024-02-15T14:43:23.280543Z,341.0,CVPIIDEI,2708,34,Male,White,United States,United States,United States,English,DATA_EXPIRED,DATA_EXPIRED,Not Applicable
5f171e9023611c038f0bd539,<b>People who are wrong are usually just ignoring the obvious.,Highly disagree,57/94,Somewhat disagree,2,1708008059060,1708008062919,\Somewhat agree\,\Somewhat disagree\,\3\,1708008061344,1708008062238,2284,3178,3859,buq,qns-item-noham,57,184612,0.0-1.0-0.56,65ce21b116bb961d68282a7e,AWAITING REVIEW,2024-02-15T14:37:42.530000Z,2024-02-15T14:43:22.647000Z,,2024-02-15T14:43:23.280543Z,341.0,CVPIIDEI,2708,34,Male,White,United States,United States,United States,English,DATA_EXPIRED,DATA_EXPIRED,Not Applicable
5f171e9023611c038f0bd539,"<b>When forming my views on people, I rely more on what they are like now rather than rely on my past experience with them.",Highly disagree,58/94,Somewhat disagree,2,1708008062922,1708008065953,\Somewhat disagree\,\Somewhat disagree\,\2\,1708008065007,1708008065007,2085,2085,3031,buq,qns-item-noham,58,187646,0.0-1.0-0.57,65ce21b116bb961d68282a7e,AWAITING REVIEW,2024-02-15T14:37:42.530000Z,2024-02-15T14:43:22.647000Z,,2024-02-15T14:43:23.280543Z,341.0,CVPIIDEI,2708,34,Male,White,United States,United States,United States,English,DATA_EXPIRED,DATA_EXPIRED,Not Applicable
5f171e9023611c038f0bd539,"<b>When people contradict my beliefs, I usually know about their evidence already.",Highly disagree,59/94,Somewhat disagree,2,1708008065957,1708008068776,\Somewhat disagree\,\Somewhat disagree\,\2\,1708008068107,1708008068107,2150,2150,2819,buq,qns-item-noham,59,190469,0.0-1.0-0.58,65ce21b116bb961d68282a7e,AWAITING REVIEW,2024-02-15T14:37:42.530000Z,2024-02-15T14:43:22.647000Z,,2024-02-15T14:43:23.280543Z,341.0,CVPIIDEI,2708,34,Male,White,United States,United States,United States,English,DATA_EXPIRED,DATA_EXPIRED,Not Applicable
5f171e9023611c038f0bd539,<b>Figuring out what?s true and what?s false mainly requires a strong moral compass.,Highly disagree,60/94,Somewhat disagree,2,1708008068782,1708008072998,\Somewhat agree\,\Somewhat disagree\,\3\,1708008070645,1708008072153,1863,3371,4216,buq,qns-item-noham,60,194691,0.0-1.0-0.59,65ce21b116bb961d68282a7e,AWAITING REVIEW,2024-02-15T14:37:42.530000Z,2024-02-15T14:43:22.647000Z,,2024-02-15T14:43:23.280543Z,341.0,CVPIIDEI,2708,34,Male,White,United States,United States,United States,English,DATA_EXPIRED,DATA_EXPIRED,Not Applicable
5f171e9023611c038f0bd539,"<b>Usually I?m wrong about simple things, not complicated ones.",Highly disagree,61/94,Somewhat disagree,2,1708008073003,1708008077521,\Somewhat disagree\,\Somewhat disagree\,\2\,1708008075572,1708008076910,2569,3907,4518,buq,qns-item-noham,61,199215,0.0-1.0-0.60,65ce21b116bb961d68282a7e,AWAITING REVIEW,2024-02-15T14:37:42.530000Z,2024-02-15T14:43:22.647000Z,,2024-02-15T14:43:23.280543Z,341.0,CVPIIDEI,2708,34,Male,White,United States,United States,United States,English,DATA_EXPIRED,DATA_EXPIRED,Not Applicable
5f171e9023611c038f0bd539,<b>Getting all the information I want about important things is hard.,Highly disagree,62/94,Somewhat disagree,2,1708008077527,1708008079691,\Somewhat disagree\,\Somewhat disagree\,\2\,1708008078323,1708008078323,796,796,2164,buq,qns-item-noham,62,201384,0.0-1.0-0.61,65ce21b116bb961d68282a7e,AWAITING REVIEW,2024-02-15T14:37:42.530000Z,2024-02-15T14:43:22.647000Z,,2024-02-15T14:43:23.280543Z,341.0,CVPIIDEI,2708,34,Male,White,United States,United States,United States,English,DATA_EXPIRED,DATA_EXPIRED,Not Applicable
5f171e9023611c038f0bd539,<b>Most false beliefs spread because people try to deceive one another.,Highly disagree,63/94,Highly disagree,1,1708008079697,1708008082740,\Highly disagree\,\Highly disagree\,\1\,1708008082101,1708008082101,2404,2404,3043,buq,qns-item-noham,63,204433,0.0-1.0-0.62,65ce21b116bb961d68282a7e,AWAITING REVIEW,2024-02-15T14:37:42.530000Z,2024-02-15T14:43:22.647000Z,,2024-02-15T14:43:23.280543Z,341.0,CVPIIDEI,2708,34,Male,White,United States,United States,United States,English,DATA_EXPIRED,DATA_EXPIRED,Not Applicable
5f171e9023611c038f0bd539,<b>I can usually find something to agree with in most people?s beliefs.,Highly disagree,64/94,Somewhat agree,3,1708008082745,1708008086353,\Somewhat agree\,\Somewhat agree\,\3\,1708008085690,1708008085690,2945,2945,3608,buq,qns-item-noham,64,208046,0.0-1.0-0.63,65ce21b116bb961d68282a7e,AWAITING REVIEW,2024-02-15T14:37:42.530000Z,2024-02-15T14:43:22.647000Z,,2024-02-15T14:43:23.280543Z,341.0,CVPIIDEI,2708,34,Male,White,United States,United States,United States,English,DATA_EXPIRED,DATA_EXPIRED,Not Applicable
5f171e9023611c038f0bd539,<b>I only form my views of people once I get to know them very well.,Highly disagree,65/94,Somewhat agree,3,1708008086358,1708008089261,\Somewhat agree\,\Somewhat agree\,\3\,1708008088323,1708008088323,1965,1965,2903,buq,qns-item-noham,65,210954,0.0-1.0-0.64,65ce21b116bb961d68282a7e,AWAITING REVIEW,2024-02-15T14:37:42.530000Z,2024-02-15T14:43:22.647000Z,,2024-02-15T14:43:23.280543Z,341.0,CVPIIDEI,2708,34,Male,White,United States,United States,United States,English,DATA_EXPIRED,DATA_EXPIRED,Not Applicable
5f171e9023611c038f0bd539,"<b>When people tell me important things about the world, I usually believe them.",Highly disagree,66/94,Somewhat disagree,2,1708008089265,1708008092666,\Somewhat disagree\,\Somewhat disagree\,\2\,1708008091782,1708008091782,2517,2517,3401,buq,qns-item-noham,66,214359,0.0-1.0-0.65,65ce21b116bb961d68282a7e,AWAITING REVIEW,2024-02-15T14:37:42.530000Z,2024-02-15T14:43:22.647000Z,,2024-02-15T14:43:23.280543Z,341.0,CVPIIDEI,2708,34,Male,White,United States,United States,United States,English,DATA_EXPIRED,DATA_EXPIRED,Not Applicable
5f171e9023611c038f0bd539,"<b>If a friend does something that upsets me, it reminds me what an unpredictable place the world is.",Highly disagree,67/94,Somewhat disagree,2,1708008092672,1708008096077,\Somewhat disagree\,\Somewhat disagree\,\2\,1708008095510,1708008095510,2838,2838,3405,buq,qns-item-noham,67,217770,0.0-1.0-0.66,65ce21b116bb961d68282a7e,AWAITING REVIEW,2024-02-15T14:37:42.530000Z,2024-02-15T14:43:22.647000Z,,2024-02-15T14:43:23.280543Z,341.0,CVPIIDEI,2708,34,Male,White,United States,United States,United States,English,DATA_EXPIRED,DATA_EXPIRED,Not Applicable
5f171e9023611c038f0bd539,<b>People tend to believe whatever is good for their friends.,Highly disagree,68/94,Somewhat disagree,2,1708008096081,1708008098310,\Somewhat disagree\,\Somewhat disagree\,\2\,1708008097732,1708008097732,1651,1651,2229,buq,qns-item-noham,68,220003,0.0-1.0-0.67,65ce21b116bb961d68282a7e,AWAITING REVIEW,2024-02-15T14:37:42.530000Z,2024-02-15T14:43:22.647000Z,,2024-02-15T14:43:23.280543Z,341.0,CVPIIDEI,2708,34,Male,White,United States,United States,United States,English,DATA_EXPIRED,DATA_EXPIRED,Not Applicable
5f171e9023611c038f0bd539,<b>I used to be more certain my beliefs were true.,Highly disagree,69/94,Somewhat disagree,2,1708008098315,1708008100506,\Somewhat disagree\,\Somewhat disagree\,\2\,1708008099898,1708008099898,1583,1583,2191,buq,qns-item-noham,69,222200,0.0-1.0-0.68,65ce21b116bb961d68282a7e,AWAITING REVIEW,2024-02-15T14:37:42.530000Z,2024-02-15T14:43:22.647000Z,,2024-02-15T14:43:23.280543Z,341.0,CVPIIDEI,2708,34,Male,White,United States,United States,United States,English,DATA_EXPIRED,DATA_EXPIRED,Not Applicable
5f171e9023611c038f0bd539,<b>It?s often pretty easy to figure out whether something is true based on who said it.,Highly disagree,70/94,Somewhat disagree,2,1708008100514,1708008102521,\Somewhat disagree\,\Somewhat disagree\,\2\,1708008101872,1708008101872,1358,1358,2007,buq,qns-item-noham,70,224214,0.0-1.0-0.69,65ce21b116bb961d68282a7e,AWAITING REVIEW,2024-02-15T14:37:42.530000Z,2024-02-15T14:43:22.647000Z,,2024-02-15T14:43:23.280543Z,341.0,CVPIIDEI,2708,34,Male,White,United States,United States,United States,English,DATA_EXPIRED,DATA_EXPIRED,Not Applicable
5f171e9023611c038f0bd539,<b>I transform into a hummingbird every day.,Highly disagree,71/94,Highly disagree,1,1708008102525,1708008104909,\Highly disagree\,\Highly disagree\,\1\,1708008104154,1708008104154,1629,1629,2384,buq,qns-item-noham,71,226602,0.0-1.0-0.70,65ce21b116bb961d68282a7e,AWAITING REVIEW,2024-02-15T14:37:42.530000Z,2024-02-15T14:43:22.647000Z,,2024-02-15T14:43:23.280543Z,341.0,CVPIIDEI,2708,34,Male,White,United States,United States,United States,English,DATA_EXPIRED,DATA_EXPIRED,Not Applicable
5f171e9023611c038f0bd539,<b>I think a lot about arguments against my views.,Highly disagree,72/94,Somewhat disagree,2,1708008104913,1708008108995,\Somewhat disagree\,\Somewhat disagree\,\2\,1708008108344,1708008108344,3431,3431,4082,buq,qns-item-noham,72,230688,0.0-1.0-0.71,65ce21b116bb961d68282a7e,AWAITING REVIEW,2024-02-15T14:37:42.530000Z,2024-02-15T14:43:22.647000Z,,2024-02-15T14:43:23.280543Z,341.0,CVPIIDEI,2708,34,Male,White,United States,United States,United States,English,DATA_EXPIRED,DATA_EXPIRED,Not Applicable
5f171e9023611c038f0bd539,<b>Personal experience is usually more important than facts and figures.,Highly disagree,73/94,Somewhat disagree,2,1708008109001,1708008113892,\Somewhat agree\,\Somewhat disagree\,\3\,1708008110709,1708008113302,1708,4301,4891,buq,qns-item-noham,73,235585,0.0-1.0-0.72,65ce21b116bb961d68282a7e,AWAITING REVIEW,2024-02-15T14:37:42.530000Z,2024-02-15T14:43:22.647000Z,,2024-02-15T14:43:23.280543Z,341.0,CVPIIDEI,2708,34,Male,White,United States,United States,United States,English,DATA_EXPIRED,DATA_EXPIRED,Not Applicable
5f171e9023611c038f0bd539,<b>I?ve been tricked before about important matters.,Highly disagree,74/94,Somewhat disagree,2,1708008113897,1708008115969,\Somewhat disagree\,\Somewhat disagree\,\2\,1708008115503,1708008115503,1606,1606,2072,buq,qns-item-noham,74,237662,0.0-1.0-0.73,65ce21b116bb961d68282a7e,AWAITING REVIEW,2024-02-15T14:37:42.530000Z,2024-02-15T14:43:22.647000Z,,2024-02-15T14:43:23.280543Z,341.0,CVPIIDEI,2708,34,Male,White,United States,United States,United States,English,DATA_EXPIRED,DATA_EXPIRED,Not Applicable
5f171e9023611c038f0bd539,<b>I would need to be totally wowed if I were to change my opinion of a restaurant I don?t like.,Highly disagree,75/94,Somewhat disagree,2,1708008115974,1708008121967,\Somewhat disagree\,\Somewhat disagree\,\2\,1708008120611,1708008120611,4637,4637,5993,buq,qns-item-noham,75,243660,0.0-1.0-0.74,65ce21b116bb961d68282a7e,AWAITING REVIEW,2024-02-15T14:37:42.530000Z,2024-02-15T14:43:22.647000Z,,2024-02-15T14:43:23.280543Z,341.0,CVPIIDEI,2708,34,Male,White,United States,United States,United States,English,DATA_EXPIRED,DATA_EXPIRED,Not Applicable
5f171e9023611c038f0bd539,<b>I care a lot about politics.,Highly disagree,76/94,Somewhat disagree,2,1708008121971,1708008124930,\Somewhat agree\,\Somewhat disagree\,\3\,1708008123497,1708008124412,1526,2441,2959,buq,qns-item-noham,76,246623,0.0-1.0-0.75,65ce21b116bb961d68282a7e,AWAITING REVIEW,2024-02-15T14:37:42.530000Z,2024-02-15T14:43:22.647000Z,,2024-02-15T14:43:23.280543Z,341.0,CVPIIDEI,2708,34,Male,White,United States,United States,United States,English,DATA_EXPIRED,DATA_EXPIRED,Not Applicable
5f171e9023611c038f0bd539,<b>There are some topics I?ve been really wrong about.,Highly disagree,77/94,Somewhat agree,3,1708008124934,1708008126836,\Somewhat agree\,\Somewhat agree\,\3\,1708008126306,1708008126306,1372,1372,1902,buq,qns-item-noham,77,248529,0.0-1.0-0.76,65ce21b116bb961d68282a7e,AWAITING REVIEW,2024-02-15T14:37:42.530000Z,2024-02-15T14:43:22.647000Z,,2024-02-15T14:43:23.280543Z,341.0,CVPIIDEI,2708,34,Male,White,United States,United States,United States,English,DATA_EXPIRED,DATA_EXPIRED,Not Applicable
5f171e9023611c038f0bd539,<b>Most beliefs can be supported with at least some evidence.,Highly disagree,78/94,Somewhat agree,3,1708008126843,1708008128883,\Somewhat agree\,\Somewhat agree\,\3\,1708008128395,1708008128395,1552,1552,2040,buq,qns-item-noham,78,250577,0.0-1.0-0.77,65ce21b116bb961d68282a7e,AWAITING REVIEW,2024-02-15T14:37:42.530000Z,2024-02-15T14:43:22.647000Z,,2024-02-15T14:43:23.280543Z,341.0,CVPIIDEI,2708,34,Male,White,United States,United States,United States,English,DATA_EXPIRED,DATA_EXPIRED,Not Applicable
5f171e9023611c038f0bd539,<b>Other people make life out to be more complicated than it really is.,Highly disagree,79/94,Somewhat disagree,2,1708008128888,1708008131017,\Somewhat disagree\,\Somewhat disagree\,\2\,1708008130520,1708008130520,1632,1632,2129,buq,qns-item-noham,79,252710,0.0-1.0-0.78,65ce21b116bb961d68282a7e,AWAITING REVIEW,2024-02-15T14:37:42.530000Z,2024-02-15T14:43:22.647000Z,,2024-02-15T14:43:23.280543Z,341.0,CVPIIDEI,2708,34,Male,White,United States,United States,United States,English,DATA_EXPIRED,DATA_EXPIRED,Not Applicable
5f171e9023611c038f0bd539,"<b>Policy details don?t matter much, just the big picture.",Highly disagree,80/94,Somewhat disagree,2,1708008131023,1708008133334,\Somewhat disagree\,\Somewhat disagree\,\2\,1708008133001,1708008133001,1978,1978,2311,buq,qns-item-noham,80,255027,0.0-1.0-0.79,65ce21b116bb961d68282a7e,AWAITING REVIEW,2024-02-15T14:37:42.530000Z,2024-02-15T14:43:22.647000Z,,2024-02-15T14:43:23.280543Z,341.0,CVPIIDEI,2708,34,Male,White,United States,United States,United States,English,DATA_EXPIRED,DATA_EXPIRED,Not Applicable
5f171e9023611c038f0bd539,<b>I know my friends so well they can hardly ever surprise me.,Highly disagree,81/94,Somewhat agree,3,1708008133340,1708008136375,\Somewhat agree\,\Somewhat agree\,\3\,1708008135908,1708008135908,2568,2568,3035,buq,qns-item-noham,81,258068,0.0-1.0-0.80,65ce21b116bb961d68282a7e,AWAITING REVIEW,2024-02-15T14:37:42.530000Z,2024-02-15T14:43:22.647000Z,,2024-02-15T14:43:23.280543Z,341.0,CVPIIDEI,2708,34,Male,White,United States,United States,United States,English,DATA_EXPIRED,DATA_EXPIRED,Not Applicable
5f171e9023611c038f0bd539,<b>I do not often change my views on people.,Highly disagree,82/94,Somewhat disagree,2,1708008136380,1708008137736,\Somewhat disagree\,\Somewhat disagree\,\2\,1708008137334,1708008137334,954,954,1356,buq,qns-item-noham,82,259429,0.0-1.0-0.81,65ce21b116bb961d68282a7e,AWAITING REVIEW,2024-02-15T14:37:42.530000Z,2024-02-15T14:43:22.647000Z,,2024-02-15T14:43:23.280543Z,341.0,CVPIIDEI,2708,34,Male,White,United States,United States,United States,English,DATA_EXPIRED,DATA_EXPIRED,Not Applicable
5f171e9023611c038f0bd539,<b>I?m more certain about my beliefs than I used to be.,Highly disagree,83/94,Somewhat disagree,2,1708008137743,1708008140133,\Somewhat disagree\,\Somewhat disagree\,\2\,1708008139316,1708008139316,1573,1573,2390,buq,qns-item-noham,83,261826,0.0-1.0-0.82,65ce21b116bb961d68282a7e,AWAITING REVIEW,2024-02-15T14:37:42.530000Z,2024-02-15T14:43:22.647000Z,,2024-02-15T14:43:23.280543Z,341.0,CVPIIDEI,2708,34,Male,White,United States,United States,United States,English,DATA_EXPIRED,DATA_EXPIRED,Not Applicable
5f171e9023611c038f0bd539,<b>People often tell falsehoods unintentionally.,Highly disagree,84/94,Somewhat agree,3,1708008140138,1708008142457,\Somewhat agree\,\Somewhat agree\,\3\,1708008141928,1708008141928,1790,1790,2319,buq,qns-item-noham,84,264150,0.0-1.0-0.83,65ce21b116bb961d68282a7e,AWAITING REVIEW,2024-02-15T14:37:42.530000Z,2024-02-15T14:43:22.647000Z,,2024-02-15T14:43:23.280543Z,341.0,CVPIIDEI,2708,34,Male,White,United States,United States,United States,English,DATA_EXPIRED,DATA_EXPIRED,Not Applicable
5f171e9023611c038f0bd539,<b>Most people don?t know much about most things.,Highly disagree,85/94,Somewhat disagree,2,1708008142460,1708008144903,\Somewhat disagree\,\Somewhat disagree\,\2\,1708008144506,1708008144506,2046,2046,2443,buq,qns-item-noham,85,266596,0.0-1.0-0.84,65ce21b116bb961d68282a7e,AWAITING REVIEW,2024-02-15T14:37:42.530000Z,2024-02-15T14:43:22.647000Z,,2024-02-15T14:43:23.280543Z,341.0,CVPIIDEI,2708,34,Male,White,United States,United States,United States,English,DATA_EXPIRED,DATA_EXPIRED,Not Applicable
5f171e9023611c038f0bd539,"<b>If I find out something new about someone, I easily change my views about them.",Highly disagree,86/94,Somewhat agree,3,1708008144908,1708008148626,\Somewhat disagree\,\Somewhat agree\,\2\,1708008147193,1708008147914,2285,3006,3718,buq,qns-item-noham,86,270319,0.0-1.0-0.85,65ce21b116bb961d68282a7e,AWAITING REVIEW,2024-02-15T14:37:42.530000Z,2024-02-15T14:43:22.647000Z,,2024-02-15T14:43:23.280543Z,341.0,CVPIIDEI,2708,34,Male,White,United States,United States,United States,English,DATA_EXPIRED,DATA_EXPIRED,Not Applicable
5f171e9023611c038f0bd539,<b>Having true beliefs is difficult.,Highly disagree,87/94,Somewhat disagree,2,1708008148634,1708008150650,\Somewhat disagree\,\Somewhat disagree\,\2\,1708008150225,1708008150225,1591,1591,2016,buq,qns-item-noham,87,272343,0.0-1.0-0.86,65ce21b116bb961d68282a7e,AWAITING REVIEW,2024-02-15T14:37:42.530000Z,2024-02-15T14:43:22.647000Z,,2024-02-15T14:43:23.280543Z,341.0,CVPIIDEI,2708,34,Male,White,United States,United States,United States,English,DATA_EXPIRED,DATA_EXPIRED,Not Applicable
5f171e9023611c038f0bd539,<b>I don?t try new foods since I know I won?t like them.,Highly disagree,88/94,Highly disagree,1,1708008150654,1708008152895,\Highly disagree\,\Highly disagree\,\1\,1708008152252,1708008152252,1598,1598,2241,buq,qns-item-noham,88,274588,0.0-1.0-0.87,65ce21b116bb961d68282a7e,AWAITING REVIEW,2024-02-15T14:37:42.530000Z,2024-02-15T14:43:22.647000Z,,2024-02-15T14:43:23.280543Z,341.0,CVPIIDEI,2708,34,Male,White,United States,United States,United States,English,DATA_EXPIRED,DATA_EXPIRED,Not Applicable
5f171e9023611c038f0bd539,<b>Other people trick each other a lot.,Highly disagree,89/94,Somewhat disagree,2,1708008152899,1708008154741,\Somewhat disagree\,\Somewhat disagree\,\2\,1708008154263,1708008154263,1364,1364,1842,buq,qns-item-noham,89,276435,0.0-1.0-0.88,65ce21b116bb961d68282a7e,AWAITING REVIEW,2024-02-15T14:37:42.530000Z,2024-02-15T14:43:22.647000Z,,2024-02-15T14:43:23.280543Z,341.0,CVPIIDEI,2708,34,Male,White,United States,United States,United States,English,DATA_EXPIRED,DATA_EXPIRED,Not Applicable
5f171e9023611c038f0bd539,<b>I would need to learn a lot about a person for my opinion of them to be swayed.,Highly disagree,90/94,Somewhat disagree,2,1708008154746,1708008157526,\Somewhat disagree\,\Somewhat disagree\,\2\,1708008157050,1708008157050,2304,2304,2780,buq,qns-item-noham,90,279219,0.0-1.0-0.89,65ce21b116bb961d68282a7e,AWAITING REVIEW,2024-02-15T14:37:42.530000Z,2024-02-15T14:43:22.647000Z,,2024-02-15T14:43:23.280543Z,341.0,CVPIIDEI,2708,34,Male,White,United States,United States,United States,English,DATA_EXPIRED,DATA_EXPIRED,Not Applicable
5f171e9023611c038f0bd539,<b>People can?t usually trick me when it comes to topics I care about.,Highly disagree,91/94,Somewhat disagree,2,1708008157531,1708008161351,\Somewhat disagree\,\Somewhat disagree\,\2\,1708008160775,1708008160775,3244,3244,3820,buq,qns-item-noham,91,283044,0.0-1.0-0.90,65ce21b116bb961d68282a7e,AWAITING REVIEW,2024-02-15T14:37:42.530000Z,2024-02-15T14:43:22.647000Z,,2024-02-15T14:43:23.280543Z,341.0,CVPIIDEI,2708,34,Male,White,United States,United States,United States,English,DATA_EXPIRED,DATA_EXPIRED,Not Applicable
5f171e9023611c038f0bd539,<b>I do not often change my views on food.,Highly disagree,92/94,Somewhat agree,3,1708008161356,1708008163828,\Somewhat agree\,\Somewhat agree\,\3\,1708008163290,1708008163290,1934,1934,2472,buq,qns-item-noham,92,285521,0.0-1.0-0.91,65ce21b116bb961d68282a7e,AWAITING REVIEW,2024-02-15T14:37:42.530000Z,2024-02-15T14:43:22.647000Z,,2024-02-15T14:43:23.280543Z,341.0,CVPIIDEI,2708,34,Male,White,United States,United States,United States,English,DATA_EXPIRED,DATA_EXPIRED,Not Applicable
5f171e9023611c038f0bd539,<b>Specific policies are often very important to me.,Highly disagree,93/94,Somewhat agree,3,1708008163833,1708008165724,\Somewhat agree\,\Somewhat agree\,\3\,1708008165052,1708008165052,1219,1219,1891,buq,qns-item-noham,93,287417,0.0-1.0-0.92,65ce21b116bb961d68282a7e,AWAITING REVIEW,2024-02-15T14:37:42.530000Z,2024-02-15T14:43:22.647000Z,,2024-02-15T14:43:23.280543Z,341.0,CVPIIDEI,2708,34,Male,White,United States,United States,United States,English,DATA_EXPIRED,DATA_EXPIRED,Not Applicable
5f171e9023611c038f0bd539,<b>Most people are woefully under-informed.,Highly disagree,94/94,Somewhat disagree,2,1708008165732,1708008167922,\Somewhat disagree\,\Somewhat disagree\,\2\,1708008167455,1708008167455,1723,1723,2190,buq,qns-item-noham,94,289615,0.0-1.0-0.93,65ce21b116bb961d68282a7e,AWAITING REVIEW,2024-02-15T14:37:42.530000Z,2024-02-15T14:43:22.647000Z,,2024-02-15T14:43:23.280543Z,341.0,CVPIIDEI,2708,34,Male,White,United States,United States,United States,English,DATA_EXPIRED,DATA_EXPIRED,Not Applicable
5f171e9023611c038f0bd539,,,,,,,,,,,,,,,,,,,,,65ce21b116bb961d68282a7e,AWAITING REVIEW,2024-02-15T14:37:42.530000Z,2024-02-15T14:43:22.647000Z,,2024-02-15T14:43:23.280543Z,341.0,CVPIIDEI,2708,34,Male,White,United States,United States,United States,English,DATA_EXPIRED,DATA_EXPIRED,Not Applicable
