PROLIFIC_PID,Question,qns_options,quest_num,answer,answer_num,question_load_timestamp,next_btn_timestamp,text_selected,final_text_selected,option_num_selected,preview_timestamps,final_text_selected_time_stamp,rt_first_option_click,rt_final_option_click,rt_submit_click,questionnaire,trial_type,trial_index,time_elapsed,internal_node_id,Demographic_Submission id,Demographic_Status,Demographic_Started at,Demographic_Completed at,Demographic_Reviewed at,Demographic_Archived at,Demographic_Time taken,Demographic_Completion code,Demographic_Total approvals,Demographic_Age,Demographic_Sex,Demographic_Ethnicity simplified,Demographic_Country of birth,Demographic_Country of residence,Demographic_Nationality,Demographic_Language,Demographic_Student status,Demographic_Employment status,Demographic_Custom study tncs accepted at
6418886a921030399cc91e71,<b>Knowing what?s true and knowing what to do about it are usually basically the same.,Highly disagree,1/94,Somewhat disagree,2,1708007829257,1708007862350,\Somewhat disagree\,\Somewhat disagree\,\2\,1708007861101,1708007861101,31844,31844,33093,buq,qns-item-noham,1,43891,0.0-1.0-0.0,65ce216b8bc77b8f88da62ef,AWAITING REVIEW,2024-02-15T14:36:37.827000Z,2024-02-15T14:57:53.897000Z,,2024-02-15T14:57:54.395317Z,1277.0,CVPIIDEI,61,37,Male,Mixed,United States,United States,United States,English,DATA_EXPIRED,Full-Time,Not Applicable
6418886a921030399cc91e71,<b>Most people just believe whatever is convenient for them.,Highly disagree,2/94,Highly agree,4,1708007862352,1708007872723,\Highly agree\,\Highly agree\,\4\,1708007870844,1708007870844,8492,8492,10371,buq,qns-item-noham,2,54264,0.0-1.0-0.1,65ce216b8bc77b8f88da62ef,AWAITING REVIEW,2024-02-15T14:36:37.827000Z,2024-02-15T14:57:53.897000Z,,2024-02-15T14:57:54.395317Z,1277.0,CVPIIDEI,61,37,Male,Mixed,United States,United States,United States,English,DATA_EXPIRED,Full-Time,Not Applicable
6418886a921030399cc91e71,<b>Having some big beliefs helps me sort out minor ones.,Highly disagree,3/94,Somewhat agree,3,1708007872725,1708007882509,\Somewhat agree\,\Somewhat agree\,\3\,1708007881325,1708007881325,8600,8600,9784,buq,qns-item-noham,3,64050,0.0-1.0-0.2,65ce216b8bc77b8f88da62ef,AWAITING REVIEW,2024-02-15T14:36:37.827000Z,2024-02-15T14:57:53.897000Z,,2024-02-15T14:57:54.395317Z,1277.0,CVPIIDEI,61,37,Male,Mixed,United States,United States,United States,English,DATA_EXPIRED,Full-Time,Not Applicable
6418886a921030399cc91e71,<b>Political questions are usually pretty complicated.,Highly disagree,4/94,Somewhat disagree,2,1708007882513,1708007896896,\Somewhat disagree\,\Somewhat disagree\,\2\,1708007895570,1708007895570,13057,13057,14383,buq,qns-item-noham,4,78436,0.0-1.0-0.3,65ce216b8bc77b8f88da62ef,AWAITING REVIEW,2024-02-15T14:36:37.827000Z,2024-02-15T14:57:53.897000Z,,2024-02-15T14:57:54.395317Z,1277.0,CVPIIDEI,61,37,Male,Mixed,United States,United States,United States,English,DATA_EXPIRED,Full-Time,Not Applicable
6418886a921030399cc91e71,<b>Figuring out what?s important in life requires learning a lot of facts.,Highly disagree,5/94,Somewhat agree,3,1708007896898,1708007907950,\Somewhat agree\,\Somewhat agree\,\3\,1708007904356,1708007904356,7458,7458,11052,buq,qns-item-noham,5,89490,0.0-1.0-0.4,65ce216b8bc77b8f88da62ef,AWAITING REVIEW,2024-02-15T14:36:37.827000Z,2024-02-15T14:57:53.897000Z,,2024-02-15T14:57:54.395317Z,1277.0,CVPIIDEI,61,37,Male,Mixed,United States,United States,United States,English,DATA_EXPIRED,Full-Time,Not Applicable
6418886a921030399cc91e71,<b>It is difficult for me to remember the last time I was surprised by politics.,Highly disagree,6/94,Somewhat agree,3,1708007907952,1708007917481,\Somewhat agree\,\Somewhat agree\,\3\,1708007915588,1708007915588,7636,7636,9529,buq,qns-item-noham,6,99021,0.0-1.0-0.5,65ce216b8bc77b8f88da62ef,AWAITING REVIEW,2024-02-15T14:36:37.827000Z,2024-02-15T14:57:53.897000Z,,2024-02-15T14:57:54.395317Z,1277.0,CVPIIDEI,61,37,Male,Mixed,United States,United States,United States,English,DATA_EXPIRED,Full-Time,Not Applicable
6418886a921030399cc91e71,<b>People?s false beliefs are understandable.,Highly disagree,7/94,Somewhat agree,3,1708007917484,1708007925653,\Somewhat agree\,\Somewhat agree\,\3\,1708007923983,1708007923983,6499,6499,8169,buq,qns-item-noham,7,107193,0.0-1.0-0.6,65ce216b8bc77b8f88da62ef,AWAITING REVIEW,2024-02-15T14:36:37.827000Z,2024-02-15T14:57:53.897000Z,,2024-02-15T14:57:54.395317Z,1277.0,CVPIIDEI,61,37,Male,Mixed,United States,United States,United States,English,DATA_EXPIRED,Full-Time,Not Applicable
6418886a921030399cc91e71,<b>I spend a lot of time trying to be informed about politics.,Highly disagree,8/94,Somewhat agree,3,1708007925655,1708007937648,\Somewhat disagree\,\Somewhat agree\,\2\,1708007932111,1708007936066,6456,10411,11993,buq,qns-item-noham,8,119188,0.0-1.0-0.7,65ce216b8bc77b8f88da62ef,AWAITING REVIEW,2024-02-15T14:36:37.827000Z,2024-02-15T14:57:53.897000Z,,2024-02-15T14:57:54.395317Z,1277.0,CVPIIDEI,61,37,Male,Mixed,United States,United States,United States,English,DATA_EXPIRED,Full-Time,Not Applicable
6418886a921030399cc91e71,<b>I think a lot about whether my beliefs are right.,Highly disagree,9/94,Somewhat agree,3,1708007937650,1708007949163,\Somewhat agree\,\Somewhat agree\,\3\,1708007942316,1708007947128,4666,9478,11513,buq,qns-item-noham,9,130703,0.0-1.0-0.8,65ce216b8bc77b8f88da62ef,AWAITING REVIEW,2024-02-15T14:36:37.827000Z,2024-02-15T14:57:53.897000Z,,2024-02-15T14:57:54.395317Z,1277.0,CVPIIDEI,61,37,Male,Mixed,United States,United States,United States,English,DATA_EXPIRED,Full-Time,Not Applicable
6418886a921030399cc91e71,<b>Statistics can be pretty misleading sometimes.,Highly disagree,10/94,Highly agree,4,1708007949165,1708007953850,\Highly agree\,\Highly agree\,\4\,1708007952504,1708007952504,3339,3339,4685,buq,qns-item-noham,10,135390,0.0-1.0-0.9,65ce216b8bc77b8f88da62ef,AWAITING REVIEW,2024-02-15T14:36:37.827000Z,2024-02-15T14:57:53.897000Z,,2024-02-15T14:57:54.395317Z,1277.0,CVPIIDEI,61,37,Male,Mixed,United States,United States,United States,English,DATA_EXPIRED,Full-Time,Not Applicable
6418886a921030399cc91e71,<b>I have lots of beliefs that I?m only sort of sure about.,Highly disagree,11/94,Somewhat agree,3,1708007953851,1708007962751,\Somewhat agree\,\Somewhat agree\,\3\,1708007961580,1708007961580,7729,7729,8900,buq,qns-item-noham,11,144291,0.0-1.0-0.10,65ce216b8bc77b8f88da62ef,AWAITING REVIEW,2024-02-15T14:36:37.827000Z,2024-02-15T14:57:53.897000Z,,2024-02-15T14:57:54.395317Z,1277.0,CVPIIDEI,61,37,Male,Mixed,United States,United States,United States,English,DATA_EXPIRED,Full-Time,Not Applicable
6418886a921030399cc91e71,"<b>If I go to my favorite restaurant and the food is surprisingly bad, it reminds me there are many disappointments in life.",Highly disagree,12/94,Somewhat disagree,2,1708007962753,1708007977868,\Somewhat disagree\,\Somewhat disagree\,\2\,1708007976434,1708007976434,13681,13681,15115,buq,qns-item-noham,12,159408,0.0-1.0-0.11,65ce216b8bc77b8f88da62ef,AWAITING REVIEW,2024-02-15T14:36:37.827000Z,2024-02-15T14:57:53.897000Z,,2024-02-15T14:57:54.395317Z,1277.0,CVPIIDEI,61,37,Male,Mixed,United States,United States,United States,English,DATA_EXPIRED,Full-Time,Not Applicable
6418886a921030399cc91e71,"<b>If you are paying attention, please select ?Somewhat agree?",Highly disagree,13/94,Somewhat agree,3,1708007977870,1708007984359,\Somewhat agree\,\Somewhat agree\,\3\,1708007983039,1708007983039,5169,5169,6489,buq,qns-item-noham,13,165899,0.0-1.0-0.12,65ce216b8bc77b8f88da62ef,AWAITING REVIEW,2024-02-15T14:36:37.827000Z,2024-02-15T14:57:53.897000Z,,2024-02-15T14:57:54.395317Z,1277.0,CVPIIDEI,61,37,Male,Mixed,United States,United States,United States,English,DATA_EXPIRED,Full-Time,Not Applicable
6418886a921030399cc91e71,"<b>When I talk to others, I often worry I?ll convince them of something I didn?t mean to.",Highly disagree,14/94,Somewhat disagree,2,1708007984360,1708007993698,\Somewhat disagree\,\Somewhat disagree\,\2\,1708007991734,1708007991734,7374,7374,9338,buq,qns-item-noham,14,175238,0.0-1.0-0.13,65ce216b8bc77b8f88da62ef,AWAITING REVIEW,2024-02-15T14:36:37.827000Z,2024-02-15T14:57:53.897000Z,,2024-02-15T14:57:54.395317Z,1277.0,CVPIIDEI,61,37,Male,Mixed,United States,United States,United States,English,DATA_EXPIRED,Full-Time,Not Applicable
6418886a921030399cc91e71,<b>I would need to learn something utterly shocking about my party in order to change my political views.,Highly disagree,15/94,Somewhat disagree,2,1708007993700,1708008030383,\Highly disagree\,\Somewhat disagree\,\1\,1708008011211,1708008029082,17511,35382,36683,buq,qns-item-noham,15,211923,0.0-1.0-0.14,65ce216b8bc77b8f88da62ef,AWAITING REVIEW,2024-02-15T14:36:37.827000Z,2024-02-15T14:57:53.897000Z,,2024-02-15T14:57:54.395317Z,1277.0,CVPIIDEI,61,37,Male,Mixed,United States,United States,United States,English,DATA_EXPIRED,Full-Time,Not Applicable
6418886a921030399cc91e71,"<b>When I have new experiences, I tend to think of them as unique.",Highly disagree,16/94,Somewhat disagree,2,1708008030385,1708008039358,\Somewhat disagree\,\Somewhat disagree\,\2\,1708008038183,1708008038183,7798,7798,8973,buq,qns-item-noham,16,220898,0.0-1.0-0.15,65ce216b8bc77b8f88da62ef,AWAITING REVIEW,2024-02-15T14:36:37.827000Z,2024-02-15T14:57:53.897000Z,,2024-02-15T14:57:54.395317Z,1277.0,CVPIIDEI,61,37,Male,Mixed,United States,United States,United States,English,DATA_EXPIRED,Full-Time,Not Applicable
6418886a921030399cc91e71,<b>I change my mind about specific policies pretty frequently.,Highly disagree,17/94,Somewhat disagree,2,1708008039359,1708008045787,\Somewhat disagree\,\Somewhat disagree\,\2\,1708008043694,1708008043694,4335,4335,6428,buq,qns-item-noham,17,227327,0.0-1.0-0.16,65ce216b8bc77b8f88da62ef,AWAITING REVIEW,2024-02-15T14:36:37.827000Z,2024-02-15T14:57:53.897000Z,,2024-02-15T14:57:54.395317Z,1277.0,CVPIIDEI,61,37,Male,Mixed,United States,United States,United States,English,DATA_EXPIRED,Full-Time,Not Applicable
6418886a921030399cc91e71,"<b>If a politician in my political party supports something I disagree with, I give them the benefit of the doubt, as such issues often involve hidden complexities that aren?t obvious.   ",Highly disagree,18/94,Somewhat agree,3,1708008045789,1708008058984,\Somewhat agree\,\Somewhat agree\,\3\,1708008057759,1708008057759,11970,11970,13195,buq,qns-item-noham,18,240524,0.0-1.0-0.17,65ce216b8bc77b8f88da62ef,AWAITING REVIEW,2024-02-15T14:36:37.827000Z,2024-02-15T14:57:53.897000Z,,2024-02-15T14:57:54.395317Z,1277.0,CVPIIDEI,61,37,Male,Mixed,United States,United States,United States,English,DATA_EXPIRED,Full-Time,Not Applicable
6418886a921030399cc91e71,<b>People?s bad politics are usually motivated by hatefulness.,Highly disagree,19/94,Highly disagree,1,1708008058985,1708008066145,\Highly disagree\,\Highly disagree\,\1\,1708008064720,1708008064720,5735,5735,7160,buq,qns-item-noham,19,247685,0.0-1.0-0.18,65ce216b8bc77b8f88da62ef,AWAITING REVIEW,2024-02-15T14:36:37.827000Z,2024-02-15T14:57:53.897000Z,,2024-02-15T14:57:54.395317Z,1277.0,CVPIIDEI,61,37,Male,Mixed,United States,United States,United States,English,DATA_EXPIRED,Full-Time,Not Applicable
6418886a921030399cc91e71,<b>I think a lot about how to reconcile my beliefs with one another.,Highly disagree,20/94,Somewhat agree,3,1708008066146,1708008072470,\Somewhat agree\,\Somewhat agree\,\3\,1708008071101,1708008071101,4955,4955,6324,buq,qns-item-noham,20,254010,0.0-1.0-0.19,65ce216b8bc77b8f88da62ef,AWAITING REVIEW,2024-02-15T14:36:37.827000Z,2024-02-15T14:57:53.897000Z,,2024-02-15T14:57:54.395317Z,1277.0,CVPIIDEI,61,37,Male,Mixed,United States,United States,United States,English,DATA_EXPIRED,Full-Time,Not Applicable
6418886a921030399cc91e71,<b>I might have false beliefs about important topics.,Highly disagree,21/94,Somewhat agree,3,1708008072472,1708008079316,\Somewhat agree\,\Somewhat agree\,\3\,1708008078016,1708008078016,5544,5544,6844,buq,qns-item-noham,21,260857,0.0-1.0-0.20,65ce216b8bc77b8f88da62ef,AWAITING REVIEW,2024-02-15T14:36:37.827000Z,2024-02-15T14:57:53.897000Z,,2024-02-15T14:57:54.395317Z,1277.0,CVPIIDEI,61,37,Male,Mixed,United States,United States,United States,English,DATA_EXPIRED,Full-Time,Not Applicable
6418886a921030399cc91e71,"<b>If a good friend of mine does something unexpected that upsets me, I feel like I don?t know them anymore.",Highly disagree,22/94,Somewhat disagree,2,1708008079319,1708008089439,\Somewhat disagree\,\Somewhat disagree\,\2\,1708008088237,1708008088237,8918,8918,10120,buq,qns-item-noham,22,270979,0.0-1.0-0.21,65ce216b8bc77b8f88da62ef,AWAITING REVIEW,2024-02-15T14:36:37.827000Z,2024-02-15T14:57:53.897000Z,,2024-02-15T14:57:54.395317Z,1277.0,CVPIIDEI,61,37,Male,Mixed,United States,United States,United States,English,DATA_EXPIRED,Full-Time,Not Applicable
6418886a921030399cc91e71,<b>Other people?s beliefs are often incoherent.,Highly disagree,23/94,Somewhat agree,3,1708008089441,1708008097867,\Somewhat agree\,\Somewhat agree\,\3\,1708008097093,1708008097093,7652,7652,8426,buq,qns-item-noham,23,279407,0.0-1.0-0.22,65ce216b8bc77b8f88da62ef,AWAITING REVIEW,2024-02-15T14:36:37.827000Z,2024-02-15T14:57:53.897000Z,,2024-02-15T14:57:54.395317Z,1277.0,CVPIIDEI,61,37,Male,Mixed,United States,United States,United States,English,DATA_EXPIRED,Full-Time,Not Applicable
6418886a921030399cc91e71,"<b>Every now and then, a new experience will unsettle beliefs I?ve had for a while.",Highly disagree,24/94,Somewhat disagree,2,1708008097868,1708008109958,\Somewhat disagree\,\Somewhat disagree\,\2\,1708008108476,1708008108476,10608,10608,12090,buq,qns-item-noham,24,291498,0.0-1.0-0.23,65ce216b8bc77b8f88da62ef,AWAITING REVIEW,2024-02-15T14:36:37.827000Z,2024-02-15T14:57:53.897000Z,,2024-02-15T14:57:54.395317Z,1277.0,CVPIIDEI,61,37,Male,Mixed,United States,United States,United States,English,DATA_EXPIRED,Full-Time,Not Applicable
6418886a921030399cc91e71,<b>Some policies I agree with in principle are so bad I don?t support them. ,Highly disagree,25/94,Highly agree,4,1708008109959,1708008138766,\Highly agree\,\Highly agree\,\4\,1708008137774,1708008137774,27815,27815,28807,buq,qns-item-noham,25,320306,0.0-1.0-0.24,65ce216b8bc77b8f88da62ef,AWAITING REVIEW,2024-02-15T14:36:37.827000Z,2024-02-15T14:57:53.897000Z,,2024-02-15T14:57:54.395317Z,1277.0,CVPIIDEI,61,37,Male,Mixed,United States,United States,United States,English,DATA_EXPIRED,Full-Time,Not Applicable
6418886a921030399cc91e71,<b>I?m pretty sure I?ve accidentally spread false information.,Highly disagree,26/94,Somewhat agree,3,1708008138766,1708008146448,\Somewhat agree\,\Somewhat agree\,\3\,1708008145652,1708008145652,6886,6886,7682,buq,qns-item-noham,26,327988,0.0-1.0-0.25,65ce216b8bc77b8f88da62ef,AWAITING REVIEW,2024-02-15T14:36:37.827000Z,2024-02-15T14:57:53.897000Z,,2024-02-15T14:57:54.395317Z,1277.0,CVPIIDEI,61,37,Male,Mixed,United States,United States,United States,English,DATA_EXPIRED,Full-Time,Not Applicable
6418886a921030399cc91e71,"<b>If I go to my favorite restaurant and the food is unexpectedly bad, then they have changed owners.",Highly disagree,27/94,Somewhat disagree,2,1708008146449,1708008159581,\Somewhat disagree\,\Somewhat disagree\,\2\,1708008157839,1708008157839,11390,11390,13132,buq,qns-item-noham,27,341121,0.0-1.0-0.26,65ce216b8bc77b8f88da62ef,AWAITING REVIEW,2024-02-15T14:36:37.827000Z,2024-02-15T14:57:53.897000Z,,2024-02-15T14:57:54.395317Z,1277.0,CVPIIDEI,61,37,Male,Mixed,United States,United States,United States,English,DATA_EXPIRED,Full-Time,Not Applicable
6418886a921030399cc91e71,"<b>In politics, it?s important to trust your friends and family.",Highly disagree,28/94,Somewhat disagree,2,1708008159582,1708008171390,\Somewhat disagree\,\Somewhat disagree\,\2\,1708008170481,1708008170481,10899,10899,11808,buq,qns-item-noham,28,352930,0.0-1.0-0.27,65ce216b8bc77b8f88da62ef,AWAITING REVIEW,2024-02-15T14:36:37.827000Z,2024-02-15T14:57:53.897000Z,,2024-02-15T14:57:54.395317Z,1277.0,CVPIIDEI,61,37,Male,Mixed,United States,United States,United States,English,DATA_EXPIRED,Full-Time,Not Applicable
6418886a921030399cc91e71,<b>It?s OK to have some conflicting beliefs.,Highly disagree,29/94,Somewhat agree,3,1708008171391,1708008175666,\Somewhat agree\,\Somewhat agree\,\3\,1708008174894,1708008174894,3503,3503,4275,buq,qns-item-noham,29,357206,0.0-1.0-0.28,65ce216b8bc77b8f88da62ef,AWAITING REVIEW,2024-02-15T14:36:37.827000Z,2024-02-15T14:57:53.897000Z,,2024-02-15T14:57:54.395317Z,1277.0,CVPIIDEI,61,37,Male,Mixed,United States,United States,United States,English,DATA_EXPIRED,Full-Time,Not Applicable
6418886a921030399cc91e71,<b>Listening to people I disagree with makes my opinions better.,Highly disagree,30/94,Highly agree,4,1708008175667,1708008180612,\Highly agree\,\Highly agree\,\4\,1708008179374,1708008179374,3707,3707,4945,buq,qns-item-noham,30,362152,0.0-1.0-0.29,65ce216b8bc77b8f88da62ef,AWAITING REVIEW,2024-02-15T14:36:37.827000Z,2024-02-15T14:57:53.897000Z,,2024-02-15T14:57:54.395317Z,1277.0,CVPIIDEI,61,37,Male,Mixed,United States,United States,United States,English,DATA_EXPIRED,Full-Time,Not Applicable
6418886a921030399cc91e71,<b>My moral compass sometimes makes it harder to determine what?s true.,Highly disagree,31/94,Somewhat disagree,2,1708008180613,1708008189224,\Somewhat disagree\,\Somewhat disagree\,\2\,1708008188111,1708008188111,7498,7498,8611,buq,qns-item-noham,31,370764,0.0-1.0-0.30,65ce216b8bc77b8f88da62ef,AWAITING REVIEW,2024-02-15T14:36:37.827000Z,2024-02-15T14:57:53.897000Z,,2024-02-15T14:57:54.395317Z,1277.0,CVPIIDEI,61,37,Male,Mixed,United States,United States,United States,English,DATA_EXPIRED,Full-Time,Not Applicable
6418886a921030399cc91e71,<b>Evidence pointing in the wrong direction isn?t really evidence at all.,Highly disagree,32/94,Somewhat disagree,2,1708008189225,1708008198197,\Somewhat disagree\,\Somewhat disagree\,\2\,1708008197243,1708008197243,8018,8018,8972,buq,qns-item-noham,32,379737,0.0-1.0-0.31,65ce216b8bc77b8f88da62ef,AWAITING REVIEW,2024-02-15T14:36:37.827000Z,2024-02-15T14:57:53.897000Z,,2024-02-15T14:57:54.395317Z,1277.0,CVPIIDEI,61,37,Male,Mixed,United States,United States,United States,English,DATA_EXPIRED,Full-Time,Not Applicable
6418886a921030399cc91e71,"<b>If the political party I support messes up, it makes me think politics is rotten.",Highly disagree,33/94,Somewhat disagree,2,1708008198198,1708008206660,\Somewhat disagree\,\Somewhat disagree\,\2\,1708008205882,1708008205882,7684,7684,8462,buq,qns-item-noham,33,388200,0.0-1.0-0.32,65ce216b8bc77b8f88da62ef,AWAITING REVIEW,2024-02-15T14:36:37.827000Z,2024-02-15T14:57:53.897000Z,,2024-02-15T14:57:54.395317Z,1277.0,CVPIIDEI,61,37,Male,Mixed,United States,United States,United States,English,DATA_EXPIRED,Full-Time,Not Applicable
6418886a921030399cc91e71,<b>Lots of important topics can only really be understood by some groups of people.,Highly disagree,34/94,Somewhat agree,3,1708008206660,1708008219255,\Somewhat agree\,\Somewhat agree\,\3\,1708008218553,1708008218553,11893,11893,12595,buq,qns-item-noham,34,400795,0.0-1.0-0.33,65ce216b8bc77b8f88da62ef,AWAITING REVIEW,2024-02-15T14:36:37.827000Z,2024-02-15T14:57:53.897000Z,,2024-02-15T14:57:54.395317Z,1277.0,CVPIIDEI,61,37,Male,Mixed,United States,United States,United States,English,DATA_EXPIRED,Full-Time,Not Applicable
6418886a921030399cc91e71,<b>Having conflicting beliefs means you haven?t thought about them enough.,Highly disagree,35/94,Somewhat disagree,2,1708008219256,1708008224204,\Somewhat disagree\,\Somewhat disagree\,\2\,1708008223287,1708008223287,4031,4031,4948,buq,qns-item-noham,35,405744,0.0-1.0-0.34,65ce216b8bc77b8f88da62ef,AWAITING REVIEW,2024-02-15T14:36:37.827000Z,2024-02-15T14:57:53.897000Z,,2024-02-15T14:57:54.395317Z,1277.0,CVPIIDEI,61,37,Male,Mixed,United States,United States,United States,English,DATA_EXPIRED,Full-Time,Not Applicable
6418886a921030399cc91e71,<b>I do not often change my political opinions.,Highly disagree,36/94,Somewhat disagree,2,1708008224205,1708008230319,\Somewhat disagree\,\Somewhat disagree\,\2\,1708008227885,1708008227885,3680,3680,6114,buq,qns-item-noham,36,411859,0.0-1.0-0.35,65ce216b8bc77b8f88da62ef,AWAITING REVIEW,2024-02-15T14:36:37.827000Z,2024-02-15T14:57:53.897000Z,,2024-02-15T14:57:54.395317Z,1277.0,CVPIIDEI,61,37,Male,Mixed,United States,United States,United States,English,DATA_EXPIRED,Full-Time,Not Applicable
6418886a921030399cc91e71,<b>It?s difficult to not have at least some conflicting beliefs.,Highly disagree,37/94,Somewhat agree,3,1708008230320,1708008235443,\Somewhat agree\,\Somewhat agree\,\3\,1708008234548,1708008234548,4228,4228,5123,buq,qns-item-noham,37,416983,0.0-1.0-0.36,65ce216b8bc77b8f88da62ef,AWAITING REVIEW,2024-02-15T14:36:37.827000Z,2024-02-15T14:57:53.897000Z,,2024-02-15T14:57:54.395317Z,1277.0,CVPIIDEI,61,37,Male,Mixed,United States,United States,United States,English,DATA_EXPIRED,Full-Time,Not Applicable
6418886a921030399cc91e71,<b>Wishful thinking causes a lot of problems.,Highly disagree,38/94,Highly agree,4,1708008235444,1708008240239,\Highly agree\,\Highly agree\,\4\,1708008239481,1708008239481,4037,4037,4795,buq,qns-item-noham,38,421779,0.0-1.0-0.37,65ce216b8bc77b8f88da62ef,AWAITING REVIEW,2024-02-15T14:36:37.827000Z,2024-02-15T14:57:53.897000Z,,2024-02-15T14:57:54.395317Z,1277.0,CVPIIDEI,61,37,Male,Mixed,United States,United States,United States,English,DATA_EXPIRED,Full-Time,Not Applicable
6418886a921030399cc91e71,<b>I judge a food item only once I try it many times.,Highly disagree,39/94,Highly agree,4,1708008240240,1708008256409,\Highly agree\,\Highly agree\,\4\,1708008255503,1708008255503,15263,15263,16169,buq,qns-item-noham,39,437949,0.0-1.0-0.38,65ce216b8bc77b8f88da62ef,AWAITING REVIEW,2024-02-15T14:36:37.827000Z,2024-02-15T14:57:53.897000Z,,2024-02-15T14:57:54.395317Z,1277.0,CVPIIDEI,61,37,Male,Mixed,United States,United States,United States,English,DATA_EXPIRED,Full-Time,Not Applicable
6418886a921030399cc91e71,"<b>When a person holds conflicting beliefs, they should really try to figure out what?s wrong.",Highly disagree,40/94,Somewhat agree,3,1708008256410,1708008268503,\Somewhat agree\,\Somewhat agree\,\3\,1708008267811,1708008267811,11401,11401,12093,buq,qns-item-noham,40,450043,0.0-1.0-0.39,65ce216b8bc77b8f88da62ef,AWAITING REVIEW,2024-02-15T14:36:37.827000Z,2024-02-15T14:57:53.897000Z,,2024-02-15T14:57:54.395317Z,1277.0,CVPIIDEI,61,37,Male,Mixed,United States,United States,United States,English,DATA_EXPIRED,Full-Time,Not Applicable
6418886a921030399cc91e71,<b>Knowing what?s important in life is easy.,Highly disagree,41/94,Somewhat disagree,2,1708008268503,1708008273142,\Somewhat disagree\,\Somewhat disagree\,\2\,1708008272399,1708008272399,3896,3896,4639,buq,qns-item-noham,41,454682,0.0-1.0-0.40,65ce216b8bc77b8f88da62ef,AWAITING REVIEW,2024-02-15T14:36:37.827000Z,2024-02-15T14:57:53.897000Z,,2024-02-15T14:57:54.395317Z,1277.0,CVPIIDEI,61,37,Male,Mixed,United States,United States,United States,English,DATA_EXPIRED,Full-Time,Not Applicable
6418886a921030399cc91e71,<b>I swim across the Atlantic Ocean to get to work every day.,Highly disagree,42/94,Highly disagree,1,1708008273143,1708008281120,\Highly disagree\,\Highly disagree\,\1\,1708008280228,1708008280228,7085,7085,7977,buq,qns-item-noham,42,462660,0.0-1.0-0.41,65ce216b8bc77b8f88da62ef,AWAITING REVIEW,2024-02-15T14:36:37.827000Z,2024-02-15T14:57:53.897000Z,,2024-02-15T14:57:54.395317Z,1277.0,CVPIIDEI,61,37,Male,Mixed,United States,United States,United States,English,DATA_EXPIRED,Full-Time,Not Applicable
6418886a921030399cc91e71,"<b>Sometimes, you just have to ignore evidence that you know is wrong.",Highly disagree,43/94,Somewhat disagree,2,1708008281122,1708008290761,\Somewhat disagree\,\Somewhat disagree\,\2\,1708008289996,1708008289996,8874,8874,9639,buq,qns-item-noham,43,472301,0.0-1.0-0.42,65ce216b8bc77b8f88da62ef,AWAITING REVIEW,2024-02-15T14:36:37.827000Z,2024-02-15T14:57:53.897000Z,,2024-02-15T14:57:54.395317Z,1277.0,CVPIIDEI,61,37,Male,Mixed,United States,United States,United States,English,DATA_EXPIRED,Full-Time,Not Applicable
6418886a921030399cc91e71,<b>I have had some false beliefs.,Highly disagree,44/94,Highly agree,4,1708008290762,1708008297831,\Highly agree\,\Highly agree\,\4\,1708008297104,1708008297104,6342,6342,7069,buq,qns-item-noham,44,479371,0.0-1.0-0.43,65ce216b8bc77b8f88da62ef,AWAITING REVIEW,2024-02-15T14:36:37.827000Z,2024-02-15T14:57:53.897000Z,,2024-02-15T14:57:54.395317Z,1277.0,CVPIIDEI,61,37,Male,Mixed,United States,United States,United States,English,DATA_EXPIRED,Full-Time,Not Applicable
6418886a921030399cc91e71,"<b>If one friend does something that upsets me, I sometimes start to distrust people in general.",Highly disagree,45/94,Highly disagree,1,1708008297832,1708008308238,\Highly disagree\,\Highly disagree\,\1\,1708008307401,1708008307401,9569,9569,10406,buq,qns-item-noham,45,489778,0.0-1.0-0.44,65ce216b8bc77b8f88da62ef,AWAITING REVIEW,2024-02-15T14:36:37.827000Z,2024-02-15T14:57:53.897000Z,,2024-02-15T14:57:54.395317Z,1277.0,CVPIIDEI,61,37,Male,Mixed,United States,United States,United States,English,DATA_EXPIRED,Full-Time,Not Applicable
6418886a921030399cc91e71,<b>The facts about most important matters are easy to find.,Highly disagree,46/94,Somewhat disagree,2,1708008308238,1708008316281,\Somewhat disagree\,\Somewhat disagree\,\2\,1708008314454,1708008314454,6216,6216,8043,buq,qns-item-noham,46,497821,0.0-1.0-0.45,65ce216b8bc77b8f88da62ef,AWAITING REVIEW,2024-02-15T14:36:37.827000Z,2024-02-15T14:57:53.897000Z,,2024-02-15T14:57:54.395317Z,1277.0,CVPIIDEI,61,37,Male,Mixed,United States,United States,United States,English,DATA_EXPIRED,Full-Time,Not Applicable
6418886a921030399cc91e71,<b>It?s better to know what?s true than to know what?s moral.,Highly disagree,47/94,Somewhat disagree,2,1708008316281,1708008331265,\Somewhat disagree\,\Somewhat disagree\,\2\,1708008330629,1708008330629,14348,14348,14984,buq,qns-item-noham,47,512805,0.0-1.0-0.46,65ce216b8bc77b8f88da62ef,AWAITING REVIEW,2024-02-15T14:36:37.827000Z,2024-02-15T14:57:53.897000Z,,2024-02-15T14:57:54.395317Z,1277.0,CVPIIDEI,61,37,Male,Mixed,United States,United States,United States,English,DATA_EXPIRED,Full-Time,Not Applicable
6418886a921030399cc91e71,<b>I used to think the world was less complicated than I do now.,Highly disagree,48/94,Somewhat disagree,2,1708008331265,1708008355170,\Somewhat disagree\,\Somewhat disagree\,\2\,1708008354396,1708008354396,23131,23131,23905,buq,qns-item-noham,48,536710,0.0-1.0-0.47,65ce216b8bc77b8f88da62ef,AWAITING REVIEW,2024-02-15T14:36:37.827000Z,2024-02-15T14:57:53.897000Z,,2024-02-15T14:57:54.395317Z,1277.0,CVPIIDEI,61,37,Male,Mixed,United States,United States,United States,English,DATA_EXPIRED,Full-Time,Not Applicable
6418886a921030399cc91e71,<b>People are usually completely right or completely wrong.,Highly disagree,49/94,Highly disagree,1,1708008355171,1708008359461,\Highly disagree\,\Highly disagree\,\1\,1708008358650,1708008358650,3479,3479,4290,buq,qns-item-noham,49,541001,0.0-1.0-0.48,65ce216b8bc77b8f88da62ef,AWAITING REVIEW,2024-02-15T14:36:37.827000Z,2024-02-15T14:57:53.897000Z,,2024-02-15T14:57:54.395317Z,1277.0,CVPIIDEI,61,37,Male,Mixed,United States,United States,United States,English,DATA_EXPIRED,Full-Time,Not Applicable
6418886a921030399cc91e71,<b>I spend a lot of time considering alternatives to my beliefs.,Highly disagree,50/94,Somewhat agree,3,1708008359462,1708008364094,\Somewhat agree\,\Somewhat agree\,\3\,1708008363352,1708008363352,3890,3890,4632,buq,qns-item-noham,50,545634,0.0-1.0-0.49,65ce216b8bc77b8f88da62ef,AWAITING REVIEW,2024-02-15T14:36:37.827000Z,2024-02-15T14:57:53.897000Z,,2024-02-15T14:57:54.395317Z,1277.0,CVPIIDEI,61,37,Male,Mixed,United States,United States,United States,English,DATA_EXPIRED,Full-Time,Not Applicable
6418886a921030399cc91e71,"<b>Political enemies need to be defeated, not convinced.",Highly disagree,51/94,Somewhat disagree,2,1708008364095,1708008370023,\Somewhat disagree\,\Somewhat disagree\,\2\,1708008369204,1708008369204,5109,5109,5928,buq,qns-item-noham,51,551563,0.0-1.0-0.50,65ce216b8bc77b8f88da62ef,AWAITING REVIEW,2024-02-15T14:36:37.827000Z,2024-02-15T14:57:53.897000Z,,2024-02-15T14:57:54.395317Z,1277.0,CVPIIDEI,61,37,Male,Mixed,United States,United States,United States,English,DATA_EXPIRED,Full-Time,Not Applicable
6418886a921030399cc91e71,<b>I form my political views only after meticulously gathering historical and present information about their policies.,Highly disagree,52/94,Somewhat disagree,2,1708008370024,1708008383918,\Somewhat disagree\,\Somewhat disagree\,\2\,1708008382427,1708008382427,12403,12403,13894,buq,qns-item-noham,52,565458,0.0-1.0-0.51,65ce216b8bc77b8f88da62ef,AWAITING REVIEW,2024-02-15T14:36:37.827000Z,2024-02-15T14:57:53.897000Z,,2024-02-15T14:57:54.395317Z,1277.0,CVPIIDEI,61,37,Male,Mixed,United States,United States,United States,English,DATA_EXPIRED,Full-Time,Not Applicable
6418886a921030399cc91e71,<b>It is difficult for me to remember the last time I was surprised by politics.,Highly disagree,53/94,Somewhat agree,3,1708008383919,1708008392303,\Somewhat agree\,\Somewhat agree\,\3\,1708008391335,1708008391335,7416,7416,8384,buq,qns-item-noham,53,573843,0.0-1.0-0.52,65ce216b8bc77b8f88da62ef,AWAITING REVIEW,2024-02-15T14:36:37.827000Z,2024-02-15T14:57:53.897000Z,,2024-02-15T14:57:54.395317Z,1277.0,CVPIIDEI,61,37,Male,Mixed,United States,United States,United States,English,DATA_EXPIRED,Full-Time,Not Applicable
6418886a921030399cc91e71,"<b>When I find out I?m wrong, I think a lot about my related beliefs.",Highly disagree,54/94,Somewhat agree,3,1708008392304,1708008396990,\Somewhat agree\,\Somewhat agree\,\3\,1708008395963,1708008395963,3659,3659,4686,buq,qns-item-noham,54,578530,0.0-1.0-0.53,65ce216b8bc77b8f88da62ef,AWAITING REVIEW,2024-02-15T14:36:37.827000Z,2024-02-15T14:57:53.897000Z,,2024-02-15T14:57:54.395317Z,1277.0,CVPIIDEI,61,37,Male,Mixed,United States,United States,United States,English,DATA_EXPIRED,Full-Time,Not Applicable
6418886a921030399cc91e71,"<b>If the political party I support messes up, it makes me think you can?t trust anyone these days",Highly disagree,55/94,Highly disagree,1,1708008396990,1708008405193,\Highly disagree\,\Highly disagree\,\1\,1708008404502,1708008404502,7512,7512,8203,buq,qns-item-noham,55,586733,0.0-1.0-0.54,65ce216b8bc77b8f88da62ef,AWAITING REVIEW,2024-02-15T14:36:37.827000Z,2024-02-15T14:57:53.897000Z,,2024-02-15T14:57:54.395317Z,1277.0,CVPIIDEI,61,37,Male,Mixed,United States,United States,United States,English,DATA_EXPIRED,Full-Time,Not Applicable
6418886a921030399cc91e71,<b>People?s brains turn off when they talk about politics.,Highly disagree,56/94,Somewhat disagree,2,1708008405194,1708008410573,\Somewhat disagree\,\Somewhat disagree\,\2\,1708008409987,1708008409987,4793,4793,5379,buq,qns-item-noham,56,592113,0.0-1.0-0.55,65ce216b8bc77b8f88da62ef,AWAITING REVIEW,2024-02-15T14:36:37.827000Z,2024-02-15T14:57:53.897000Z,,2024-02-15T14:57:54.395317Z,1277.0,CVPIIDEI,61,37,Male,Mixed,United States,United States,United States,English,DATA_EXPIRED,Full-Time,Not Applicable
6418886a921030399cc91e71,<b>People who are wrong are usually just ignoring the obvious.,Highly disagree,57/94,Somewhat agree,3,1708008410574,1708008417802,\Somewhat agree\,\Somewhat agree\,\3\,1708008417193,1708008417193,6619,6619,7228,buq,qns-item-noham,57,599342,0.0-1.0-0.56,65ce216b8bc77b8f88da62ef,AWAITING REVIEW,2024-02-15T14:36:37.827000Z,2024-02-15T14:57:53.897000Z,,2024-02-15T14:57:54.395317Z,1277.0,CVPIIDEI,61,37,Male,Mixed,United States,United States,United States,English,DATA_EXPIRED,Full-Time,Not Applicable
6418886a921030399cc91e71,"<b>When forming my views on people, I rely more on what they are like now rather than rely on my past experience with them.",Highly disagree,58/94,Somewhat disagree,2,1708008417803,1708008437229,\Somewhat disagree\,\Somewhat disagree\,\2\,1708008436454,1708008436454,18651,18651,19426,buq,qns-item-noham,58,618769,0.0-1.0-0.57,65ce216b8bc77b8f88da62ef,AWAITING REVIEW,2024-02-15T14:36:37.827000Z,2024-02-15T14:57:53.897000Z,,2024-02-15T14:57:54.395317Z,1277.0,CVPIIDEI,61,37,Male,Mixed,United States,United States,United States,English,DATA_EXPIRED,Full-Time,Not Applicable
6418886a921030399cc91e71,"<b>When people contradict my beliefs, I usually know about their evidence already.",Highly disagree,59/94,Somewhat disagree,2,1708008437229,1708008444986,\Somewhat disagree\,\Somewhat disagree\,\2\,1708008444364,1708008444364,7135,7135,7757,buq,qns-item-noham,59,626526,0.0-1.0-0.58,65ce216b8bc77b8f88da62ef,AWAITING REVIEW,2024-02-15T14:36:37.827000Z,2024-02-15T14:57:53.897000Z,,2024-02-15T14:57:54.395317Z,1277.0,CVPIIDEI,61,37,Male,Mixed,United States,United States,United States,English,DATA_EXPIRED,Full-Time,Not Applicable
6418886a921030399cc91e71,<b>Figuring out what?s true and what?s false mainly requires a strong moral compass.,Highly disagree,60/94,Somewhat agree,3,1708008444987,1708008451123,\Somewhat agree\,\Somewhat agree\,\3\,1708008450433,1708008450433,5446,5446,6136,buq,qns-item-noham,60,632663,0.0-1.0-0.59,65ce216b8bc77b8f88da62ef,AWAITING REVIEW,2024-02-15T14:36:37.827000Z,2024-02-15T14:57:53.897000Z,,2024-02-15T14:57:54.395317Z,1277.0,CVPIIDEI,61,37,Male,Mixed,United States,United States,United States,English,DATA_EXPIRED,Full-Time,Not Applicable
6418886a921030399cc91e71,"<b>Usually I?m wrong about simple things, not complicated ones.",Highly disagree,61/94,Highly disagree,1,1708008451124,1708008464225,\Highly disagree\,\Highly disagree\,\1\,1708008459975,1708008459975,8851,8851,13101,buq,qns-item-noham,61,645765,0.0-1.0-0.60,65ce216b8bc77b8f88da62ef,AWAITING REVIEW,2024-02-15T14:36:37.827000Z,2024-02-15T14:57:53.897000Z,,2024-02-15T14:57:54.395317Z,1277.0,CVPIIDEI,61,37,Male,Mixed,United States,United States,United States,English,DATA_EXPIRED,Full-Time,Not Applicable
6418886a921030399cc91e71,<b>Getting all the information I want about important things is hard.,Highly disagree,62/94,Somewhat agree,3,1708008464226,1708008475135,\Somewhat agree\,\Somewhat agree\,\3\,1708008474179,1708008474179,9953,9953,10909,buq,qns-item-noham,62,656675,0.0-1.0-0.61,65ce216b8bc77b8f88da62ef,AWAITING REVIEW,2024-02-15T14:36:37.827000Z,2024-02-15T14:57:53.897000Z,,2024-02-15T14:57:54.395317Z,1277.0,CVPIIDEI,61,37,Male,Mixed,United States,United States,United States,English,DATA_EXPIRED,Full-Time,Not Applicable
6418886a921030399cc91e71,<b>Most false beliefs spread because people try to deceive one another.,Highly disagree,63/94,Highly disagree,1,1708008475136,1708008482155,\Highly disagree\,\Highly disagree\,\1\,1708008481381,1708008481381,6245,6245,7019,buq,qns-item-noham,63,663695,0.0-1.0-0.62,65ce216b8bc77b8f88da62ef,AWAITING REVIEW,2024-02-15T14:36:37.827000Z,2024-02-15T14:57:53.897000Z,,2024-02-15T14:57:54.395317Z,1277.0,CVPIIDEI,61,37,Male,Mixed,United States,United States,United States,English,DATA_EXPIRED,Full-Time,Not Applicable
6418886a921030399cc91e71,<b>I can usually find something to agree with in most people?s beliefs.,Highly disagree,64/94,Somewhat agree,3,1708008482156,1708008491151,\Somewhat agree\,\Somewhat agree\,\3\,1708008490450,1708008490450,8294,8294,8995,buq,qns-item-noham,64,672691,0.0-1.0-0.63,65ce216b8bc77b8f88da62ef,AWAITING REVIEW,2024-02-15T14:36:37.827000Z,2024-02-15T14:57:53.897000Z,,2024-02-15T14:57:54.395317Z,1277.0,CVPIIDEI,61,37,Male,Mixed,United States,United States,United States,English,DATA_EXPIRED,Full-Time,Not Applicable
6418886a921030399cc91e71,<b>I only form my views of people once I get to know them very well.,Highly disagree,65/94,Somewhat disagree,2,1708008491152,1708008555896,\Somewhat disagree\,\Somewhat disagree\,\2\,1708008555085,1708008555085,63933,63933,64744,buq,qns-item-noham,65,737436,0.0-1.0-0.64,65ce216b8bc77b8f88da62ef,AWAITING REVIEW,2024-02-15T14:36:37.827000Z,2024-02-15T14:57:53.897000Z,,2024-02-15T14:57:54.395317Z,1277.0,CVPIIDEI,61,37,Male,Mixed,United States,United States,United States,English,DATA_EXPIRED,Full-Time,Not Applicable
6418886a921030399cc91e71,"<b>When people tell me important things about the world, I usually believe them.",Highly disagree,66/94,Somewhat disagree,2,1708008555897,1708008567351,\Somewhat disagree\,\Somewhat disagree\,\2\,1708008562439,1708008562439,6542,6542,11454,buq,qns-item-noham,66,748891,0.0-1.0-0.65,65ce216b8bc77b8f88da62ef,AWAITING REVIEW,2024-02-15T14:36:37.827000Z,2024-02-15T14:57:53.897000Z,,2024-02-15T14:57:54.395317Z,1277.0,CVPIIDEI,61,37,Male,Mixed,United States,United States,United States,English,DATA_EXPIRED,Full-Time,Not Applicable
6418886a921030399cc91e71,"<b>If a friend does something that upsets me, it reminds me what an unpredictable place the world is.",Highly disagree,67/94,Somewhat agree,3,1708008567352,1708008575367,\Somewhat agree\,\Somewhat agree\,\3\,1708008574714,1708008574714,7362,7362,8015,buq,qns-item-noham,67,756907,0.0-1.0-0.66,65ce216b8bc77b8f88da62ef,AWAITING REVIEW,2024-02-15T14:36:37.827000Z,2024-02-15T14:57:53.897000Z,,2024-02-15T14:57:54.395317Z,1277.0,CVPIIDEI,61,37,Male,Mixed,United States,United States,United States,English,DATA_EXPIRED,Full-Time,Not Applicable
6418886a921030399cc91e71,<b>People tend to believe whatever is good for their friends.,Highly disagree,68/94,Somewhat disagree,2,1708008575368,1708008588247,\Somewhat disagree\,\Somewhat disagree\,\2\,1708008587425,1708008587425,12057,12057,12879,buq,qns-item-noham,68,769787,0.0-1.0-0.67,65ce216b8bc77b8f88da62ef,AWAITING REVIEW,2024-02-15T14:36:37.827000Z,2024-02-15T14:57:53.897000Z,,2024-02-15T14:57:54.395317Z,1277.0,CVPIIDEI,61,37,Male,Mixed,United States,United States,United States,English,DATA_EXPIRED,Full-Time,Not Applicable
6418886a921030399cc91e71,<b>I used to be more certain my beliefs were true.,Highly disagree,69/94,Highly agree,4,1708008588247,1708008594247,\Highly agree\,\Highly agree\,\4\,1708008592764,1708008592764,4517,4517,6000,buq,qns-item-noham,69,775787,0.0-1.0-0.68,65ce216b8bc77b8f88da62ef,AWAITING REVIEW,2024-02-15T14:36:37.827000Z,2024-02-15T14:57:53.897000Z,,2024-02-15T14:57:54.395317Z,1277.0,CVPIIDEI,61,37,Male,Mixed,United States,United States,United States,English,DATA_EXPIRED,Full-Time,Not Applicable
6418886a921030399cc91e71,<b>It?s often pretty easy to figure out whether something is true based on who said it.,Highly disagree,70/94,Somewhat disagree,2,1708008594247,1708008604045,\Somewhat disagree\,\Somewhat disagree\,\2\,1708008602440,1708008602440,8193,8193,9798,buq,qns-item-noham,70,785585,0.0-1.0-0.69,65ce216b8bc77b8f88da62ef,AWAITING REVIEW,2024-02-15T14:36:37.827000Z,2024-02-15T14:57:53.897000Z,,2024-02-15T14:57:54.395317Z,1277.0,CVPIIDEI,61,37,Male,Mixed,United States,United States,United States,English,DATA_EXPIRED,Full-Time,Not Applicable
6418886a921030399cc91e71,<b>I transform into a hummingbird every day.,Highly disagree,71/94,Highly disagree,1,1708008604046,1708008610521,\Highly disagree\,\Highly disagree\,\1\,1708008609624,1708008609624,5578,5578,6475,buq,qns-item-noham,71,792061,0.0-1.0-0.70,65ce216b8bc77b8f88da62ef,AWAITING REVIEW,2024-02-15T14:36:37.827000Z,2024-02-15T14:57:53.897000Z,,2024-02-15T14:57:54.395317Z,1277.0,CVPIIDEI,61,37,Male,Mixed,United States,United States,United States,English,DATA_EXPIRED,Full-Time,Not Applicable
6418886a921030399cc91e71,<b>I think a lot about arguments against my views.,Highly disagree,72/94,Somewhat agree,3,1708008610522,1708008624678,\Somewhat agree\,\Somewhat agree\,\3\,1708008623962,1708008623962,13440,13440,14156,buq,qns-item-noham,72,806218,0.0-1.0-0.71,65ce216b8bc77b8f88da62ef,AWAITING REVIEW,2024-02-15T14:36:37.827000Z,2024-02-15T14:57:53.897000Z,,2024-02-15T14:57:54.395317Z,1277.0,CVPIIDEI,61,37,Male,Mixed,United States,United States,United States,English,DATA_EXPIRED,Full-Time,Not Applicable
6418886a921030399cc91e71,<b>Personal experience is usually more important than facts and figures.,Highly disagree,73/94,Somewhat agree,3,1708008624679,1708008633798,\Somewhat agree\,\Somewhat agree\,\3\,1708008632652,1708008632652,7973,7973,9119,buq,qns-item-noham,73,815338,0.0-1.0-0.72,65ce216b8bc77b8f88da62ef,AWAITING REVIEW,2024-02-15T14:36:37.827000Z,2024-02-15T14:57:53.897000Z,,2024-02-15T14:57:54.395317Z,1277.0,CVPIIDEI,61,37,Male,Mixed,United States,United States,United States,English,DATA_EXPIRED,Full-Time,Not Applicable
6418886a921030399cc91e71,<b>I?ve been tricked before about important matters.,Highly disagree,74/94,Somewhat agree,3,1708008633799,1708008637277,\Somewhat agree\,\Somewhat agree\,\3\,1708008636663,1708008636663,2864,2864,3478,buq,qns-item-noham,74,818817,0.0-1.0-0.73,65ce216b8bc77b8f88da62ef,AWAITING REVIEW,2024-02-15T14:36:37.827000Z,2024-02-15T14:57:53.897000Z,,2024-02-15T14:57:54.395317Z,1277.0,CVPIIDEI,61,37,Male,Mixed,United States,United States,United States,English,DATA_EXPIRED,Full-Time,Not Applicable
6418886a921030399cc91e71,<b>I would need to be totally wowed if I were to change my opinion of a restaurant I don?t like.,Highly disagree,75/94,Somewhat agree,3,1708008637278,1708008649513,\Somewhat agree\,\Somewhat agree\,\3\,1708008645462,1708008645462,8184,8184,12235,buq,qns-item-noham,75,831053,0.0-1.0-0.74,65ce216b8bc77b8f88da62ef,AWAITING REVIEW,2024-02-15T14:36:37.827000Z,2024-02-15T14:57:53.897000Z,,2024-02-15T14:57:54.395317Z,1277.0,CVPIIDEI,61,37,Male,Mixed,United States,United States,United States,English,DATA_EXPIRED,Full-Time,Not Applicable
6418886a921030399cc91e71,<b>I care a lot about politics.,Highly disagree,76/94,Somewhat agree,3,1708008649514,1708008652821,\Somewhat agree\,\Somewhat agree\,\3\,1708008651997,1708008651997,2483,2483,3307,buq,qns-item-noham,76,834361,0.0-1.0-0.75,65ce216b8bc77b8f88da62ef,AWAITING REVIEW,2024-02-15T14:36:37.827000Z,2024-02-15T14:57:53.897000Z,,2024-02-15T14:57:54.395317Z,1277.0,CVPIIDEI,61,37,Male,Mixed,United States,United States,United States,English,DATA_EXPIRED,Full-Time,Not Applicable
6418886a921030399cc91e71,<b>There are some topics I?ve been really wrong about.,Highly disagree,77/94,Highly agree,4,1708008652822,1708008658595,\Highly agree\,\Highly agree\,\4\,1708008658049,1708008658049,5227,5227,5773,buq,qns-item-noham,77,840135,0.0-1.0-0.76,65ce216b8bc77b8f88da62ef,AWAITING REVIEW,2024-02-15T14:36:37.827000Z,2024-02-15T14:57:53.897000Z,,2024-02-15T14:57:54.395317Z,1277.0,CVPIIDEI,61,37,Male,Mixed,United States,United States,United States,English,DATA_EXPIRED,Full-Time,Not Applicable
6418886a921030399cc91e71,<b>Most beliefs can be supported with at least some evidence.,Highly disagree,78/94,Somewhat agree,3,1708008658597,1708008669566,\Somewhat agree\,\Somewhat agree\,\3\,1708008668825,1708008668825,10228,10228,10969,buq,qns-item-noham,78,851106,0.0-1.0-0.77,65ce216b8bc77b8f88da62ef,AWAITING REVIEW,2024-02-15T14:36:37.827000Z,2024-02-15T14:57:53.897000Z,,2024-02-15T14:57:54.395317Z,1277.0,CVPIIDEI,61,37,Male,Mixed,United States,United States,United States,English,DATA_EXPIRED,Full-Time,Not Applicable
6418886a921030399cc91e71,<b>Other people make life out to be more complicated than it really is.,Highly disagree,79/94,Somewhat disagree,2,1708008669566,1708008677581,\Somewhat disagree\,\Somewhat disagree\,\2\,1708008676569,1708008676569,7003,7003,8015,buq,qns-item-noham,79,859121,0.0-1.0-0.78,65ce216b8bc77b8f88da62ef,AWAITING REVIEW,2024-02-15T14:36:37.827000Z,2024-02-15T14:57:53.897000Z,,2024-02-15T14:57:54.395317Z,1277.0,CVPIIDEI,61,37,Male,Mixed,United States,United States,United States,English,DATA_EXPIRED,Full-Time,Not Applicable
6418886a921030399cc91e71,"<b>Policy details don?t matter much, just the big picture.",Highly disagree,80/94,Somewhat disagree,2,1708008677582,1708008685734,\Somewhat disagree\,\Somewhat disagree\,\2\,1708008684994,1708008684994,7412,7412,8152,buq,qns-item-noham,80,867274,0.0-1.0-0.79,65ce216b8bc77b8f88da62ef,AWAITING REVIEW,2024-02-15T14:36:37.827000Z,2024-02-15T14:57:53.897000Z,,2024-02-15T14:57:54.395317Z,1277.0,CVPIIDEI,61,37,Male,Mixed,United States,United States,United States,English,DATA_EXPIRED,Full-Time,Not Applicable
6418886a921030399cc91e71,<b>I know my friends so well they can hardly ever surprise me.,Highly disagree,81/94,Somewhat disagree,2,1708008685735,1708008692415,\Highly disagree\,\Somewhat disagree\,\1\,1708008690037,1708008691723,4302,5988,6680,buq,qns-item-noham,81,873955,0.0-1.0-0.80,65ce216b8bc77b8f88da62ef,AWAITING REVIEW,2024-02-15T14:36:37.827000Z,2024-02-15T14:57:53.897000Z,,2024-02-15T14:57:54.395317Z,1277.0,CVPIIDEI,61,37,Male,Mixed,United States,United States,United States,English,DATA_EXPIRED,Full-Time,Not Applicable
6418886a921030399cc91e71,<b>I do not often change my views on people.,Highly disagree,82/94,Somewhat disagree,2,1708008692415,1708008699799,\Somewhat disagree\,\Somewhat disagree\,\2\,1708008698844,1708008698844,6429,6429,7384,buq,qns-item-noham,82,881339,0.0-1.0-0.81,65ce216b8bc77b8f88da62ef,AWAITING REVIEW,2024-02-15T14:36:37.827000Z,2024-02-15T14:57:53.897000Z,,2024-02-15T14:57:54.395317Z,1277.0,CVPIIDEI,61,37,Male,Mixed,United States,United States,United States,English,DATA_EXPIRED,Full-Time,Not Applicable
6418886a921030399cc91e71,<b>I?m more certain about my beliefs than I used to be.,Highly disagree,83/94,Somewhat agree,3,1708008699800,1708008709371,\Somewhat agree\,\Somewhat agree\,\3\,1708008708571,1708008708571,8771,8771,9571,buq,qns-item-noham,83,890911,0.0-1.0-0.82,65ce216b8bc77b8f88da62ef,AWAITING REVIEW,2024-02-15T14:36:37.827000Z,2024-02-15T14:57:53.897000Z,,2024-02-15T14:57:54.395317Z,1277.0,CVPIIDEI,61,37,Male,Mixed,United States,United States,United States,English,DATA_EXPIRED,Full-Time,Not Applicable
6418886a921030399cc91e71,<b>People often tell falsehoods unintentionally.,Highly disagree,84/94,Somewhat agree,3,1708008709372,1708008716290,\Somewhat agree\,\Somewhat agree\,\3\,1708008715636,1708008715636,6264,6264,6918,buq,qns-item-noham,84,897830,0.0-1.0-0.83,65ce216b8bc77b8f88da62ef,AWAITING REVIEW,2024-02-15T14:36:37.827000Z,2024-02-15T14:57:53.897000Z,,2024-02-15T14:57:54.395317Z,1277.0,CVPIIDEI,61,37,Male,Mixed,United States,United States,United States,English,DATA_EXPIRED,Full-Time,Not Applicable
6418886a921030399cc91e71,<b>Most people don?t know much about most things.,Highly disagree,85/94,Highly agree,4,1708008716290,1708008723444,\Highly agree\,\Highly agree\,\4\,1708008722632,1708008722632,6342,6342,7154,buq,qns-item-noham,85,904984,0.0-1.0-0.84,65ce216b8bc77b8f88da62ef,AWAITING REVIEW,2024-02-15T14:36:37.827000Z,2024-02-15T14:57:53.897000Z,,2024-02-15T14:57:54.395317Z,1277.0,CVPIIDEI,61,37,Male,Mixed,United States,United States,United States,English,DATA_EXPIRED,Full-Time,Not Applicable
6418886a921030399cc91e71,"<b>If I find out something new about someone, I easily change my views about them.",Highly disagree,86/94,Somewhat agree,3,1708008723445,1708008731303,\Somewhat agree\,\Somewhat agree\,\3\,1708008730651,1708008730651,7206,7206,7858,buq,qns-item-noham,86,912843,0.0-1.0-0.85,65ce216b8bc77b8f88da62ef,AWAITING REVIEW,2024-02-15T14:36:37.827000Z,2024-02-15T14:57:53.897000Z,,2024-02-15T14:57:54.395317Z,1277.0,CVPIIDEI,61,37,Male,Mixed,United States,United States,United States,English,DATA_EXPIRED,Full-Time,Not Applicable
6418886a921030399cc91e71,<b>Having true beliefs is difficult.,Highly disagree,87/94,Somewhat agree,3,1708008731304,1708008735889,\Somewhat agree\,\Somewhat agree\,\3\,1708008735115,1708008735115,3811,3811,4585,buq,qns-item-noham,87,917429,0.0-1.0-0.86,65ce216b8bc77b8f88da62ef,AWAITING REVIEW,2024-02-15T14:36:37.827000Z,2024-02-15T14:57:53.897000Z,,2024-02-15T14:57:54.395317Z,1277.0,CVPIIDEI,61,37,Male,Mixed,United States,United States,United States,English,DATA_EXPIRED,Full-Time,Not Applicable
6418886a921030399cc91e71,<b>I don?t try new foods since I know I won?t like them.,Highly disagree,88/94,Highly disagree,1,1708008735890,1708008741949,\Highly disagree\,\Highly disagree\,\1\,1708008740900,1708008740900,5010,5010,6059,buq,qns-item-noham,88,923489,0.0-1.0-0.87,65ce216b8bc77b8f88da62ef,AWAITING REVIEW,2024-02-15T14:36:37.827000Z,2024-02-15T14:57:53.897000Z,,2024-02-15T14:57:54.395317Z,1277.0,CVPIIDEI,61,37,Male,Mixed,United States,United States,United States,English,DATA_EXPIRED,Full-Time,Not Applicable
6418886a921030399cc91e71,<b>Other people trick each other a lot.,Highly disagree,89/94,Somewhat disagree,2,1708008741950,1708008749191,\Somewhat disagree\,\Somewhat disagree\,\2\,1708008748526,1708008748526,6576,6576,7241,buq,qns-item-noham,89,930731,0.0-1.0-0.88,65ce216b8bc77b8f88da62ef,AWAITING REVIEW,2024-02-15T14:36:37.827000Z,2024-02-15T14:57:53.897000Z,,2024-02-15T14:57:54.395317Z,1277.0,CVPIIDEI,61,37,Male,Mixed,United States,United States,United States,English,DATA_EXPIRED,Full-Time,Not Applicable
6418886a921030399cc91e71,<b>I would need to learn a lot about a person for my opinion of them to be swayed.,Highly disagree,90/94,Somewhat agree,3,1708008749192,1708008762559,\Somewhat agree\,\Somewhat agree\,\3\,1708008761711,1708008761711,12519,12519,13367,buq,qns-item-noham,90,944099,0.0-1.0-0.89,65ce216b8bc77b8f88da62ef,AWAITING REVIEW,2024-02-15T14:36:37.827000Z,2024-02-15T14:57:53.897000Z,,2024-02-15T14:57:54.395317Z,1277.0,CVPIIDEI,61,37,Male,Mixed,United States,United States,United States,English,DATA_EXPIRED,Full-Time,Not Applicable
6418886a921030399cc91e71,<b>People can?t usually trick me when it comes to topics I care about.,Highly disagree,91/94,Somewhat agree,3,1708008762559,1708008770491,\Somewhat agree\,\Somewhat agree\,\3\,1708008769552,1708008769552,6993,6993,7932,buq,qns-item-noham,91,952031,0.0-1.0-0.90,65ce216b8bc77b8f88da62ef,AWAITING REVIEW,2024-02-15T14:36:37.827000Z,2024-02-15T14:57:53.897000Z,,2024-02-15T14:57:54.395317Z,1277.0,CVPIIDEI,61,37,Male,Mixed,United States,United States,United States,English,DATA_EXPIRED,Full-Time,Not Applicable
6418886a921030399cc91e71,<b>I do not often change my views on food.,Highly disagree,92/94,Somewhat disagree,2,1708008770492,1708008777731,\Somewhat disagree\,\Somewhat disagree\,\2\,1708008776562,1708008776562,6070,6070,7239,buq,qns-item-noham,92,959271,0.0-1.0-0.91,65ce216b8bc77b8f88da62ef,AWAITING REVIEW,2024-02-15T14:36:37.827000Z,2024-02-15T14:57:53.897000Z,,2024-02-15T14:57:54.395317Z,1277.0,CVPIIDEI,61,37,Male,Mixed,United States,United States,United States,English,DATA_EXPIRED,Full-Time,Not Applicable
6418886a921030399cc91e71,<b>Specific policies are often very important to me.,Highly disagree,93/94,Somewhat agree,3,1708008777731,1708008786282,\Somewhat agree\,\Somewhat agree\,\3\,1708008785639,1708008785639,7908,7908,8551,buq,qns-item-noham,93,967822,0.0-1.0-0.92,65ce216b8bc77b8f88da62ef,AWAITING REVIEW,2024-02-15T14:36:37.827000Z,2024-02-15T14:57:53.897000Z,,2024-02-15T14:57:54.395317Z,1277.0,CVPIIDEI,61,37,Male,Mixed,United States,United States,United States,English,DATA_EXPIRED,Full-Time,Not Applicable
6418886a921030399cc91e71,<b>Most people are woefully under-informed.,Highly disagree,94/94,Highly agree,4,1708008786283,1708008790990,\Highly agree\,\Highly agree\,\4\,1708008789222,1708008789222,2939,2939,4707,buq,qns-item-noham,94,972530,0.0-1.0-0.93,65ce216b8bc77b8f88da62ef,AWAITING REVIEW,2024-02-15T14:36:37.827000Z,2024-02-15T14:57:53.897000Z,,2024-02-15T14:57:54.395317Z,1277.0,CVPIIDEI,61,37,Male,Mixed,United States,United States,United States,English,DATA_EXPIRED,Full-Time,Not Applicable
6418886a921030399cc91e71,,,,,,,,,,,,,,,,,,,,,65ce216b8bc77b8f88da62ef,AWAITING REVIEW,2024-02-15T14:36:37.827000Z,2024-02-15T14:57:53.897000Z,,2024-02-15T14:57:54.395317Z,1277.0,CVPIIDEI,61,37,Male,Mixed,United States,United States,United States,English,DATA_EXPIRED,Full-Time,Not Applicable
