PROLIFIC_PID,Question,qns_options,quest_num,answer,answer_num,question_load_timestamp,next_btn_timestamp,text_selected,final_text_selected,option_num_selected,preview_timestamps,final_text_selected_time_stamp,rt_first_option_click,rt_final_option_click,rt_submit_click,questionnaire,trial_type,trial_index,time_elapsed,internal_node_id,Demographic_Submission id,Demographic_Status,Demographic_Started at,Demographic_Completed at,Demographic_Reviewed at,Demographic_Archived at,Demographic_Time taken,Demographic_Completion code,Demographic_Total approvals,Demographic_Age,Demographic_Sex,Demographic_Ethnicity simplified,Demographic_Country of birth,Demographic_Country of residence,Demographic_Nationality,Demographic_Language,Demographic_Student status,Demographic_Employment status,Demographic_Custom study tncs accepted at
5d7085f70a426200186bc676,<b>Knowing what?s true and knowing what to do about it are usually basically the same.,Highly disagree,1/94,Somewhat disagree,2,1708008035484,1708008041465,\Somewhat disagree\,\Somewhat disagree\,\2\,1708008040814,1708008040814,5330,5330,5981,buq,qns-item-noham,1,17950,0.0-1.0-0.0,65ce2242f956b6a7e2282b03,AWAITING REVIEW,2024-02-15T14:40:06.991000Z,2024-02-15T14:49:14.084000Z,,2024-02-15T14:49:14.655800Z,548.0,CVPIIDEI,164,29,Male,White,United States,United States,United States,English,No,DATA_EXPIRED,Not Applicable
5d7085f70a426200186bc676,<b>Most people just believe whatever is convenient for them.,Highly disagree,2/94,Somewhat agree,3,1708008041468,1708008046387,\Somewhat agree\,\Somewhat agree\,\3\,1708008046047,1708008046047,4579,4579,4919,buq,qns-item-noham,2,22872,0.0-1.0-0.1,65ce2242f956b6a7e2282b03,AWAITING REVIEW,2024-02-15T14:40:06.991000Z,2024-02-15T14:49:14.084000Z,,2024-02-15T14:49:14.655800Z,548.0,CVPIIDEI,164,29,Male,White,United States,United States,United States,English,No,DATA_EXPIRED,Not Applicable
5d7085f70a426200186bc676,<b>Having some big beliefs helps me sort out minor ones.,Highly disagree,3/94,Somewhat agree,3,1708008046388,1708008049204,\Somewhat agree\,\Somewhat agree\,\3\,1708008048830,1708008048830,2442,2442,2816,buq,qns-item-noham,3,25689,0.0-1.0-0.2,65ce2242f956b6a7e2282b03,AWAITING REVIEW,2024-02-15T14:40:06.991000Z,2024-02-15T14:49:14.084000Z,,2024-02-15T14:49:14.655800Z,548.0,CVPIIDEI,164,29,Male,White,United States,United States,United States,English,No,DATA_EXPIRED,Not Applicable
5d7085f70a426200186bc676,<b>Political questions are usually pretty complicated.,Highly disagree,4/94,Highly agree,4,1708008049205,1708008051763,\Highly agree\,\Highly agree\,\4\,1708008051398,1708008051398,2193,2193,2558,buq,qns-item-noham,4,28248,0.0-1.0-0.3,65ce2242f956b6a7e2282b03,AWAITING REVIEW,2024-02-15T14:40:06.991000Z,2024-02-15T14:49:14.084000Z,,2024-02-15T14:49:14.655800Z,548.0,CVPIIDEI,164,29,Male,White,United States,United States,United States,English,No,DATA_EXPIRED,Not Applicable
5d7085f70a426200186bc676,<b>Figuring out what?s important in life requires learning a lot of facts.,Highly disagree,5/94,Highly agree,4,1708008051764,1708008056173,\Highly agree\,\Highly agree\,\4\,1708008055457,1708008055457,3693,3693,4409,buq,qns-item-noham,5,32658,0.0-1.0-0.4,65ce2242f956b6a7e2282b03,AWAITING REVIEW,2024-02-15T14:40:06.991000Z,2024-02-15T14:49:14.084000Z,,2024-02-15T14:49:14.655800Z,548.0,CVPIIDEI,164,29,Male,White,United States,United States,United States,English,No,DATA_EXPIRED,Not Applicable
5d7085f70a426200186bc676,<b>It is difficult for me to remember the last time I was surprised by politics.,Highly disagree,6/94,Highly disagree,1,1708008056174,1708008060476,\Highly disagree\,\Highly disagree\,\1\,1708008060045,1708008060045,3871,3871,4302,buq,qns-item-noham,6,36961,0.0-1.0-0.5,65ce2242f956b6a7e2282b03,AWAITING REVIEW,2024-02-15T14:40:06.991000Z,2024-02-15T14:49:14.084000Z,,2024-02-15T14:49:14.655800Z,548.0,CVPIIDEI,164,29,Male,White,United States,United States,United States,English,No,DATA_EXPIRED,Not Applicable
5d7085f70a426200186bc676,<b>People?s false beliefs are understandable.,Highly disagree,7/94,Somewhat agree,3,1708008060477,1708008066654,\Somewhat agree\,\Somewhat agree\,\3\,1708008065696,1708008065696,5219,5219,6177,buq,qns-item-noham,7,43139,0.0-1.0-0.6,65ce2242f956b6a7e2282b03,AWAITING REVIEW,2024-02-15T14:40:06.991000Z,2024-02-15T14:49:14.084000Z,,2024-02-15T14:49:14.655800Z,548.0,CVPIIDEI,164,29,Male,White,United States,United States,United States,English,No,DATA_EXPIRED,Not Applicable
5d7085f70a426200186bc676,<b>I spend a lot of time trying to be informed about politics.,Highly disagree,8/94,Somewhat disagree,2,1708008066655,1708008079685,\Somewhat disagree\,\Somewhat disagree\,\2\,1708008079285,1708008079285,12630,12630,13030,buq,qns-item-noham,8,56170,0.0-1.0-0.7,65ce2242f956b6a7e2282b03,AWAITING REVIEW,2024-02-15T14:40:06.991000Z,2024-02-15T14:49:14.084000Z,,2024-02-15T14:49:14.655800Z,548.0,CVPIIDEI,164,29,Male,White,United States,United States,United States,English,No,DATA_EXPIRED,Not Applicable
5d7085f70a426200186bc676,<b>I think a lot about whether my beliefs are right.,Highly disagree,9/94,Somewhat agree,3,1708008079686,1708008081616,\Somewhat agree\,\Somewhat agree\,\3\,1708008081275,1708008081275,1589,1589,1930,buq,qns-item-noham,9,58102,0.0-1.0-0.8,65ce2242f956b6a7e2282b03,AWAITING REVIEW,2024-02-15T14:40:06.991000Z,2024-02-15T14:49:14.084000Z,,2024-02-15T14:49:14.655800Z,548.0,CVPIIDEI,164,29,Male,White,United States,United States,United States,English,No,DATA_EXPIRED,Not Applicable
5d7085f70a426200186bc676,<b>Statistics can be pretty misleading sometimes.,Highly disagree,10/94,Somewhat agree,3,1708008081618,1708008084450,\Somewhat agree\,\Somewhat agree\,\3\,1708008084148,1708008084148,2530,2530,2832,buq,qns-item-noham,10,60935,0.0-1.0-0.9,65ce2242f956b6a7e2282b03,AWAITING REVIEW,2024-02-15T14:40:06.991000Z,2024-02-15T14:49:14.084000Z,,2024-02-15T14:49:14.655800Z,548.0,CVPIIDEI,164,29,Male,White,United States,United States,United States,English,No,DATA_EXPIRED,Not Applicable
5d7085f70a426200186bc676,<b>I have lots of beliefs that I?m only sort of sure about.,Highly disagree,11/94,Somewhat agree,3,1708008084451,1708008087719,\Somewhat agree\,\Somewhat agree\,\3\,1708008087376,1708008087376,2925,2925,3268,buq,qns-item-noham,11,64204,0.0-1.0-0.10,65ce2242f956b6a7e2282b03,AWAITING REVIEW,2024-02-15T14:40:06.991000Z,2024-02-15T14:49:14.084000Z,,2024-02-15T14:49:14.655800Z,548.0,CVPIIDEI,164,29,Male,White,United States,United States,United States,English,No,DATA_EXPIRED,Not Applicable
5d7085f70a426200186bc676,"<b>If I go to my favorite restaurant and the food is surprisingly bad, it reminds me there are many disappointments in life.",Highly disagree,12/94,Somewhat agree,3,1708008087720,1708008106559,\Somewhat agree\,\Somewhat agree\,\3\,1708008105740,1708008105740,18020,18020,18839,buq,qns-item-noham,12,83044,0.0-1.0-0.11,65ce2242f956b6a7e2282b03,AWAITING REVIEW,2024-02-15T14:40:06.991000Z,2024-02-15T14:49:14.084000Z,,2024-02-15T14:49:14.655800Z,548.0,CVPIIDEI,164,29,Male,White,United States,United States,United States,English,No,DATA_EXPIRED,Not Applicable
5d7085f70a426200186bc676,"<b>If you are paying attention, please select ?Somewhat agree?",Highly disagree,13/94,Somewhat agree,3,1708008106561,1708008112319,\Somewhat disagree\,\Somewhat agree\,\2\,1708008109075,1708008110003,2514,3442,5758,buq,qns-item-noham,13,88804,0.0-1.0-0.12,65ce2242f956b6a7e2282b03,AWAITING REVIEW,2024-02-15T14:40:06.991000Z,2024-02-15T14:49:14.084000Z,,2024-02-15T14:49:14.655800Z,548.0,CVPIIDEI,164,29,Male,White,United States,United States,United States,English,No,DATA_EXPIRED,Not Applicable
5d7085f70a426200186bc676,"<b>When I talk to others, I often worry I?ll convince them of something I didn?t mean to.",Highly disagree,14/94,Somewhat agree,3,1708008112320,1708008116004,\Somewhat agree\,\Somewhat agree\,\3\,1708008115571,1708008115622,3251,3302,3684,buq,qns-item-noham,14,92489,0.0-1.0-0.13,65ce2242f956b6a7e2282b03,AWAITING REVIEW,2024-02-15T14:40:06.991000Z,2024-02-15T14:49:14.084000Z,,2024-02-15T14:49:14.655800Z,548.0,CVPIIDEI,164,29,Male,White,United States,United States,United States,English,No,DATA_EXPIRED,Not Applicable
5d7085f70a426200186bc676,<b>I would need to learn something utterly shocking about my party in order to change my political views.,Highly disagree,15/94,Somewhat agree,3,1708008116005,1708008119535,\Somewhat agree\,\Somewhat agree\,\3\,1708008119091,1708008119091,3086,3086,3530,buq,qns-item-noham,15,96021,0.0-1.0-0.14,65ce2242f956b6a7e2282b03,AWAITING REVIEW,2024-02-15T14:40:06.991000Z,2024-02-15T14:49:14.084000Z,,2024-02-15T14:49:14.655800Z,548.0,CVPIIDEI,164,29,Male,White,United States,United States,United States,English,No,DATA_EXPIRED,Not Applicable
5d7085f70a426200186bc676,"<b>When I have new experiences, I tend to think of them as unique.",Highly disagree,16/94,Somewhat agree,3,1708008119536,1708008121400,\Somewhat agree\,\Somewhat agree\,\3\,1708008121051,1708008121051,1515,1515,1864,buq,qns-item-noham,16,97885,0.0-1.0-0.15,65ce2242f956b6a7e2282b03,AWAITING REVIEW,2024-02-15T14:40:06.991000Z,2024-02-15T14:49:14.084000Z,,2024-02-15T14:49:14.655800Z,548.0,CVPIIDEI,164,29,Male,White,United States,United States,United States,English,No,DATA_EXPIRED,Not Applicable
5d7085f70a426200186bc676,<b>I change my mind about specific policies pretty frequently.,Highly disagree,17/94,Somewhat agree,3,1708008121401,1708008123709,\Somewhat agree\,\Somewhat agree\,\3\,1708008123084,1708008123084,1683,1683,2308,buq,qns-item-noham,17,100194,0.0-1.0-0.16,65ce2242f956b6a7e2282b03,AWAITING REVIEW,2024-02-15T14:40:06.991000Z,2024-02-15T14:49:14.084000Z,,2024-02-15T14:49:14.655800Z,548.0,CVPIIDEI,164,29,Male,White,United States,United States,United States,English,No,DATA_EXPIRED,Not Applicable
5d7085f70a426200186bc676,"<b>If a politician in my political party supports something I disagree with, I give them the benefit of the doubt, as such issues often involve hidden complexities that aren?t obvious.   ",Highly disagree,18/94,Somewhat agree,3,1708008123710,1708008175935,\Somewhat agree\,\Somewhat agree\,\3\,1708008175004,1708008175004,51294,51294,52225,buq,qns-item-noham,18,152420,0.0-1.0-0.17,65ce2242f956b6a7e2282b03,AWAITING REVIEW,2024-02-15T14:40:06.991000Z,2024-02-15T14:49:14.084000Z,,2024-02-15T14:49:14.655800Z,548.0,CVPIIDEI,164,29,Male,White,United States,United States,United States,English,No,DATA_EXPIRED,Not Applicable
5d7085f70a426200186bc676,<b>People?s bad politics are usually motivated by hatefulness.,Highly disagree,19/94,Somewhat agree,3,1708008175936,1708008178755,\Somewhat agree\,\Somewhat agree\,\3\,1708008177563,1708008177563,1627,1627,2819,buq,qns-item-noham,19,155240,0.0-1.0-0.18,65ce2242f956b6a7e2282b03,AWAITING REVIEW,2024-02-15T14:40:06.991000Z,2024-02-15T14:49:14.084000Z,,2024-02-15T14:49:14.655800Z,548.0,CVPIIDEI,164,29,Male,White,United States,United States,United States,English,No,DATA_EXPIRED,Not Applicable
5d7085f70a426200186bc676,<b>I think a lot about how to reconcile my beliefs with one another.,Highly disagree,20/94,Somewhat agree,3,1708008178757,1708008181104,\Somewhat agree\,\Somewhat agree\,\3\,1708008180752,1708008180752,1995,1995,2347,buq,qns-item-noham,20,157589,0.0-1.0-0.19,65ce2242f956b6a7e2282b03,AWAITING REVIEW,2024-02-15T14:40:06.991000Z,2024-02-15T14:49:14.084000Z,,2024-02-15T14:49:14.655800Z,548.0,CVPIIDEI,164,29,Male,White,United States,United States,United States,English,No,DATA_EXPIRED,Not Applicable
5d7085f70a426200186bc676,<b>I might have false beliefs about important topics.,Highly disagree,21/94,Somewhat agree,3,1708008181105,1708008183809,\Somewhat agree\,\Somewhat agree\,\3\,1708008183482,1708008183482,2377,2377,2704,buq,qns-item-noham,21,160294,0.0-1.0-0.20,65ce2242f956b6a7e2282b03,AWAITING REVIEW,2024-02-15T14:40:06.991000Z,2024-02-15T14:49:14.084000Z,,2024-02-15T14:49:14.655800Z,548.0,CVPIIDEI,164,29,Male,White,United States,United States,United States,English,No,DATA_EXPIRED,Not Applicable
5d7085f70a426200186bc676,"<b>If a good friend of mine does something unexpected that upsets me, I feel like I don?t know them anymore.",Highly disagree,22/94,Somewhat agree,3,1708008183810,1708008187125,\Somewhat agree\,\Somewhat agree\,\3\,1708008186785,1708008186785,2975,2975,3315,buq,qns-item-noham,22,163610,0.0-1.0-0.21,65ce2242f956b6a7e2282b03,AWAITING REVIEW,2024-02-15T14:40:06.991000Z,2024-02-15T14:49:14.084000Z,,2024-02-15T14:49:14.655800Z,548.0,CVPIIDEI,164,29,Male,White,United States,United States,United States,English,No,DATA_EXPIRED,Not Applicable
5d7085f70a426200186bc676,<b>Other people?s beliefs are often incoherent.,Highly disagree,23/94,Somewhat disagree,2,1708008187126,1708008190548,\Somewhat agree\,\Somewhat disagree\,\3\,1708008188434,1708008190234,1308,3108,3422,buq,qns-item-noham,23,167033,0.0-1.0-0.22,65ce2242f956b6a7e2282b03,AWAITING REVIEW,2024-02-15T14:40:06.991000Z,2024-02-15T14:49:14.084000Z,,2024-02-15T14:49:14.655800Z,548.0,CVPIIDEI,164,29,Male,White,United States,United States,United States,English,No,DATA_EXPIRED,Not Applicable
5d7085f70a426200186bc676,"<b>Every now and then, a new experience will unsettle beliefs I?ve had for a while.",Highly disagree,24/94,Somewhat agree,3,1708008190549,1708008192772,\Somewhat agree\,\Somewhat agree\,\3\,1708008192471,1708008192471,1922,1922,2223,buq,qns-item-noham,24,169257,0.0-1.0-0.23,65ce2242f956b6a7e2282b03,AWAITING REVIEW,2024-02-15T14:40:06.991000Z,2024-02-15T14:49:14.084000Z,,2024-02-15T14:49:14.655800Z,548.0,CVPIIDEI,164,29,Male,White,United States,United States,United States,English,No,DATA_EXPIRED,Not Applicable
5d7085f70a426200186bc676,<b>Some policies I agree with in principle are so bad I don?t support them. ,Highly disagree,25/94,Somewhat agree,3,1708008192773,1708008196487,\Somewhat agree\,\Somewhat agree\,\3\,1708008195749,1708008195749,2976,2976,3714,buq,qns-item-noham,25,172972,0.0-1.0-0.24,65ce2242f956b6a7e2282b03,AWAITING REVIEW,2024-02-15T14:40:06.991000Z,2024-02-15T14:49:14.084000Z,,2024-02-15T14:49:14.655800Z,548.0,CVPIIDEI,164,29,Male,White,United States,United States,United States,English,No,DATA_EXPIRED,Not Applicable
5d7085f70a426200186bc676,<b>I?m pretty sure I?ve accidentally spread false information.,Highly disagree,26/94,Somewhat agree,3,1708008196488,1708008204754,\Somewhat agree\,\Somewhat agree\,\3\,1708008204316,1708008204316,7828,7828,8266,buq,qns-item-noham,26,181239,0.0-1.0-0.25,65ce2242f956b6a7e2282b03,AWAITING REVIEW,2024-02-15T14:40:06.991000Z,2024-02-15T14:49:14.084000Z,,2024-02-15T14:49:14.655800Z,548.0,CVPIIDEI,164,29,Male,White,United States,United States,United States,English,No,DATA_EXPIRED,Not Applicable
5d7085f70a426200186bc676,"<b>If I go to my favorite restaurant and the food is unexpectedly bad, then they have changed owners.",Highly disagree,27/94,Somewhat disagree,2,1708008204755,1708008209783,\Somewhat agree\,\Somewhat disagree\,\3\,1708008206752,1708008209436,1997,4681,5028,buq,qns-item-noham,27,186268,0.0-1.0-0.26,65ce2242f956b6a7e2282b03,AWAITING REVIEW,2024-02-15T14:40:06.991000Z,2024-02-15T14:49:14.084000Z,,2024-02-15T14:49:14.655800Z,548.0,CVPIIDEI,164,29,Male,White,United States,United States,United States,English,No,DATA_EXPIRED,Not Applicable
5d7085f70a426200186bc676,"<b>In politics, it?s important to trust your friends and family.",Highly disagree,28/94,Somewhat agree,3,1708008209784,1708008211690,\Somewhat agree\,\Somewhat agree\,\3\,1708008211220,1708008211220,1436,1436,1906,buq,qns-item-noham,28,188175,0.0-1.0-0.27,65ce2242f956b6a7e2282b03,AWAITING REVIEW,2024-02-15T14:40:06.991000Z,2024-02-15T14:49:14.084000Z,,2024-02-15T14:49:14.655800Z,548.0,CVPIIDEI,164,29,Male,White,United States,United States,United States,English,No,DATA_EXPIRED,Not Applicable
5d7085f70a426200186bc676,<b>It?s OK to have some conflicting beliefs.,Highly disagree,29/94,Somewhat agree,3,1708008211691,1708008213731,\Somewhat agree\,\Somewhat agree\,\3\,1708008212886,1708008212886,1195,1195,2040,buq,qns-item-noham,29,190216,0.0-1.0-0.28,65ce2242f956b6a7e2282b03,AWAITING REVIEW,2024-02-15T14:40:06.991000Z,2024-02-15T14:49:14.084000Z,,2024-02-15T14:49:14.655800Z,548.0,CVPIIDEI,164,29,Male,White,United States,United States,United States,English,No,DATA_EXPIRED,Not Applicable
5d7085f70a426200186bc676,<b>Listening to people I disagree with makes my opinions better.,Highly disagree,30/94,Somewhat agree,3,1708008213732,1708008215885,\Somewhat agree\,\Somewhat agree\,\3\,1708008215394,1708008215394,1662,1662,2153,buq,qns-item-noham,30,192370,0.0-1.0-0.29,65ce2242f956b6a7e2282b03,AWAITING REVIEW,2024-02-15T14:40:06.991000Z,2024-02-15T14:49:14.084000Z,,2024-02-15T14:49:14.655800Z,548.0,CVPIIDEI,164,29,Male,White,United States,United States,United States,English,No,DATA_EXPIRED,Not Applicable
5d7085f70a426200186bc676,<b>My moral compass sometimes makes it harder to determine what?s true.,Highly disagree,31/94,Somewhat agree,3,1708008215886,1708008218029,\Somewhat agree\,\Somewhat agree\,\3\,1708008217485,1708008217485,1599,1599,2143,buq,qns-item-noham,31,194514,0.0-1.0-0.30,65ce2242f956b6a7e2282b03,AWAITING REVIEW,2024-02-15T14:40:06.991000Z,2024-02-15T14:49:14.084000Z,,2024-02-15T14:49:14.655800Z,548.0,CVPIIDEI,164,29,Male,White,United States,United States,United States,English,No,DATA_EXPIRED,Not Applicable
5d7085f70a426200186bc676,<b>Evidence pointing in the wrong direction isn?t really evidence at all.,Highly disagree,32/94,Somewhat disagree,2,1708008218030,1708008221062,\Somewhat disagree\,\Somewhat disagree\,\2\,1708008220777,1708008220777,2747,2747,3032,buq,qns-item-noham,32,197547,0.0-1.0-0.31,65ce2242f956b6a7e2282b03,AWAITING REVIEW,2024-02-15T14:40:06.991000Z,2024-02-15T14:49:14.084000Z,,2024-02-15T14:49:14.655800Z,548.0,CVPIIDEI,164,29,Male,White,United States,United States,United States,English,No,DATA_EXPIRED,Not Applicable
5d7085f70a426200186bc676,"<b>If the political party I support messes up, it makes me think politics is rotten.",Highly disagree,33/94,Somewhat disagree,2,1708008221063,1708008225654,\Somewhat disagree\,\Somewhat disagree\,\2\,1708008224731,1708008224731,3668,3668,4591,buq,qns-item-noham,33,202139,0.0-1.0-0.32,65ce2242f956b6a7e2282b03,AWAITING REVIEW,2024-02-15T14:40:06.991000Z,2024-02-15T14:49:14.084000Z,,2024-02-15T14:49:14.655800Z,548.0,CVPIIDEI,164,29,Male,White,United States,United States,United States,English,No,DATA_EXPIRED,Not Applicable
5d7085f70a426200186bc676,<b>Lots of important topics can only really be understood by some groups of people.,Highly disagree,34/94,Somewhat agree,3,1708008225655,1708008272156,\Somewhat agree\,\Somewhat agree\,\3\,1708008271573,1708008271573,45918,45918,46501,buq,qns-item-noham,34,248641,0.0-1.0-0.33,65ce2242f956b6a7e2282b03,AWAITING REVIEW,2024-02-15T14:40:06.991000Z,2024-02-15T14:49:14.084000Z,,2024-02-15T14:49:14.655800Z,548.0,CVPIIDEI,164,29,Male,White,United States,United States,United States,English,No,DATA_EXPIRED,Not Applicable
5d7085f70a426200186bc676,<b>Having conflicting beliefs means you haven?t thought about them enough.,Highly disagree,35/94,Somewhat disagree,2,1708008272157,1708008274630,\Somewhat agree\,\Somewhat disagree\,\3\,1708008273370,1708008274283,1213,2126,2473,buq,qns-item-noham,35,251115,0.0-1.0-0.34,65ce2242f956b6a7e2282b03,AWAITING REVIEW,2024-02-15T14:40:06.991000Z,2024-02-15T14:49:14.084000Z,,2024-02-15T14:49:14.655800Z,548.0,CVPIIDEI,164,29,Male,White,United States,United States,United States,English,No,DATA_EXPIRED,Not Applicable
5d7085f70a426200186bc676,<b>I do not often change my political opinions.,Highly disagree,36/94,Somewhat disagree,2,1708008274631,1708008277945,\Somewhat disagree\,\Somewhat disagree\,\2\,1708008277373,1708008277373,2742,2742,3314,buq,qns-item-noham,36,254430,0.0-1.0-0.35,65ce2242f956b6a7e2282b03,AWAITING REVIEW,2024-02-15T14:40:06.991000Z,2024-02-15T14:49:14.084000Z,,2024-02-15T14:49:14.655800Z,548.0,CVPIIDEI,164,29,Male,White,United States,United States,United States,English,No,DATA_EXPIRED,Not Applicable
5d7085f70a426200186bc676,<b>It?s difficult to not have at least some conflicting beliefs.,Highly disagree,37/94,Somewhat disagree,2,1708008277946,1708008281178,\Somewhat disagree\,\Somewhat disagree\,\2\,1708008280917,1708008280917,2971,2971,3232,buq,qns-item-noham,37,257663,0.0-1.0-0.36,65ce2242f956b6a7e2282b03,AWAITING REVIEW,2024-02-15T14:40:06.991000Z,2024-02-15T14:49:14.084000Z,,2024-02-15T14:49:14.655800Z,548.0,CVPIIDEI,164,29,Male,White,United States,United States,United States,English,No,DATA_EXPIRED,Not Applicable
5d7085f70a426200186bc676,<b>Wishful thinking causes a lot of problems.,Highly disagree,38/94,Somewhat agree,3,1708008281179,1708008282841,\Somewhat agree\,\Somewhat agree\,\3\,1708008282556,1708008282556,1377,1377,1662,buq,qns-item-noham,38,259326,0.0-1.0-0.37,65ce2242f956b6a7e2282b03,AWAITING REVIEW,2024-02-15T14:40:06.991000Z,2024-02-15T14:49:14.084000Z,,2024-02-15T14:49:14.655800Z,548.0,CVPIIDEI,164,29,Male,White,United States,United States,United States,English,No,DATA_EXPIRED,Not Applicable
5d7085f70a426200186bc676,<b>I judge a food item only once I try it many times.,Highly disagree,39/94,Somewhat disagree,2,1708008282842,1708008287134,\Somewhat agree\,\Somewhat disagree\,\3\,1708008284782,1708008286833,1940,3991,4292,buq,qns-item-noham,39,263619,0.0-1.0-0.38,65ce2242f956b6a7e2282b03,AWAITING REVIEW,2024-02-15T14:40:06.991000Z,2024-02-15T14:49:14.084000Z,,2024-02-15T14:49:14.655800Z,548.0,CVPIIDEI,164,29,Male,White,United States,United States,United States,English,No,DATA_EXPIRED,Not Applicable
5d7085f70a426200186bc676,"<b>When a person holds conflicting beliefs, they should really try to figure out what?s wrong.",Highly disagree,40/94,Somewhat disagree,2,1708008287135,1708008290191,\Somewhat disagree\,\Somewhat disagree\,\2\,1708008289902,1708008289902,2767,2767,3056,buq,qns-item-noham,40,266676,0.0-1.0-0.39,65ce2242f956b6a7e2282b03,AWAITING REVIEW,2024-02-15T14:40:06.991000Z,2024-02-15T14:49:14.084000Z,,2024-02-15T14:49:14.655800Z,548.0,CVPIIDEI,164,29,Male,White,United States,United States,United States,English,No,DATA_EXPIRED,Not Applicable
5d7085f70a426200186bc676,<b>Knowing what?s important in life is easy.,Highly disagree,41/94,Somewhat disagree,2,1708008290192,1708008297431,\Somewhat disagree\,\Somewhat disagree\,\2\,1708008297021,1708008297021,6829,6829,7239,buq,qns-item-noham,41,273916,0.0-1.0-0.40,65ce2242f956b6a7e2282b03,AWAITING REVIEW,2024-02-15T14:40:06.991000Z,2024-02-15T14:49:14.084000Z,,2024-02-15T14:49:14.655800Z,548.0,CVPIIDEI,164,29,Male,White,United States,United States,United States,English,No,DATA_EXPIRED,Not Applicable
5d7085f70a426200186bc676,<b>I swim across the Atlantic Ocean to get to work every day.,Highly disagree,42/94,Highly disagree,1,1708008297432,1708008301285,\Highly disagree\,\Highly disagree\,\1\,1708008299555,1708008299555,2123,2123,3853,buq,qns-item-noham,42,277770,0.0-1.0-0.41,65ce2242f956b6a7e2282b03,AWAITING REVIEW,2024-02-15T14:40:06.991000Z,2024-02-15T14:49:14.084000Z,,2024-02-15T14:49:14.655800Z,548.0,CVPIIDEI,164,29,Male,White,United States,United States,United States,English,No,DATA_EXPIRED,Not Applicable
5d7085f70a426200186bc676,"<b>Sometimes, you just have to ignore evidence that you know is wrong.",Highly disagree,43/94,Somewhat disagree,2,1708008301286,1708008303934,\Somewhat disagree\,\Somewhat disagree\,\2\,1708008303574,1708008303574,2288,2288,2648,buq,qns-item-noham,43,280419,0.0-1.0-0.42,65ce2242f956b6a7e2282b03,AWAITING REVIEW,2024-02-15T14:40:06.991000Z,2024-02-15T14:49:14.084000Z,,2024-02-15T14:49:14.655800Z,548.0,CVPIIDEI,164,29,Male,White,United States,United States,United States,English,No,DATA_EXPIRED,Not Applicable
5d7085f70a426200186bc676,<b>I have had some false beliefs.,Highly disagree,44/94,Somewhat agree,3,1708008303935,1708008307619,\Somewhat agree\,\Somewhat agree\,\3\,1708008307008,1708008307008,3073,3073,3684,buq,qns-item-noham,44,284104,0.0-1.0-0.43,65ce2242f956b6a7e2282b03,AWAITING REVIEW,2024-02-15T14:40:06.991000Z,2024-02-15T14:49:14.084000Z,,2024-02-15T14:49:14.655800Z,548.0,CVPIIDEI,164,29,Male,White,United States,United States,United States,English,No,DATA_EXPIRED,Not Applicable
5d7085f70a426200186bc676,"<b>If one friend does something that upsets me, I sometimes start to distrust people in general.",Highly disagree,45/94,Somewhat disagree,2,1708008307620,1708008310430,\Somewhat disagree\,\Somewhat disagree\,\2\,1708008310158,1708008310158,2538,2538,2810,buq,qns-item-noham,45,286915,0.0-1.0-0.44,65ce2242f956b6a7e2282b03,AWAITING REVIEW,2024-02-15T14:40:06.991000Z,2024-02-15T14:49:14.084000Z,,2024-02-15T14:49:14.655800Z,548.0,CVPIIDEI,164,29,Male,White,United States,United States,United States,English,No,DATA_EXPIRED,Not Applicable
5d7085f70a426200186bc676,<b>The facts about most important matters are easy to find.,Highly disagree,46/94,Somewhat agree,3,1708008310431,1708008313316,\Somewhat agree\,\Somewhat agree\,\3\,1708008313014,1708008313014,2583,2583,2885,buq,qns-item-noham,46,289801,0.0-1.0-0.45,65ce2242f956b6a7e2282b03,AWAITING REVIEW,2024-02-15T14:40:06.991000Z,2024-02-15T14:49:14.084000Z,,2024-02-15T14:49:14.655800Z,548.0,CVPIIDEI,164,29,Male,White,United States,United States,United States,English,No,DATA_EXPIRED,Not Applicable
5d7085f70a426200186bc676,<b>It?s better to know what?s true than to know what?s moral.,Highly disagree,47/94,Somewhat agree,3,1708008313317,1708008316563,\Somewhat agree\,\Somewhat agree\,\3\,1708008316263,1708008316263,2946,2946,3246,buq,qns-item-noham,47,293048,0.0-1.0-0.46,65ce2242f956b6a7e2282b03,AWAITING REVIEW,2024-02-15T14:40:06.991000Z,2024-02-15T14:49:14.084000Z,,2024-02-15T14:49:14.655800Z,548.0,CVPIIDEI,164,29,Male,White,United States,United States,United States,English,No,DATA_EXPIRED,Not Applicable
5d7085f70a426200186bc676,<b>I used to think the world was less complicated than I do now.,Highly disagree,48/94,Somewhat disagree,2,1708008316564,1708008321750,\Somewhat disagree\,\Somewhat disagree\,\2\,1708008321461,1708008321461,4897,4897,5186,buq,qns-item-noham,48,298235,0.0-1.0-0.47,65ce2242f956b6a7e2282b03,AWAITING REVIEW,2024-02-15T14:40:06.991000Z,2024-02-15T14:49:14.084000Z,,2024-02-15T14:49:14.655800Z,548.0,CVPIIDEI,164,29,Male,White,United States,United States,United States,English,No,DATA_EXPIRED,Not Applicable
5d7085f70a426200186bc676,<b>People are usually completely right or completely wrong.,Highly disagree,49/94,Somewhat disagree,2,1708008321751,1708008324416,\Somewhat disagree\,\Somewhat disagree\,\2\,1708008324033,1708008324033,2282,2282,2665,buq,qns-item-noham,49,300901,0.0-1.0-0.48,65ce2242f956b6a7e2282b03,AWAITING REVIEW,2024-02-15T14:40:06.991000Z,2024-02-15T14:49:14.084000Z,,2024-02-15T14:49:14.655800Z,548.0,CVPIIDEI,164,29,Male,White,United States,United States,United States,English,No,DATA_EXPIRED,Not Applicable
5d7085f70a426200186bc676,<b>I spend a lot of time considering alternatives to my beliefs.,Highly disagree,50/94,Somewhat agree,3,1708008324417,1708008327266,\Somewhat agree\,\Somewhat agree\,\3\,1708008326960,1708008326960,2543,2543,2849,buq,qns-item-noham,50,303751,0.0-1.0-0.49,65ce2242f956b6a7e2282b03,AWAITING REVIEW,2024-02-15T14:40:06.991000Z,2024-02-15T14:49:14.084000Z,,2024-02-15T14:49:14.655800Z,548.0,CVPIIDEI,164,29,Male,White,United States,United States,United States,English,No,DATA_EXPIRED,Not Applicable
5d7085f70a426200186bc676,"<b>Political enemies need to be defeated, not convinced.",Highly disagree,51/94,Highly disagree,1,1708008327266,1708008330265,\Highly disagree\,\Highly disagree\,\1\,1708008329621,1708008329621,2355,2355,2999,buq,qns-item-noham,51,306750,0.0-1.0-0.50,65ce2242f956b6a7e2282b03,AWAITING REVIEW,2024-02-15T14:40:06.991000Z,2024-02-15T14:49:14.084000Z,,2024-02-15T14:49:14.655800Z,548.0,CVPIIDEI,164,29,Male,White,United States,United States,United States,English,No,DATA_EXPIRED,Not Applicable
5d7085f70a426200186bc676,<b>I form my political views only after meticulously gathering historical and present information about their policies.,Highly disagree,52/94,Somewhat agree,3,1708008330266,1708008334255,\Somewhat disagree\,\Somewhat agree\,\2\,1708008332723,1708008333863,2457,3597,3989,buq,qns-item-noham,52,310740,0.0-1.0-0.51,65ce2242f956b6a7e2282b03,AWAITING REVIEW,2024-02-15T14:40:06.991000Z,2024-02-15T14:49:14.084000Z,,2024-02-15T14:49:14.655800Z,548.0,CVPIIDEI,164,29,Male,White,United States,United States,United States,English,No,DATA_EXPIRED,Not Applicable
5d7085f70a426200186bc676,<b>It is difficult for me to remember the last time I was surprised by politics.,Highly disagree,53/94,Somewhat disagree,2,1708008334256,1708008337203,\Somewhat disagree\,\Somewhat disagree\,\2\,1708008336746,1708008336746,2490,2490,2947,buq,qns-item-noham,53,313688,0.0-1.0-0.52,65ce2242f956b6a7e2282b03,AWAITING REVIEW,2024-02-15T14:40:06.991000Z,2024-02-15T14:49:14.084000Z,,2024-02-15T14:49:14.655800Z,548.0,CVPIIDEI,164,29,Male,White,United States,United States,United States,English,No,DATA_EXPIRED,Not Applicable
5d7085f70a426200186bc676,"<b>When I find out I?m wrong, I think a lot about my related beliefs.",Highly disagree,54/94,Somewhat agree,3,1708008337204,1708008340818,\Somewhat agree\,\Somewhat agree\,\3\,1708008340498,1708008340498,3294,3294,3614,buq,qns-item-noham,54,317304,0.0-1.0-0.53,65ce2242f956b6a7e2282b03,AWAITING REVIEW,2024-02-15T14:40:06.991000Z,2024-02-15T14:49:14.084000Z,,2024-02-15T14:49:14.655800Z,548.0,CVPIIDEI,164,29,Male,White,United States,United States,United States,English,No,DATA_EXPIRED,Not Applicable
5d7085f70a426200186bc676,"<b>If the political party I support messes up, it makes me think you can?t trust anyone these days",Highly disagree,55/94,Somewhat disagree,2,1708008340819,1708008343719,\Somewhat disagree\,\Somewhat disagree\,\2\,1708008343379,1708008343379,2560,2560,2900,buq,qns-item-noham,55,320204,0.0-1.0-0.54,65ce2242f956b6a7e2282b03,AWAITING REVIEW,2024-02-15T14:40:06.991000Z,2024-02-15T14:49:14.084000Z,,2024-02-15T14:49:14.655800Z,548.0,CVPIIDEI,164,29,Male,White,United States,United States,United States,English,No,DATA_EXPIRED,Not Applicable
5d7085f70a426200186bc676,<b>People?s brains turn off when they talk about politics.,Highly disagree,56/94,Somewhat disagree,2,1708008343720,1708008347199,\Somewhat disagree\,\Somewhat disagree\,\2\,1708008346906,1708008346906,3186,3186,3479,buq,qns-item-noham,56,323684,0.0-1.0-0.55,65ce2242f956b6a7e2282b03,AWAITING REVIEW,2024-02-15T14:40:06.991000Z,2024-02-15T14:49:14.084000Z,,2024-02-15T14:49:14.655800Z,548.0,CVPIIDEI,164,29,Male,White,United States,United States,United States,English,No,DATA_EXPIRED,Not Applicable
5d7085f70a426200186bc676,<b>People who are wrong are usually just ignoring the obvious.,Highly disagree,57/94,Somewhat disagree,2,1708008347199,1708008351900,\Somewhat disagree\,\Somewhat disagree\,\2\,1708008351128,1708008351128,3929,3929,4701,buq,qns-item-noham,57,328386,0.0-1.0-0.56,65ce2242f956b6a7e2282b03,AWAITING REVIEW,2024-02-15T14:40:06.991000Z,2024-02-15T14:49:14.084000Z,,2024-02-15T14:49:14.655800Z,548.0,CVPIIDEI,164,29,Male,White,United States,United States,United States,English,No,DATA_EXPIRED,Not Applicable
5d7085f70a426200186bc676,"<b>When forming my views on people, I rely more on what they are like now rather than rely on my past experience with them.",Highly disagree,58/94,Somewhat disagree,2,1708008351901,1708008360049,\Somewhat disagree\,\Somewhat disagree\,\2\,1708008359725,1708008359725,7824,7824,8148,buq,qns-item-noham,58,336534,0.0-1.0-0.57,65ce2242f956b6a7e2282b03,AWAITING REVIEW,2024-02-15T14:40:06.991000Z,2024-02-15T14:49:14.084000Z,,2024-02-15T14:49:14.655800Z,548.0,CVPIIDEI,164,29,Male,White,United States,United States,United States,English,No,DATA_EXPIRED,Not Applicable
5d7085f70a426200186bc676,"<b>When people contradict my beliefs, I usually know about their evidence already.",Highly disagree,59/94,Somewhat disagree,2,1708008360050,1708008362414,\Somewhat disagree\,\Somewhat disagree\,\2\,1708008362119,1708008362119,2069,2069,2364,buq,qns-item-noham,59,338899,0.0-1.0-0.58,65ce2242f956b6a7e2282b03,AWAITING REVIEW,2024-02-15T14:40:06.991000Z,2024-02-15T14:49:14.084000Z,,2024-02-15T14:49:14.655800Z,548.0,CVPIIDEI,164,29,Male,White,United States,United States,United States,English,No,DATA_EXPIRED,Not Applicable
5d7085f70a426200186bc676,<b>Figuring out what?s true and what?s false mainly requires a strong moral compass.,Highly disagree,60/94,Somewhat disagree,2,1708008362414,1708008365063,\Somewhat disagree\,\Somewhat disagree\,\2\,1708008364451,1708008364451,2037,2037,2649,buq,qns-item-noham,60,341548,0.0-1.0-0.59,65ce2242f956b6a7e2282b03,AWAITING REVIEW,2024-02-15T14:40:06.991000Z,2024-02-15T14:49:14.084000Z,,2024-02-15T14:49:14.655800Z,548.0,CVPIIDEI,164,29,Male,White,United States,United States,United States,English,No,DATA_EXPIRED,Not Applicable
5d7085f70a426200186bc676,"<b>Usually I?m wrong about simple things, not complicated ones.",Highly disagree,61/94,Somewhat disagree,2,1708008365064,1708008368029,\Somewhat disagree\,\Somewhat disagree\,\2\,1708008367677,1708008367677,2613,2613,2965,buq,qns-item-noham,61,344514,0.0-1.0-0.60,65ce2242f956b6a7e2282b03,AWAITING REVIEW,2024-02-15T14:40:06.991000Z,2024-02-15T14:49:14.084000Z,,2024-02-15T14:49:14.655800Z,548.0,CVPIIDEI,164,29,Male,White,United States,United States,United States,English,No,DATA_EXPIRED,Not Applicable
5d7085f70a426200186bc676,<b>Getting all the information I want about important things is hard.,Highly disagree,62/94,Somewhat agree,3,1708008368030,1708008372240,\Somewhat agree\,\Somewhat agree\,\3\,1708008371750,1708008371750,3720,3720,4210,buq,qns-item-noham,62,348725,0.0-1.0-0.61,65ce2242f956b6a7e2282b03,AWAITING REVIEW,2024-02-15T14:40:06.991000Z,2024-02-15T14:49:14.084000Z,,2024-02-15T14:49:14.655800Z,548.0,CVPIIDEI,164,29,Male,White,United States,United States,United States,English,No,DATA_EXPIRED,Not Applicable
5d7085f70a426200186bc676,<b>Most false beliefs spread because people try to deceive one another.,Highly disagree,63/94,Somewhat agree,3,1708008372240,1708008375770,\Somewhat agree\,\Somewhat agree\,\3\,1708008375458,1708008375458,3218,3218,3530,buq,qns-item-noham,63,352255,0.0-1.0-0.62,65ce2242f956b6a7e2282b03,AWAITING REVIEW,2024-02-15T14:40:06.991000Z,2024-02-15T14:49:14.084000Z,,2024-02-15T14:49:14.655800Z,548.0,CVPIIDEI,164,29,Male,White,United States,United States,United States,English,No,DATA_EXPIRED,Not Applicable
5d7085f70a426200186bc676,<b>I can usually find something to agree with in most people?s beliefs.,Highly disagree,64/94,Somewhat agree,3,1708008375771,1708008378355,\Somewhat agree\,\Somewhat agree\,\3\,1708008378045,1708008378045,2274,2274,2584,buq,qns-item-noham,64,354840,0.0-1.0-0.63,65ce2242f956b6a7e2282b03,AWAITING REVIEW,2024-02-15T14:40:06.991000Z,2024-02-15T14:49:14.084000Z,,2024-02-15T14:49:14.655800Z,548.0,CVPIIDEI,164,29,Male,White,United States,United States,United States,English,No,DATA_EXPIRED,Not Applicable
5d7085f70a426200186bc676,<b>I only form my views of people once I get to know them very well.,Highly disagree,65/94,Somewhat agree,3,1708008378355,1708008381424,\Somewhat disagree\,\Somewhat agree\,\2\,1708008380691,1708008381161,2336,2806,3069,buq,qns-item-noham,65,357909,0.0-1.0-0.64,65ce2242f956b6a7e2282b03,AWAITING REVIEW,2024-02-15T14:40:06.991000Z,2024-02-15T14:49:14.084000Z,,2024-02-15T14:49:14.655800Z,548.0,CVPIIDEI,164,29,Male,White,United States,United States,United States,English,No,DATA_EXPIRED,Not Applicable
5d7085f70a426200186bc676,"<b>When people tell me important things about the world, I usually believe them.",Highly disagree,66/94,Somewhat disagree,2,1708008381425,1708008385771,\Somewhat disagree\,\Somewhat disagree\,\2\,1708008385104,1708008385104,3679,3679,4346,buq,qns-item-noham,66,362256,0.0-1.0-0.65,65ce2242f956b6a7e2282b03,AWAITING REVIEW,2024-02-15T14:40:06.991000Z,2024-02-15T14:49:14.084000Z,,2024-02-15T14:49:14.655800Z,548.0,CVPIIDEI,164,29,Male,White,United States,United States,United States,English,No,DATA_EXPIRED,Not Applicable
5d7085f70a426200186bc676,"<b>If a friend does something that upsets me, it reminds me what an unpredictable place the world is.",Highly disagree,67/94,Somewhat disagree,2,1708008385772,1708008388556,\Somewhat disagree\,\Somewhat disagree\,\2\,1708008388230,1708008388230,2458,2458,2784,buq,qns-item-noham,67,365041,0.0-1.0-0.66,65ce2242f956b6a7e2282b03,AWAITING REVIEW,2024-02-15T14:40:06.991000Z,2024-02-15T14:49:14.084000Z,,2024-02-15T14:49:14.655800Z,548.0,CVPIIDEI,164,29,Male,White,United States,United States,United States,English,No,DATA_EXPIRED,Not Applicable
5d7085f70a426200186bc676,<b>People tend to believe whatever is good for their friends.,Highly disagree,68/94,Somewhat agree,3,1708008388557,1708008394412,\Somewhat disagree\,\Somewhat agree\,\2\,1708008390809,1708008393636,2252,5079,5855,buq,qns-item-noham,68,370897,0.0-1.0-0.67,65ce2242f956b6a7e2282b03,AWAITING REVIEW,2024-02-15T14:40:06.991000Z,2024-02-15T14:49:14.084000Z,,2024-02-15T14:49:14.655800Z,548.0,CVPIIDEI,164,29,Male,White,United States,United States,United States,English,No,DATA_EXPIRED,Not Applicable
5d7085f70a426200186bc676,<b>I used to be more certain my beliefs were true.,Highly disagree,69/94,Somewhat agree,3,1708008394413,1708008396532,\Somewhat agree\,\Somewhat agree\,\3\,1708008396211,1708008396211,1798,1798,2119,buq,qns-item-noham,69,373017,0.0-1.0-0.68,65ce2242f956b6a7e2282b03,AWAITING REVIEW,2024-02-15T14:40:06.991000Z,2024-02-15T14:49:14.084000Z,,2024-02-15T14:49:14.655800Z,548.0,CVPIIDEI,164,29,Male,White,United States,United States,United States,English,No,DATA_EXPIRED,Not Applicable
5d7085f70a426200186bc676,<b>It?s often pretty easy to figure out whether something is true based on who said it.,Highly disagree,70/94,Somewhat agree,3,1708008396533,1708008398579,\Somewhat agree\,\Somewhat agree\,\3\,1708008398180,1708008398180,1647,1647,2046,buq,qns-item-noham,70,375064,0.0-1.0-0.69,65ce2242f956b6a7e2282b03,AWAITING REVIEW,2024-02-15T14:40:06.991000Z,2024-02-15T14:49:14.084000Z,,2024-02-15T14:49:14.655800Z,548.0,CVPIIDEI,164,29,Male,White,United States,United States,United States,English,No,DATA_EXPIRED,Not Applicable
5d7085f70a426200186bc676,<b>I transform into a hummingbird every day.,Highly disagree,71/94,Highly disagree,1,1708008398580,1708008401309,\Highly disagree\,\Highly disagree\,\1\,1708008400504,1708008400504,1924,1924,2729,buq,qns-item-noham,71,377794,0.0-1.0-0.70,65ce2242f956b6a7e2282b03,AWAITING REVIEW,2024-02-15T14:40:06.991000Z,2024-02-15T14:49:14.084000Z,,2024-02-15T14:49:14.655800Z,548.0,CVPIIDEI,164,29,Male,White,United States,United States,United States,English,No,DATA_EXPIRED,Not Applicable
5d7085f70a426200186bc676,<b>I think a lot about arguments against my views.,Highly disagree,72/94,Somewhat disagree,2,1708008401311,1708008403267,\Somewhat disagree\,\Somewhat disagree\,\2\,1708008402940,1708008402940,1629,1629,1956,buq,qns-item-noham,72,379752,0.0-1.0-0.71,65ce2242f956b6a7e2282b03,AWAITING REVIEW,2024-02-15T14:40:06.991000Z,2024-02-15T14:49:14.084000Z,,2024-02-15T14:49:14.655800Z,548.0,CVPIIDEI,164,29,Male,White,United States,United States,United States,English,No,DATA_EXPIRED,Not Applicable
5d7085f70a426200186bc676,<b>Personal experience is usually more important than facts and figures.,Highly disagree,73/94,Somewhat agree,3,1708008403268,1708008415197,\Somewhat agree\,\Somewhat agree\,\3\,1708008414782,1708008414782,11514,11514,11929,buq,qns-item-noham,73,391682,0.0-1.0-0.72,65ce2242f956b6a7e2282b03,AWAITING REVIEW,2024-02-15T14:40:06.991000Z,2024-02-15T14:49:14.084000Z,,2024-02-15T14:49:14.655800Z,548.0,CVPIIDEI,164,29,Male,White,United States,United States,United States,English,No,DATA_EXPIRED,Not Applicable
5d7085f70a426200186bc676,<b>I?ve been tricked before about important matters.,Highly disagree,74/94,Somewhat agree,3,1708008415198,1708008417520,\Somewhat agree\,\Somewhat agree\,\3\,1708008417196,1708008417196,1998,1998,2322,buq,qns-item-noham,74,394005,0.0-1.0-0.73,65ce2242f956b6a7e2282b03,AWAITING REVIEW,2024-02-15T14:40:06.991000Z,2024-02-15T14:49:14.084000Z,,2024-02-15T14:49:14.655800Z,548.0,CVPIIDEI,164,29,Male,White,United States,United States,United States,English,No,DATA_EXPIRED,Not Applicable
5d7085f70a426200186bc676,<b>I would need to be totally wowed if I were to change my opinion of a restaurant I don?t like.,Highly disagree,75/94,Somewhat agree,3,1708008417521,1708008421104,\Somewhat agree\,\Somewhat agree\,\3\,1708008420427,1708008420427,2906,2906,3583,buq,qns-item-noham,75,397589,0.0-1.0-0.74,65ce2242f956b6a7e2282b03,AWAITING REVIEW,2024-02-15T14:40:06.991000Z,2024-02-15T14:49:14.084000Z,,2024-02-15T14:49:14.655800Z,548.0,CVPIIDEI,164,29,Male,White,United States,United States,United States,English,No,DATA_EXPIRED,Not Applicable
5d7085f70a426200186bc676,<b>I care a lot about politics.,Highly disagree,76/94,Somewhat disagree,2,1708008421105,1708008422888,\Somewhat disagree\,\Somewhat disagree\,\2\,1708008422270,1708008422270,1165,1165,1783,buq,qns-item-noham,76,399373,0.0-1.0-0.75,65ce2242f956b6a7e2282b03,AWAITING REVIEW,2024-02-15T14:40:06.991000Z,2024-02-15T14:49:14.084000Z,,2024-02-15T14:49:14.655800Z,548.0,CVPIIDEI,164,29,Male,White,United States,United States,United States,English,No,DATA_EXPIRED,Not Applicable
5d7085f70a426200186bc676,<b>There are some topics I?ve been really wrong about.,Highly disagree,77/94,Somewhat agree,3,1708008422889,1708008425835,\Somewhat agree\,\Somewhat agree\,\3\,1708008425497,1708008425497,2608,2608,2946,buq,qns-item-noham,77,402320,0.0-1.0-0.76,65ce2242f956b6a7e2282b03,AWAITING REVIEW,2024-02-15T14:40:06.991000Z,2024-02-15T14:49:14.084000Z,,2024-02-15T14:49:14.655800Z,548.0,CVPIIDEI,164,29,Male,White,United States,United States,United States,English,No,DATA_EXPIRED,Not Applicable
5d7085f70a426200186bc676,<b>Most beliefs can be supported with at least some evidence.,Highly disagree,78/94,Somewhat agree,3,1708008425836,1708008428620,\Somewhat agree\,\Somewhat agree\,\3\,1708008428102,1708008428102,2266,2266,2784,buq,qns-item-noham,78,405105,0.0-1.0-0.77,65ce2242f956b6a7e2282b03,AWAITING REVIEW,2024-02-15T14:40:06.991000Z,2024-02-15T14:49:14.084000Z,,2024-02-15T14:49:14.655800Z,548.0,CVPIIDEI,164,29,Male,White,United States,United States,United States,English,No,DATA_EXPIRED,Not Applicable
5d7085f70a426200186bc676,<b>Other people make life out to be more complicated than it really is.,Highly disagree,79/94,Somewhat disagree,2,1708008428621,1708008431756,\Somewhat agree\,\Somewhat disagree\,\3\,1708008430126,1708008431462,1505,2841,3135,buq,qns-item-noham,79,408241,0.0-1.0-0.78,65ce2242f956b6a7e2282b03,AWAITING REVIEW,2024-02-15T14:40:06.991000Z,2024-02-15T14:49:14.084000Z,,2024-02-15T14:49:14.655800Z,548.0,CVPIIDEI,164,29,Male,White,United States,United States,United States,English,No,DATA_EXPIRED,Not Applicable
5d7085f70a426200186bc676,"<b>Policy details don?t matter much, just the big picture.",Highly disagree,80/94,Somewhat disagree,2,1708008431757,1708008434906,\Somewhat disagree\,\Somewhat disagree\,\2\,1708008434539,1708008434539,2782,2782,3149,buq,qns-item-noham,80,411391,0.0-1.0-0.79,65ce2242f956b6a7e2282b03,AWAITING REVIEW,2024-02-15T14:40:06.991000Z,2024-02-15T14:49:14.084000Z,,2024-02-15T14:49:14.655800Z,548.0,CVPIIDEI,164,29,Male,White,United States,United States,United States,English,No,DATA_EXPIRED,Not Applicable
5d7085f70a426200186bc676,<b>I know my friends so well they can hardly ever surprise me.,Highly disagree,81/94,Somewhat disagree,2,1708008434907,1708008437555,\Somewhat disagree\,\Somewhat disagree\,\2\,1708008437050,1708008437050,2143,2143,2648,buq,qns-item-noham,81,414040,0.0-1.0-0.80,65ce2242f956b6a7e2282b03,AWAITING REVIEW,2024-02-15T14:40:06.991000Z,2024-02-15T14:49:14.084000Z,,2024-02-15T14:49:14.655800Z,548.0,CVPIIDEI,164,29,Male,White,United States,United States,United States,English,No,DATA_EXPIRED,Not Applicable
5d7085f70a426200186bc676,<b>I do not often change my views on people.,Highly disagree,82/94,Somewhat disagree,2,1708008437556,1708008440286,\Somewhat disagree\,\Somewhat disagree\,\2\,1708008440003,1708008440003,2447,2447,2730,buq,qns-item-noham,82,416771,0.0-1.0-0.81,65ce2242f956b6a7e2282b03,AWAITING REVIEW,2024-02-15T14:40:06.991000Z,2024-02-15T14:49:14.084000Z,,2024-02-15T14:49:14.655800Z,548.0,CVPIIDEI,164,29,Male,White,United States,United States,United States,English,No,DATA_EXPIRED,Not Applicable
5d7085f70a426200186bc676,<b>I?m more certain about my beliefs than I used to be.,Highly disagree,83/94,Somewhat disagree,2,1708008440286,1708008443292,\Somewhat disagree\,\Somewhat disagree\,\2\,1708008442970,1708008442970,2684,2684,3006,buq,qns-item-noham,83,419777,0.0-1.0-0.82,65ce2242f956b6a7e2282b03,AWAITING REVIEW,2024-02-15T14:40:06.991000Z,2024-02-15T14:49:14.084000Z,,2024-02-15T14:49:14.655800Z,548.0,CVPIIDEI,164,29,Male,White,United States,United States,United States,English,No,DATA_EXPIRED,Not Applicable
5d7085f70a426200186bc676,<b>People often tell falsehoods unintentionally.,Highly disagree,84/94,Somewhat agree,3,1708008443294,1708008445318,\Somewhat agree\,\Somewhat agree\,\3\,1708008445032,1708008445032,1738,1738,2024,buq,qns-item-noham,84,421804,0.0-1.0-0.83,65ce2242f956b6a7e2282b03,AWAITING REVIEW,2024-02-15T14:40:06.991000Z,2024-02-15T14:49:14.084000Z,,2024-02-15T14:49:14.655800Z,548.0,CVPIIDEI,164,29,Male,White,United States,United States,United States,English,No,DATA_EXPIRED,Not Applicable
5d7085f70a426200186bc676,<b>Most people don?t know much about most things.,Highly disagree,85/94,Somewhat agree,3,1708008445319,1708008447767,\Somewhat agree\,\Somewhat agree\,\3\,1708008447405,1708008447405,2086,2086,2448,buq,qns-item-noham,85,424252,0.0-1.0-0.84,65ce2242f956b6a7e2282b03,AWAITING REVIEW,2024-02-15T14:40:06.991000Z,2024-02-15T14:49:14.084000Z,,2024-02-15T14:49:14.655800Z,548.0,CVPIIDEI,164,29,Male,White,United States,United States,United States,English,No,DATA_EXPIRED,Not Applicable
5d7085f70a426200186bc676,"<b>If I find out something new about someone, I easily change my views about them.",Highly disagree,86/94,Somewhat agree,3,1708008447768,1708008450589,\Somewhat agree\,\Somewhat agree\,\3\,1708008450208,1708008450208,2440,2440,2821,buq,qns-item-noham,86,427074,0.0-1.0-0.85,65ce2242f956b6a7e2282b03,AWAITING REVIEW,2024-02-15T14:40:06.991000Z,2024-02-15T14:49:14.084000Z,,2024-02-15T14:49:14.655800Z,548.0,CVPIIDEI,164,29,Male,White,United States,United States,United States,English,No,DATA_EXPIRED,Not Applicable
5d7085f70a426200186bc676,<b>Having true beliefs is difficult.,Highly disagree,87/94,Somewhat disagree,2,1708008450589,1708008454582,\Somewhat disagree\,\Somewhat disagree\,\2\,1708008454229,1708008454229,3640,3640,3993,buq,qns-item-noham,87,431067,0.0-1.0-0.86,65ce2242f956b6a7e2282b03,AWAITING REVIEW,2024-02-15T14:40:06.991000Z,2024-02-15T14:49:14.084000Z,,2024-02-15T14:49:14.655800Z,548.0,CVPIIDEI,164,29,Male,White,United States,United States,United States,English,No,DATA_EXPIRED,Not Applicable
5d7085f70a426200186bc676,<b>I don?t try new foods since I know I won?t like them.,Highly disagree,88/94,Highly agree,4,1708008454583,1708008458273,\Highly agree\,\Highly agree\,\4\,1708008457836,1708008457836,3253,3253,3690,buq,qns-item-noham,88,434758,0.0-1.0-0.87,65ce2242f956b6a7e2282b03,AWAITING REVIEW,2024-02-15T14:40:06.991000Z,2024-02-15T14:49:14.084000Z,,2024-02-15T14:49:14.655800Z,548.0,CVPIIDEI,164,29,Male,White,United States,United States,United States,English,No,DATA_EXPIRED,Not Applicable
5d7085f70a426200186bc676,<b>Other people trick each other a lot.,Highly disagree,89/94,Somewhat agree,3,1708008458274,1708008460775,\Somewhat agree\,\Somewhat agree\,\3\,1708008460303,1708008460303,2029,2029,2501,buq,qns-item-noham,89,437261,0.0-1.0-0.88,65ce2242f956b6a7e2282b03,AWAITING REVIEW,2024-02-15T14:40:06.991000Z,2024-02-15T14:49:14.084000Z,,2024-02-15T14:49:14.655800Z,548.0,CVPIIDEI,164,29,Male,White,United States,United States,United States,English,No,DATA_EXPIRED,Not Applicable
5d7085f70a426200186bc676,<b>I would need to learn a lot about a person for my opinion of them to be swayed.,Highly disagree,90/94,Somewhat agree,3,1708008460777,1708008464664,\Somewhat agree\,\Somewhat agree\,\3\,1708008464167,1708008464167,3390,3390,3887,buq,qns-item-noham,90,441149,0.0-1.0-0.89,65ce2242f956b6a7e2282b03,AWAITING REVIEW,2024-02-15T14:40:06.991000Z,2024-02-15T14:49:14.084000Z,,2024-02-15T14:49:14.655800Z,548.0,CVPIIDEI,164,29,Male,White,United States,United States,United States,English,No,DATA_EXPIRED,Not Applicable
5d7085f70a426200186bc676,<b>People can?t usually trick me when it comes to topics I care about.,Highly disagree,91/94,Somewhat agree,3,1708008464665,1708008468614,\Somewhat agree\,\Somewhat agree\,\3\,1708008466699,1708008466699,2034,2034,3949,buq,qns-item-noham,91,445099,0.0-1.0-0.90,65ce2242f956b6a7e2282b03,AWAITING REVIEW,2024-02-15T14:40:06.991000Z,2024-02-15T14:49:14.084000Z,,2024-02-15T14:49:14.655800Z,548.0,CVPIIDEI,164,29,Male,White,United States,United States,United States,English,No,DATA_EXPIRED,Not Applicable
5d7085f70a426200186bc676,<b>I do not often change my views on food.,Highly disagree,92/94,Somewhat disagree,2,1708008468615,1708008470613,\Somewhat disagree\,\Somewhat disagree\,\2\,1708008470286,1708008470286,1671,1671,1998,buq,qns-item-noham,92,447098,0.0-1.0-0.91,65ce2242f956b6a7e2282b03,AWAITING REVIEW,2024-02-15T14:40:06.991000Z,2024-02-15T14:49:14.084000Z,,2024-02-15T14:49:14.655800Z,548.0,CVPIIDEI,164,29,Male,White,United States,United States,United States,English,No,DATA_EXPIRED,Not Applicable
5d7085f70a426200186bc676,<b>Specific policies are often very important to me.,Highly disagree,93/94,Somewhat agree,3,1708008470614,1708008472873,\Somewhat agree\,\Somewhat agree\,\3\,1708008472353,1708008472353,1739,1739,2259,buq,qns-item-noham,93,449358,0.0-1.0-0.92,65ce2242f956b6a7e2282b03,AWAITING REVIEW,2024-02-15T14:40:06.991000Z,2024-02-15T14:49:14.084000Z,,2024-02-15T14:49:14.655800Z,548.0,CVPIIDEI,164,29,Male,White,United States,United States,United States,English,No,DATA_EXPIRED,Not Applicable
5d7085f70a426200186bc676,<b>Most people are woefully under-informed.,Highly disagree,94/94,Somewhat agree,3,1708008472874,1708008476464,\Somewhat agree\,\Somewhat agree\,\3\,1708008475752,1708008475752,2878,2878,3590,buq,qns-item-noham,94,452949,0.0-1.0-0.93,65ce2242f956b6a7e2282b03,AWAITING REVIEW,2024-02-15T14:40:06.991000Z,2024-02-15T14:49:14.084000Z,,2024-02-15T14:49:14.655800Z,548.0,CVPIIDEI,164,29,Male,White,United States,United States,United States,English,No,DATA_EXPIRED,Not Applicable
5d7085f70a426200186bc676,,,,,,,,,,,,,,,,,,,,,65ce2242f956b6a7e2282b03,AWAITING REVIEW,2024-02-15T14:40:06.991000Z,2024-02-15T14:49:14.084000Z,,2024-02-15T14:49:14.655800Z,548.0,CVPIIDEI,164,29,Male,White,United States,United States,United States,English,No,DATA_EXPIRED,Not Applicable
