PROLIFIC_PID,Question,qns_options,quest_num,answer,answer_num,question_load_timestamp,next_btn_timestamp,text_selected,final_text_selected,option_num_selected,preview_timestamps,final_text_selected_time_stamp,rt_first_option_click,rt_final_option_click,rt_submit_click,questionnaire,trial_type,trial_index,time_elapsed,internal_node_id,Demographic_Submission id,Demographic_Status,Demographic_Started at,Demographic_Completed at,Demographic_Reviewed at,Demographic_Archived at,Demographic_Time taken,Demographic_Completion code,Demographic_Total approvals,Demographic_Age,Demographic_Sex,Demographic_Ethnicity simplified,Demographic_Country of birth,Demographic_Country of residence,Demographic_Nationality,Demographic_Language,Demographic_Student status,Demographic_Employment status,Demographic_Custom study tncs accepted at
5c36c5a851707e0001cd533d,<b>Knowing what?s true and knowing what to do about it are usually basically the same.,Highly disagree,1/94,Highly disagree,1,1708007867582,1708007876093,\Highly disagree\,\Highly disagree\,\1\,1708007874896,1708007874896,7314,7314,8511,buq,qns-item-noham,1,13627,0.0-1.0-0.0,65ce213ff2f16c6a9e8c662d,AWAITING REVIEW,2024-02-15T14:37:27.729000Z,2024-02-15T14:46:29.889000Z,,2024-02-15T14:46:30.430421Z,543.0,CVPIIDEI,4496,38,Male,White,United States,United States,United States,English,No,Full-Time,Not Applicable
5c36c5a851707e0001cd533d,<b>Most people just believe whatever is convenient for them.,Highly disagree,2/94,Highly agree,4,1708007876112,1708007879940,\Highly agree\,\Highly agree\,\4\,1708007878872,1708007878872,2760,2760,3828,buq,qns-item-noham,2,17474,0.0-1.0-0.1,65ce213ff2f16c6a9e8c662d,AWAITING REVIEW,2024-02-15T14:37:27.729000Z,2024-02-15T14:46:29.889000Z,,2024-02-15T14:46:30.430421Z,543.0,CVPIIDEI,4496,38,Male,White,United States,United States,United States,English,No,Full-Time,Not Applicable
5c36c5a851707e0001cd533d,<b>Having some big beliefs helps me sort out minor ones.,Highly disagree,3/94,Highly agree,4,1708007879944,1708007882695,\Highly agree\,\Highly agree\,\4\,1708007882030,1708007882030,2086,2086,2751,buq,qns-item-noham,3,20229,0.0-1.0-0.2,65ce213ff2f16c6a9e8c662d,AWAITING REVIEW,2024-02-15T14:37:27.729000Z,2024-02-15T14:46:29.889000Z,,2024-02-15T14:46:30.430421Z,543.0,CVPIIDEI,4496,38,Male,White,United States,United States,United States,English,No,Full-Time,Not Applicable
5c36c5a851707e0001cd533d,<b>Political questions are usually pretty complicated.,Highly disagree,4/94,Somewhat agree,3,1708007882698,1708007886118,\Somewhat agree\,\Somewhat agree\,\3\,1708007885303,1708007885303,2605,2605,3420,buq,qns-item-noham,4,23652,0.0-1.0-0.3,65ce213ff2f16c6a9e8c662d,AWAITING REVIEW,2024-02-15T14:37:27.729000Z,2024-02-15T14:46:29.889000Z,,2024-02-15T14:46:30.430421Z,543.0,CVPIIDEI,4496,38,Male,White,United States,United States,United States,English,No,Full-Time,Not Applicable
5c36c5a851707e0001cd533d,<b>Figuring out what?s important in life requires learning a lot of facts.,Highly disagree,5/94,Highly agree,4,1708007886120,1708007890040,\Highly agree\,\Highly agree\,\4\,1708007889367,1708007889367,3247,3247,3920,buq,qns-item-noham,5,27574,0.0-1.0-0.4,65ce213ff2f16c6a9e8c662d,AWAITING REVIEW,2024-02-15T14:37:27.729000Z,2024-02-15T14:46:29.889000Z,,2024-02-15T14:46:30.430421Z,543.0,CVPIIDEI,4496,38,Male,White,United States,United States,United States,English,No,Full-Time,Not Applicable
5c36c5a851707e0001cd533d,<b>It is difficult for me to remember the last time I was surprised by politics.,Highly disagree,6/94,Highly disagree,1,1708007890041,1708007896666,\Highly disagree\,\Highly disagree\,\1\,1708007895744,1708007895744,5703,5703,6625,buq,qns-item-noham,6,34200,0.0-1.0-0.5,65ce213ff2f16c6a9e8c662d,AWAITING REVIEW,2024-02-15T14:37:27.729000Z,2024-02-15T14:46:29.889000Z,,2024-02-15T14:46:30.430421Z,543.0,CVPIIDEI,4496,38,Male,White,United States,United States,United States,English,No,Full-Time,Not Applicable
5c36c5a851707e0001cd533d,<b>People?s false beliefs are understandable.,Highly disagree,7/94,Somewhat agree,3,1708007896669,1708007900924,\Somewhat agree\,\Somewhat agree\,\3\,1708007900113,1708007900113,3444,3444,4255,buq,qns-item-noham,7,38458,0.0-1.0-0.6,65ce213ff2f16c6a9e8c662d,AWAITING REVIEW,2024-02-15T14:37:27.729000Z,2024-02-15T14:46:29.889000Z,,2024-02-15T14:46:30.430421Z,543.0,CVPIIDEI,4496,38,Male,White,United States,United States,United States,English,No,Full-Time,Not Applicable
5c36c5a851707e0001cd533d,<b>I spend a lot of time trying to be informed about politics.,Highly disagree,8/94,Highly agree,4,1708007900926,1708007904193,\Highly agree\,\Highly agree\,\4\,1708007903182,1708007903182,2256,2256,3267,buq,qns-item-noham,8,41727,0.0-1.0-0.7,65ce213ff2f16c6a9e8c662d,AWAITING REVIEW,2024-02-15T14:37:27.729000Z,2024-02-15T14:46:29.889000Z,,2024-02-15T14:46:30.430421Z,543.0,CVPIIDEI,4496,38,Male,White,United States,United States,United States,English,No,Full-Time,Not Applicable
5c36c5a851707e0001cd533d,<b>I think a lot about whether my beliefs are right.,Highly disagree,9/94,Highly agree,4,1708007904196,1708007907751,\Highly agree\,\Highly agree\,\4\,1708007907018,1708007907018,2822,2822,3555,buq,qns-item-noham,9,45285,0.0-1.0-0.8,65ce213ff2f16c6a9e8c662d,AWAITING REVIEW,2024-02-15T14:37:27.729000Z,2024-02-15T14:46:29.889000Z,,2024-02-15T14:46:30.430421Z,543.0,CVPIIDEI,4496,38,Male,White,United States,United States,United States,English,No,Full-Time,Not Applicable
5c36c5a851707e0001cd533d,<b>Statistics can be pretty misleading sometimes.,Highly disagree,10/94,Highly agree,4,1708007907753,1708007914603,\Highly agree\,\Highly agree\,\4\,1708007913985,1708007913985,6232,6232,6850,buq,qns-item-noham,10,52137,0.0-1.0-0.9,65ce213ff2f16c6a9e8c662d,AWAITING REVIEW,2024-02-15T14:37:27.729000Z,2024-02-15T14:46:29.889000Z,,2024-02-15T14:46:30.430421Z,543.0,CVPIIDEI,4496,38,Male,White,United States,United States,United States,English,No,Full-Time,Not Applicable
5c36c5a851707e0001cd533d,<b>I have lots of beliefs that I?m only sort of sure about.,Highly disagree,11/94,Somewhat agree,3,1708007914606,1708007922021,\Highly agree\,\Somewhat agree\,\4\,1708007920123,1708007921299,5517,6693,7415,buq,qns-item-noham,11,59555,0.0-1.0-0.10,65ce213ff2f16c6a9e8c662d,AWAITING REVIEW,2024-02-15T14:37:27.729000Z,2024-02-15T14:46:29.889000Z,,2024-02-15T14:46:30.430421Z,543.0,CVPIIDEI,4496,38,Male,White,United States,United States,United States,English,No,Full-Time,Not Applicable
5c36c5a851707e0001cd533d,"<b>If I go to my favorite restaurant and the food is surprisingly bad, it reminds me there are many disappointments in life.",Highly disagree,12/94,Somewhat disagree,2,1708007922024,1708007927636,\Somewhat disagree\,\Somewhat disagree\,\2\,1708007926985,1708007926985,4961,4961,5612,buq,qns-item-noham,12,65170,0.0-1.0-0.11,65ce213ff2f16c6a9e8c662d,AWAITING REVIEW,2024-02-15T14:37:27.729000Z,2024-02-15T14:46:29.889000Z,,2024-02-15T14:46:30.430421Z,543.0,CVPIIDEI,4496,38,Male,White,United States,United States,United States,English,No,Full-Time,Not Applicable
5c36c5a851707e0001cd533d,"<b>If you are paying attention, please select ?Somewhat agree?",Highly disagree,13/94,Somewhat agree,3,1708007927642,1708007931748,\Somewhat agree\,\Somewhat agree\,\3\,1708007929887,1708007929887,2245,2245,4106,buq,qns-item-noham,13,69282,0.0-1.0-0.12,65ce213ff2f16c6a9e8c662d,AWAITING REVIEW,2024-02-15T14:37:27.729000Z,2024-02-15T14:46:29.889000Z,,2024-02-15T14:46:30.430421Z,543.0,CVPIIDEI,4496,38,Male,White,United States,United States,United States,English,No,Full-Time,Not Applicable
5c36c5a851707e0001cd533d,"<b>When I talk to others, I often worry I?ll convince them of something I didn?t mean to.",Highly disagree,14/94,Somewhat disagree,2,1708007931751,1708007936025,\Somewhat agree\,\Somewhat disagree\,\3\,1708007934797,1708007935366,3046,3615,4274,buq,qns-item-noham,14,73559,0.0-1.0-0.13,65ce213ff2f16c6a9e8c662d,AWAITING REVIEW,2024-02-15T14:37:27.729000Z,2024-02-15T14:46:29.889000Z,,2024-02-15T14:46:30.430421Z,543.0,CVPIIDEI,4496,38,Male,White,United States,United States,United States,English,No,Full-Time,Not Applicable
5c36c5a851707e0001cd533d,<b>I would need to learn something utterly shocking about my party in order to change my political views.,Highly disagree,15/94,Highly disagree,1,1708007936027,1708007939565,\Highly disagree\,\Highly disagree\,\1\,1708007938690,1708007938690,2663,2663,3538,buq,qns-item-noham,15,77099,0.0-1.0-0.14,65ce213ff2f16c6a9e8c662d,AWAITING REVIEW,2024-02-15T14:37:27.729000Z,2024-02-15T14:46:29.889000Z,,2024-02-15T14:46:30.430421Z,543.0,CVPIIDEI,4496,38,Male,White,United States,United States,United States,English,No,Full-Time,Not Applicable
5c36c5a851707e0001cd533d,"<b>When I have new experiences, I tend to think of them as unique.",Highly disagree,16/94,Somewhat agree,3,1708007939566,1708007943245,\Somewhat agree\,\Somewhat agree\,\3\,1708007942410,1708007942410,2844,2844,3679,buq,qns-item-noham,16,80779,0.0-1.0-0.15,65ce213ff2f16c6a9e8c662d,AWAITING REVIEW,2024-02-15T14:37:27.729000Z,2024-02-15T14:46:29.889000Z,,2024-02-15T14:46:30.430421Z,543.0,CVPIIDEI,4496,38,Male,White,United States,United States,United States,English,No,Full-Time,Not Applicable
5c36c5a851707e0001cd533d,<b>I change my mind about specific policies pretty frequently.,Highly disagree,17/94,Somewhat disagree,2,1708007943247,1708007953221,\Somewhat disagree\,\Somewhat disagree\,\2\,1708007952559,1708007952559,9312,9312,9974,buq,qns-item-noham,17,90755,0.0-1.0-0.16,65ce213ff2f16c6a9e8c662d,AWAITING REVIEW,2024-02-15T14:37:27.729000Z,2024-02-15T14:46:29.889000Z,,2024-02-15T14:46:30.430421Z,543.0,CVPIIDEI,4496,38,Male,White,United States,United States,United States,English,No,Full-Time,Not Applicable
5c36c5a851707e0001cd533d,"<b>If a politician in my political party supports something I disagree with, I give them the benefit of the doubt, as such issues often involve hidden complexities that aren?t obvious.   ",Highly disagree,18/94,Highly disagree,1,1708007953224,1708007957232,\Highly disagree\,\Highly disagree\,\1\,1708007956350,1708007956350,3126,3126,4008,buq,qns-item-noham,18,94766,0.0-1.0-0.17,65ce213ff2f16c6a9e8c662d,AWAITING REVIEW,2024-02-15T14:37:27.729000Z,2024-02-15T14:46:29.889000Z,,2024-02-15T14:46:30.430421Z,543.0,CVPIIDEI,4496,38,Male,White,United States,United States,United States,English,No,Full-Time,Not Applicable
5c36c5a851707e0001cd533d,<b>People?s bad politics are usually motivated by hatefulness.,Highly disagree,19/94,Highly agree,4,1708007957234,1708007960359,\Highly agree\,\Highly agree\,\4\,1708007959573,1708007959573,2339,2339,3125,buq,qns-item-noham,19,97893,0.0-1.0-0.18,65ce213ff2f16c6a9e8c662d,AWAITING REVIEW,2024-02-15T14:37:27.729000Z,2024-02-15T14:46:29.889000Z,,2024-02-15T14:46:30.430421Z,543.0,CVPIIDEI,4496,38,Male,White,United States,United States,United States,English,No,Full-Time,Not Applicable
5c36c5a851707e0001cd533d,<b>I think a lot about how to reconcile my beliefs with one another.,Highly disagree,20/94,Somewhat agree,3,1708007960361,1708007967850,\Somewhat agree\,\Somewhat agree\,\3\,1708007963317,1708007963317,2956,2956,7489,buq,qns-item-noham,20,105384,0.0-1.0-0.19,65ce213ff2f16c6a9e8c662d,AWAITING REVIEW,2024-02-15T14:37:27.729000Z,2024-02-15T14:46:29.889000Z,,2024-02-15T14:46:30.430421Z,543.0,CVPIIDEI,4496,38,Male,White,United States,United States,United States,English,No,Full-Time,Not Applicable
5c36c5a851707e0001cd533d,<b>I might have false beliefs about important topics.,Highly disagree,21/94,Somewhat agree,3,1708007967853,1708007970775,\Somewhat agree\,\Somewhat agree\,\3\,1708007970137,1708007970137,2284,2284,2922,buq,qns-item-noham,21,108309,0.0-1.0-0.20,65ce213ff2f16c6a9e8c662d,AWAITING REVIEW,2024-02-15T14:37:27.729000Z,2024-02-15T14:46:29.889000Z,,2024-02-15T14:46:30.430421Z,543.0,CVPIIDEI,4496,38,Male,White,United States,United States,United States,English,No,Full-Time,Not Applicable
5c36c5a851707e0001cd533d,"<b>If a good friend of mine does something unexpected that upsets me, I feel like I don?t know them anymore.",Highly disagree,22/94,Somewhat agree,3,1708007970777,1708007992610,\Somewhat agree\,\Somewhat agree\,\3\,1708007991908,1708007991908,21131,21131,21833,buq,qns-item-noham,22,130144,0.0-1.0-0.21,65ce213ff2f16c6a9e8c662d,AWAITING REVIEW,2024-02-15T14:37:27.729000Z,2024-02-15T14:46:29.889000Z,,2024-02-15T14:46:30.430421Z,543.0,CVPIIDEI,4496,38,Male,White,United States,United States,United States,English,No,Full-Time,Not Applicable
5c36c5a851707e0001cd533d,<b>Other people?s beliefs are often incoherent.,Highly disagree,23/94,Somewhat agree,3,1708007992612,1708007995127,\Somewhat agree\,\Somewhat agree\,\3\,1708007994360,1708007994360,1748,1748,2515,buq,qns-item-noham,23,132661,0.0-1.0-0.22,65ce213ff2f16c6a9e8c662d,AWAITING REVIEW,2024-02-15T14:37:27.729000Z,2024-02-15T14:46:29.889000Z,,2024-02-15T14:46:30.430421Z,543.0,CVPIIDEI,4496,38,Male,White,United States,United States,United States,English,No,Full-Time,Not Applicable
5c36c5a851707e0001cd533d,"<b>Every now and then, a new experience will unsettle beliefs I?ve had for a while.",Highly disagree,24/94,Highly agree,4,1708007995131,1708007997897,\Highly agree\,\Highly agree\,\4\,1708007997262,1708007997262,2131,2131,2766,buq,qns-item-noham,24,135431,0.0-1.0-0.23,65ce213ff2f16c6a9e8c662d,AWAITING REVIEW,2024-02-15T14:37:27.729000Z,2024-02-15T14:46:29.889000Z,,2024-02-15T14:46:30.430421Z,543.0,CVPIIDEI,4496,38,Male,White,United States,United States,United States,English,No,Full-Time,Not Applicable
5c36c5a851707e0001cd533d,<b>Some policies I agree with in principle are so bad I don?t support them. ,Highly disagree,25/94,Highly disagree,1,1708007997899,1708008010778,\Highly agree\,\Highly disagree\,\4\,1708008000263,1708008006554,2364,8655,12879,buq,qns-item-noham,25,148312,0.0-1.0-0.24,65ce213ff2f16c6a9e8c662d,AWAITING REVIEW,2024-02-15T14:37:27.729000Z,2024-02-15T14:46:29.889000Z,,2024-02-15T14:46:30.430421Z,543.0,CVPIIDEI,4496,38,Male,White,United States,United States,United States,English,No,Full-Time,Not Applicable
5c36c5a851707e0001cd533d,<b>I?m pretty sure I?ve accidentally spread false information.,Highly disagree,26/94,Highly agree,4,1708008010779,1708008016581,\Somewhat agree\,\Highly agree\,\3\,1708008014271,1708008015921,3492,5142,5802,buq,qns-item-noham,26,154116,0.0-1.0-0.25,65ce213ff2f16c6a9e8c662d,AWAITING REVIEW,2024-02-15T14:37:27.729000Z,2024-02-15T14:46:29.889000Z,,2024-02-15T14:46:30.430421Z,543.0,CVPIIDEI,4496,38,Male,White,United States,United States,United States,English,No,Full-Time,Not Applicable
5c36c5a851707e0001cd533d,"<b>If I go to my favorite restaurant and the food is unexpectedly bad, then they have changed owners.",Highly disagree,27/94,Somewhat disagree,2,1708008016603,1708008022427,\Highly disagree\,\Somewhat disagree\,\1\,1708008020642,1708008021809,4039,5206,5824,buq,qns-item-noham,27,159961,0.0-1.0-0.26,65ce213ff2f16c6a9e8c662d,AWAITING REVIEW,2024-02-15T14:37:27.729000Z,2024-02-15T14:46:29.889000Z,,2024-02-15T14:46:30.430421Z,543.0,CVPIIDEI,4496,38,Male,White,United States,United States,United States,English,No,Full-Time,Not Applicable
5c36c5a851707e0001cd533d,"<b>In politics, it?s important to trust your friends and family.",Highly disagree,28/94,Highly disagree,1,1708008022439,1708008025296,\Highly disagree\,\Highly disagree\,\1\,1708008024546,1708008024546,2107,2107,2857,buq,qns-item-noham,28,162830,0.0-1.0-0.27,65ce213ff2f16c6a9e8c662d,AWAITING REVIEW,2024-02-15T14:37:27.729000Z,2024-02-15T14:46:29.889000Z,,2024-02-15T14:46:30.430421Z,543.0,CVPIIDEI,4496,38,Male,White,United States,United States,United States,English,No,Full-Time,Not Applicable
5c36c5a851707e0001cd533d,<b>It?s OK to have some conflicting beliefs.,Highly disagree,29/94,Highly agree,4,1708008025298,1708008028435,\Highly agree\,\Highly agree\,\4\,1708008026990,1708008026990,1692,1692,3137,buq,qns-item-noham,29,165969,0.0-1.0-0.28,65ce213ff2f16c6a9e8c662d,AWAITING REVIEW,2024-02-15T14:37:27.729000Z,2024-02-15T14:46:29.889000Z,,2024-02-15T14:46:30.430421Z,543.0,CVPIIDEI,4496,38,Male,White,United States,United States,United States,English,No,Full-Time,Not Applicable
5c36c5a851707e0001cd533d,<b>Listening to people I disagree with makes my opinions better.,Highly disagree,30/94,Highly agree,4,1708008028438,1708008032315,\Highly agree\,\Highly agree\,\4\,1708008031489,1708008031489,3051,3051,3877,buq,qns-item-noham,30,169849,0.0-1.0-0.29,65ce213ff2f16c6a9e8c662d,AWAITING REVIEW,2024-02-15T14:37:27.729000Z,2024-02-15T14:46:29.889000Z,,2024-02-15T14:46:30.430421Z,543.0,CVPIIDEI,4496,38,Male,White,United States,United States,United States,English,No,Full-Time,Not Applicable
5c36c5a851707e0001cd533d,<b>My moral compass sometimes makes it harder to determine what?s true.,Highly disagree,31/94,Somewhat agree,3,1708008032317,1708008036446,\Somewhat agree\,\Somewhat agree\,\3\,1708008035803,1708008035803,3486,3486,4129,buq,qns-item-noham,31,173980,0.0-1.0-0.30,65ce213ff2f16c6a9e8c662d,AWAITING REVIEW,2024-02-15T14:37:27.729000Z,2024-02-15T14:46:29.889000Z,,2024-02-15T14:46:30.430421Z,543.0,CVPIIDEI,4496,38,Male,White,United States,United States,United States,English,No,Full-Time,Not Applicable
5c36c5a851707e0001cd533d,<b>Evidence pointing in the wrong direction isn?t really evidence at all.,Highly disagree,32/94,Highly disagree,1,1708008036457,1708008043715,\Highly disagree\,\Highly disagree\,\1\,1708008042944,1708008042944,6487,6487,7258,buq,qns-item-noham,32,181249,0.0-1.0-0.31,65ce213ff2f16c6a9e8c662d,AWAITING REVIEW,2024-02-15T14:37:27.729000Z,2024-02-15T14:46:29.889000Z,,2024-02-15T14:46:30.430421Z,543.0,CVPIIDEI,4496,38,Male,White,United States,United States,United States,English,No,Full-Time,Not Applicable
5c36c5a851707e0001cd533d,"<b>If the political party I support messes up, it makes me think politics is rotten.",Highly disagree,33/94,Highly agree,4,1708008043717,1708008047244,\Highly agree\,\Highly agree\,\4\,1708008046600,1708008046600,2883,2883,3527,buq,qns-item-noham,33,184778,0.0-1.0-0.32,65ce213ff2f16c6a9e8c662d,AWAITING REVIEW,2024-02-15T14:37:27.729000Z,2024-02-15T14:46:29.889000Z,,2024-02-15T14:46:30.430421Z,543.0,CVPIIDEI,4496,38,Male,White,United States,United States,United States,English,No,Full-Time,Not Applicable
5c36c5a851707e0001cd533d,<b>Lots of important topics can only really be understood by some groups of people.,Highly disagree,34/94,Highly disagree,1,1708008047246,1708008111705,\Highly disagree\,\Highly disagree\,\1\,1708008110868,1708008110868,63622,63622,64459,buq,qns-item-noham,34,249239,0.0-1.0-0.33,65ce213ff2f16c6a9e8c662d,AWAITING REVIEW,2024-02-15T14:37:27.729000Z,2024-02-15T14:46:29.889000Z,,2024-02-15T14:46:30.430421Z,543.0,CVPIIDEI,4496,38,Male,White,United States,United States,United States,English,No,Full-Time,Not Applicable
5c36c5a851707e0001cd533d,<b>Having conflicting beliefs means you haven?t thought about them enough.,Highly disagree,35/94,Somewhat disagree,2,1708008111707,1708008114387,\Somewhat disagree\,\Somewhat disagree\,\2\,1708008113741,1708008113741,2034,2034,2680,buq,qns-item-noham,35,251921,0.0-1.0-0.34,65ce213ff2f16c6a9e8c662d,AWAITING REVIEW,2024-02-15T14:37:27.729000Z,2024-02-15T14:46:29.889000Z,,2024-02-15T14:46:30.430421Z,543.0,CVPIIDEI,4496,38,Male,White,United States,United States,United States,English,No,Full-Time,Not Applicable
5c36c5a851707e0001cd533d,<b>I do not often change my political opinions.,Highly disagree,36/94,Highly agree,4,1708008114389,1708008117132,\Highly agree\,\Highly agree\,\4\,1708008116498,1708008116498,2109,2109,2743,buq,qns-item-noham,36,254666,0.0-1.0-0.35,65ce213ff2f16c6a9e8c662d,AWAITING REVIEW,2024-02-15T14:37:27.729000Z,2024-02-15T14:46:29.889000Z,,2024-02-15T14:46:30.430421Z,543.0,CVPIIDEI,4496,38,Male,White,United States,United States,United States,English,No,Full-Time,Not Applicable
5c36c5a851707e0001cd533d,<b>It?s difficult to not have at least some conflicting beliefs.,Highly disagree,37/94,Highly agree,4,1708008117134,1708008119592,\Highly agree\,\Highly agree\,\4\,1708008118987,1708008118987,1853,1853,2458,buq,qns-item-noham,37,257126,0.0-1.0-0.36,65ce213ff2f16c6a9e8c662d,AWAITING REVIEW,2024-02-15T14:37:27.729000Z,2024-02-15T14:46:29.889000Z,,2024-02-15T14:46:30.430421Z,543.0,CVPIIDEI,4496,38,Male,White,United States,United States,United States,English,No,Full-Time,Not Applicable
5c36c5a851707e0001cd533d,<b>Wishful thinking causes a lot of problems.,Highly disagree,38/94,Somewhat agree,3,1708008119594,1708008122812,\Somewhat agree\,\Somewhat agree\,\3\,1708008121712,1708008121712,2118,2118,3218,buq,qns-item-noham,38,260346,0.0-1.0-0.37,65ce213ff2f16c6a9e8c662d,AWAITING REVIEW,2024-02-15T14:37:27.729000Z,2024-02-15T14:46:29.889000Z,,2024-02-15T14:46:30.430421Z,543.0,CVPIIDEI,4496,38,Male,White,United States,United States,United States,English,No,Full-Time,Not Applicable
5c36c5a851707e0001cd533d,<b>I judge a food item only once I try it many times.,Highly disagree,39/94,Highly agree,4,1708008122814,1708008126299,\Highly agree\,\Highly agree\,\4\,1708008125641,1708008125641,2827,2827,3485,buq,qns-item-noham,39,263833,0.0-1.0-0.38,65ce213ff2f16c6a9e8c662d,AWAITING REVIEW,2024-02-15T14:37:27.729000Z,2024-02-15T14:46:29.889000Z,,2024-02-15T14:46:30.430421Z,543.0,CVPIIDEI,4496,38,Male,White,United States,United States,United States,English,No,Full-Time,Not Applicable
5c36c5a851707e0001cd533d,"<b>When a person holds conflicting beliefs, they should really try to figure out what?s wrong.",Highly disagree,40/94,Highly agree,4,1708008126302,1708008130508,\Highly agree\,\Highly agree\,\4\,1708008129802,1708008129802,3500,3500,4206,buq,qns-item-noham,40,268042,0.0-1.0-0.39,65ce213ff2f16c6a9e8c662d,AWAITING REVIEW,2024-02-15T14:37:27.729000Z,2024-02-15T14:46:29.889000Z,,2024-02-15T14:46:30.430421Z,543.0,CVPIIDEI,4496,38,Male,White,United States,United States,United States,English,No,Full-Time,Not Applicable
5c36c5a851707e0001cd533d,<b>Knowing what?s important in life is easy.,Highly disagree,41/94,Highly disagree,1,1708008130509,1708008134044,\Highly agree\,\Highly disagree\,\4\,1708008131799,1708008133466,1290,2957,3535,buq,qns-item-noham,41,271578,0.0-1.0-0.40,65ce213ff2f16c6a9e8c662d,AWAITING REVIEW,2024-02-15T14:37:27.729000Z,2024-02-15T14:46:29.889000Z,,2024-02-15T14:46:30.430421Z,543.0,CVPIIDEI,4496,38,Male,White,United States,United States,United States,English,No,Full-Time,Not Applicable
5c36c5a851707e0001cd533d,<b>I swim across the Atlantic Ocean to get to work every day.,Highly disagree,42/94,Highly disagree,1,1708008134046,1708008135889,\Highly disagree\,\Highly disagree\,\1\,1708008135328,1708008135328,1282,1282,1843,buq,qns-item-noham,42,273423,0.0-1.0-0.41,65ce213ff2f16c6a9e8c662d,AWAITING REVIEW,2024-02-15T14:37:27.729000Z,2024-02-15T14:46:29.889000Z,,2024-02-15T14:46:30.430421Z,543.0,CVPIIDEI,4496,38,Male,White,United States,United States,United States,English,No,Full-Time,Not Applicable
5c36c5a851707e0001cd533d,"<b>Sometimes, you just have to ignore evidence that you know is wrong.",Highly disagree,43/94,Highly disagree,1,1708008135891,1708008138723,\Highly disagree\,\Highly disagree\,\1\,1708008138238,1708008138238,2347,2347,2832,buq,qns-item-noham,43,276257,0.0-1.0-0.42,65ce213ff2f16c6a9e8c662d,AWAITING REVIEW,2024-02-15T14:37:27.729000Z,2024-02-15T14:46:29.889000Z,,2024-02-15T14:46:30.430421Z,543.0,CVPIIDEI,4496,38,Male,White,United States,United States,United States,English,No,Full-Time,Not Applicable
5c36c5a851707e0001cd533d,<b>I have had some false beliefs.,Highly disagree,44/94,Highly agree,4,1708008138725,1708008140777,\Highly agree\,\Highly agree\,\4\,1708008140140,1708008140140,1415,1415,2052,buq,qns-item-noham,44,278311,0.0-1.0-0.43,65ce213ff2f16c6a9e8c662d,AWAITING REVIEW,2024-02-15T14:37:27.729000Z,2024-02-15T14:46:29.889000Z,,2024-02-15T14:46:30.430421Z,543.0,CVPIIDEI,4496,38,Male,White,United States,United States,United States,English,No,Full-Time,Not Applicable
5c36c5a851707e0001cd533d,"<b>If one friend does something that upsets me, I sometimes start to distrust people in general.",Highly disagree,45/94,Highly agree,4,1708008140779,1708008143265,\Highly agree\,\Highly agree\,\4\,1708008142487,1708008142487,1708,1708,2486,buq,qns-item-noham,45,280799,0.0-1.0-0.44,65ce213ff2f16c6a9e8c662d,AWAITING REVIEW,2024-02-15T14:37:27.729000Z,2024-02-15T14:46:29.889000Z,,2024-02-15T14:46:30.430421Z,543.0,CVPIIDEI,4496,38,Male,White,United States,United States,United States,English,No,Full-Time,Not Applicable
5c36c5a851707e0001cd533d,<b>The facts about most important matters are easy to find.,Highly disagree,46/94,Highly disagree,1,1708008143266,1708008147220,\Highly disagree\,\Highly disagree\,\1\,1708008146569,1708008146569,3303,3303,3954,buq,qns-item-noham,46,284754,0.0-1.0-0.45,65ce213ff2f16c6a9e8c662d,AWAITING REVIEW,2024-02-15T14:37:27.729000Z,2024-02-15T14:46:29.889000Z,,2024-02-15T14:46:30.430421Z,543.0,CVPIIDEI,4496,38,Male,White,United States,United States,United States,English,No,Full-Time,Not Applicable
5c36c5a851707e0001cd533d,<b>It?s better to know what?s true than to know what?s moral.,Highly disagree,47/94,Highly agree,4,1708008147223,1708008150939,\Highly agree\,\Highly agree\,\4\,1708008149189,1708008149189,1966,1966,3716,buq,qns-item-noham,47,288473,0.0-1.0-0.46,65ce213ff2f16c6a9e8c662d,AWAITING REVIEW,2024-02-15T14:37:27.729000Z,2024-02-15T14:46:29.889000Z,,2024-02-15T14:46:30.430421Z,543.0,CVPIIDEI,4496,38,Male,White,United States,United States,United States,English,No,Full-Time,Not Applicable
5c36c5a851707e0001cd533d,<b>I used to think the world was less complicated than I do now.,Highly disagree,48/94,Highly agree,4,1708008150942,1708008154158,\Highly agree\,\Highly agree\,\4\,1708008153183,1708008153183,2241,2241,3216,buq,qns-item-noham,48,291692,0.0-1.0-0.47,65ce213ff2f16c6a9e8c662d,AWAITING REVIEW,2024-02-15T14:37:27.729000Z,2024-02-15T14:46:29.889000Z,,2024-02-15T14:46:30.430421Z,543.0,CVPIIDEI,4496,38,Male,White,United States,United States,United States,English,No,Full-Time,Not Applicable
5c36c5a851707e0001cd533d,<b>People are usually completely right or completely wrong.,Highly disagree,49/94,Highly disagree,1,1708008154161,1708008156951,\Highly disagree\,\Highly disagree\,\1\,1708008156361,1708008156361,2200,2200,2790,buq,qns-item-noham,49,294485,0.0-1.0-0.48,65ce213ff2f16c6a9e8c662d,AWAITING REVIEW,2024-02-15T14:37:27.729000Z,2024-02-15T14:46:29.889000Z,,2024-02-15T14:46:30.430421Z,543.0,CVPIIDEI,4496,38,Male,White,United States,United States,United States,English,No,Full-Time,Not Applicable
5c36c5a851707e0001cd533d,<b>I spend a lot of time considering alternatives to my beliefs.,Highly disagree,50/94,Somewhat disagree,2,1708008156953,1708008160000,\Somewhat disagree\,\Somewhat disagree\,\2\,1708008159391,1708008159391,2438,2438,3047,buq,qns-item-noham,50,297534,0.0-1.0-0.49,65ce213ff2f16c6a9e8c662d,AWAITING REVIEW,2024-02-15T14:37:27.729000Z,2024-02-15T14:46:29.889000Z,,2024-02-15T14:46:30.430421Z,543.0,CVPIIDEI,4496,38,Male,White,United States,United States,United States,English,No,Full-Time,Not Applicable
5c36c5a851707e0001cd533d,"<b>Political enemies need to be defeated, not convinced.",Highly disagree,51/94,Highly agree,4,1708008160002,1708008162460,\Highly agree\,\Highly agree\,\4\,1708008161682,1708008161682,1680,1680,2458,buq,qns-item-noham,51,299994,0.0-1.0-0.50,65ce213ff2f16c6a9e8c662d,AWAITING REVIEW,2024-02-15T14:37:27.729000Z,2024-02-15T14:46:29.889000Z,,2024-02-15T14:46:30.430421Z,543.0,CVPIIDEI,4496,38,Male,White,United States,United States,United States,English,No,Full-Time,Not Applicable
5c36c5a851707e0001cd533d,<b>I form my political views only after meticulously gathering historical and present information about their policies.,Highly disagree,52/94,Highly agree,4,1708008162462,1708008165709,\Highly agree\,\Highly agree\,\4\,1708008165058,1708008165058,2596,2596,3247,buq,qns-item-noham,52,303243,0.0-1.0-0.51,65ce213ff2f16c6a9e8c662d,AWAITING REVIEW,2024-02-15T14:37:27.729000Z,2024-02-15T14:46:29.889000Z,,2024-02-15T14:46:30.430421Z,543.0,CVPIIDEI,4496,38,Male,White,United States,United States,United States,English,No,Full-Time,Not Applicable
5c36c5a851707e0001cd533d,<b>It is difficult for me to remember the last time I was surprised by politics.,Highly disagree,53/94,Highly disagree,1,1708008165711,1708008168863,\Highly disagree\,\Highly disagree\,\1\,1708008168301,1708008168301,2590,2590,3152,buq,qns-item-noham,53,306397,0.0-1.0-0.52,65ce213ff2f16c6a9e8c662d,AWAITING REVIEW,2024-02-15T14:37:27.729000Z,2024-02-15T14:46:29.889000Z,,2024-02-15T14:46:30.430421Z,543.0,CVPIIDEI,4496,38,Male,White,United States,United States,United States,English,No,Full-Time,Not Applicable
5c36c5a851707e0001cd533d,"<b>When I find out I?m wrong, I think a lot about my related beliefs.",Highly disagree,54/94,Highly agree,4,1708008168864,1708008171638,\Highly agree\,\Highly agree\,\4\,1708008171115,1708008171115,2251,2251,2774,buq,qns-item-noham,54,309172,0.0-1.0-0.53,65ce213ff2f16c6a9e8c662d,AWAITING REVIEW,2024-02-15T14:37:27.729000Z,2024-02-15T14:46:29.889000Z,,2024-02-15T14:46:30.430421Z,543.0,CVPIIDEI,4496,38,Male,White,United States,United States,United States,English,No,Full-Time,Not Applicable
5c36c5a851707e0001cd533d,"<b>If the political party I support messes up, it makes me think you can?t trust anyone these days",Highly disagree,55/94,Somewhat disagree,2,1708008171641,1708008175125,\Somewhat disagree\,\Somewhat disagree\,\2\,1708008174498,1708008174498,2857,2857,3484,buq,qns-item-noham,55,312659,0.0-1.0-0.54,65ce213ff2f16c6a9e8c662d,AWAITING REVIEW,2024-02-15T14:37:27.729000Z,2024-02-15T14:46:29.889000Z,,2024-02-15T14:46:30.430421Z,543.0,CVPIIDEI,4496,38,Male,White,United States,United States,United States,English,No,Full-Time,Not Applicable
5c36c5a851707e0001cd533d,<b>People?s brains turn off when they talk about politics.,Highly disagree,56/94,Highly agree,4,1708008175127,1708008177460,\Highly agree\,\Highly agree\,\4\,1708008176737,1708008176737,1610,1610,2333,buq,qns-item-noham,56,314994,0.0-1.0-0.55,65ce213ff2f16c6a9e8c662d,AWAITING REVIEW,2024-02-15T14:37:27.729000Z,2024-02-15T14:46:29.889000Z,,2024-02-15T14:46:30.430421Z,543.0,CVPIIDEI,4496,38,Male,White,United States,United States,United States,English,No,Full-Time,Not Applicable
5c36c5a851707e0001cd533d,<b>People who are wrong are usually just ignoring the obvious.,Highly disagree,57/94,Highly agree,4,1708008177462,1708008179551,\Highly agree\,\Highly agree\,\4\,1708008178884,1708008178884,1422,1422,2089,buq,qns-item-noham,57,317085,0.0-1.0-0.56,65ce213ff2f16c6a9e8c662d,AWAITING REVIEW,2024-02-15T14:37:27.729000Z,2024-02-15T14:46:29.889000Z,,2024-02-15T14:46:30.430421Z,543.0,CVPIIDEI,4496,38,Male,White,United States,United States,United States,English,No,Full-Time,Not Applicable
5c36c5a851707e0001cd533d,"<b>When forming my views on people, I rely more on what they are like now rather than rely on my past experience with them.",Highly disagree,58/94,Highly agree,4,1708008179552,1708008185877,\Highly agree\,\Highly agree\,\4\,1708008183813,1708008183813,4261,4261,6325,buq,qns-item-noham,58,323411,0.0-1.0-0.57,65ce213ff2f16c6a9e8c662d,AWAITING REVIEW,2024-02-15T14:37:27.729000Z,2024-02-15T14:46:29.889000Z,,2024-02-15T14:46:30.430421Z,543.0,CVPIIDEI,4496,38,Male,White,United States,United States,United States,English,No,Full-Time,Not Applicable
5c36c5a851707e0001cd533d,"<b>When people contradict my beliefs, I usually know about their evidence already.",Highly disagree,59/94,Somewhat disagree,2,1708008185880,1708008189192,\Somewhat disagree\,\Somewhat disagree\,\2\,1708008188561,1708008188561,2681,2681,3312,buq,qns-item-noham,59,326726,0.0-1.0-0.58,65ce213ff2f16c6a9e8c662d,AWAITING REVIEW,2024-02-15T14:37:27.729000Z,2024-02-15T14:46:29.889000Z,,2024-02-15T14:46:30.430421Z,543.0,CVPIIDEI,4496,38,Male,White,United States,United States,United States,English,No,Full-Time,Not Applicable
5c36c5a851707e0001cd533d,<b>Figuring out what?s true and what?s false mainly requires a strong moral compass.,Highly disagree,60/94,Somewhat disagree,2,1708008189195,1708008192775,\Somewhat disagree\,\Somewhat disagree\,\2\,1708008192073,1708008192073,2878,2878,3580,buq,qns-item-noham,60,330309,0.0-1.0-0.59,65ce213ff2f16c6a9e8c662d,AWAITING REVIEW,2024-02-15T14:37:27.729000Z,2024-02-15T14:46:29.889000Z,,2024-02-15T14:46:30.430421Z,543.0,CVPIIDEI,4496,38,Male,White,United States,United States,United States,English,No,Full-Time,Not Applicable
5c36c5a851707e0001cd533d,"<b>Usually I?m wrong about simple things, not complicated ones.",Highly disagree,61/94,Somewhat agree,3,1708008192776,1708008196219,\Somewhat agree\,\Somewhat agree\,\3\,1708008195497,1708008195497,2721,2721,3443,buq,qns-item-noham,61,333753,0.0-1.0-0.60,65ce213ff2f16c6a9e8c662d,AWAITING REVIEW,2024-02-15T14:37:27.729000Z,2024-02-15T14:46:29.889000Z,,2024-02-15T14:46:30.430421Z,543.0,CVPIIDEI,4496,38,Male,White,United States,United States,United States,English,No,Full-Time,Not Applicable
5c36c5a851707e0001cd533d,<b>Getting all the information I want about important things is hard.,Highly disagree,62/94,Highly agree,4,1708008196220,1708008198863,\Highly agree\,\Highly agree\,\4\,1708008198250,1708008198250,2030,2030,2643,buq,qns-item-noham,62,336397,0.0-1.0-0.61,65ce213ff2f16c6a9e8c662d,AWAITING REVIEW,2024-02-15T14:37:27.729000Z,2024-02-15T14:46:29.889000Z,,2024-02-15T14:46:30.430421Z,543.0,CVPIIDEI,4496,38,Male,White,United States,United States,United States,English,No,Full-Time,Not Applicable
5c36c5a851707e0001cd533d,<b>Most false beliefs spread because people try to deceive one another.,Highly disagree,63/94,Somewhat disagree,2,1708008198864,1708008204029,\Highly agree\,\Somewhat disagree\,\4\,1708008201039,1708008203523,2175,4659,5165,buq,qns-item-noham,63,341563,0.0-1.0-0.62,65ce213ff2f16c6a9e8c662d,AWAITING REVIEW,2024-02-15T14:37:27.729000Z,2024-02-15T14:46:29.889000Z,,2024-02-15T14:46:30.430421Z,543.0,CVPIIDEI,4496,38,Male,White,United States,United States,United States,English,No,Full-Time,Not Applicable
5c36c5a851707e0001cd533d,<b>I can usually find something to agree with in most people?s beliefs.,Highly disagree,64/94,Highly disagree,1,1708008204031,1708008208204,\Highly disagree\,\Highly disagree\,\1\,1708008207486,1708008207486,3455,3455,4173,buq,qns-item-noham,64,345738,0.0-1.0-0.63,65ce213ff2f16c6a9e8c662d,AWAITING REVIEW,2024-02-15T14:37:27.729000Z,2024-02-15T14:46:29.889000Z,,2024-02-15T14:46:30.430421Z,543.0,CVPIIDEI,4496,38,Male,White,United States,United States,United States,English,No,Full-Time,Not Applicable
5c36c5a851707e0001cd533d,<b>I only form my views of people once I get to know them very well.,Highly disagree,65/94,Highly agree,4,1708008208206,1708008211053,\Highly agree\,\Highly agree\,\4\,1708008210388,1708008210388,2182,2182,2847,buq,qns-item-noham,65,348587,0.0-1.0-0.64,65ce213ff2f16c6a9e8c662d,AWAITING REVIEW,2024-02-15T14:37:27.729000Z,2024-02-15T14:46:29.889000Z,,2024-02-15T14:46:30.430421Z,543.0,CVPIIDEI,4496,38,Male,White,United States,United States,United States,English,No,Full-Time,Not Applicable
5c36c5a851707e0001cd533d,"<b>When people tell me important things about the world, I usually believe them.",Highly disagree,66/94,Somewhat disagree,2,1708008211056,1708008220181,\Somewhat disagree\,\Somewhat disagree\,\2\,1708008219585,1708008219585,8529,8529,9125,buq,qns-item-noham,66,357715,0.0-1.0-0.65,65ce213ff2f16c6a9e8c662d,AWAITING REVIEW,2024-02-15T14:37:27.729000Z,2024-02-15T14:46:29.889000Z,,2024-02-15T14:46:30.430421Z,543.0,CVPIIDEI,4496,38,Male,White,United States,United States,United States,English,No,Full-Time,Not Applicable
5c36c5a851707e0001cd533d,"<b>If a friend does something that upsets me, it reminds me what an unpredictable place the world is.",Highly disagree,67/94,Highly agree,4,1708008220183,1708008227118,\Highly agree\,\Highly agree\,\4\,1708008224548,1708008224548,4365,4365,6935,buq,qns-item-noham,67,364652,0.0-1.0-0.66,65ce213ff2f16c6a9e8c662d,AWAITING REVIEW,2024-02-15T14:37:27.729000Z,2024-02-15T14:46:29.889000Z,,2024-02-15T14:46:30.430421Z,543.0,CVPIIDEI,4496,38,Male,White,United States,United States,United States,English,No,Full-Time,Not Applicable
5c36c5a851707e0001cd533d,<b>People tend to believe whatever is good for their friends.,Highly disagree,68/94,Highly agree,4,1708008227120,1708008229662,\Highly agree\,\Highly agree\,\4\,1708008229152,1708008229152,2032,2032,2542,buq,qns-item-noham,68,367196,0.0-1.0-0.67,65ce213ff2f16c6a9e8c662d,AWAITING REVIEW,2024-02-15T14:37:27.729000Z,2024-02-15T14:46:29.889000Z,,2024-02-15T14:46:30.430421Z,543.0,CVPIIDEI,4496,38,Male,White,United States,United States,United States,English,No,Full-Time,Not Applicable
5c36c5a851707e0001cd533d,<b>I used to be more certain my beliefs were true.,Highly disagree,69/94,Somewhat disagree,2,1708008229665,1708008233362,\Somewhat disagree\,\Somewhat disagree\,\2\,1708008232928,1708008232928,3263,3263,3697,buq,qns-item-noham,69,370896,0.0-1.0-0.68,65ce213ff2f16c6a9e8c662d,AWAITING REVIEW,2024-02-15T14:37:27.729000Z,2024-02-15T14:46:29.889000Z,,2024-02-15T14:46:30.430421Z,543.0,CVPIIDEI,4496,38,Male,White,United States,United States,United States,English,No,Full-Time,Not Applicable
5c36c5a851707e0001cd533d,<b>It?s often pretty easy to figure out whether something is true based on who said it.,Highly disagree,70/94,Highly disagree,1,1708008233364,1708008237345,\Highly disagree\,\Highly disagree\,\1\,1708008236709,1708008236709,3345,3345,3981,buq,qns-item-noham,70,374879,0.0-1.0-0.69,65ce213ff2f16c6a9e8c662d,AWAITING REVIEW,2024-02-15T14:37:27.729000Z,2024-02-15T14:46:29.889000Z,,2024-02-15T14:46:30.430421Z,543.0,CVPIIDEI,4496,38,Male,White,United States,United States,United States,English,No,Full-Time,Not Applicable
5c36c5a851707e0001cd533d,<b>I transform into a hummingbird every day.,Highly disagree,71/94,Highly disagree,1,1708008237347,1708008239540,\Highly disagree\,\Highly disagree\,\1\,1708008239033,1708008239033,1686,1686,2193,buq,qns-item-noham,71,377074,0.0-1.0-0.70,65ce213ff2f16c6a9e8c662d,AWAITING REVIEW,2024-02-15T14:37:27.729000Z,2024-02-15T14:46:29.889000Z,,2024-02-15T14:46:30.430421Z,543.0,CVPIIDEI,4496,38,Male,White,United States,United States,United States,English,No,Full-Time,Not Applicable
5c36c5a851707e0001cd533d,<b>I think a lot about arguments against my views.,Highly disagree,72/94,Somewhat agree,3,1708008239542,1708008241802,\Somewhat agree\,\Somewhat agree\,\3\,1708008241160,1708008241160,1618,1618,2260,buq,qns-item-noham,72,379336,0.0-1.0-0.71,65ce213ff2f16c6a9e8c662d,AWAITING REVIEW,2024-02-15T14:37:27.729000Z,2024-02-15T14:46:29.889000Z,,2024-02-15T14:46:30.430421Z,543.0,CVPIIDEI,4496,38,Male,White,United States,United States,United States,English,No,Full-Time,Not Applicable
5c36c5a851707e0001cd533d,<b>Personal experience is usually more important than facts and figures.,Highly disagree,73/94,Somewhat disagree,2,1708008241803,1708008245050,\Somewhat disagree\,\Somewhat disagree\,\2\,1708008244408,1708008244408,2605,2605,3247,buq,qns-item-noham,73,382584,0.0-1.0-0.72,65ce213ff2f16c6a9e8c662d,AWAITING REVIEW,2024-02-15T14:37:27.729000Z,2024-02-15T14:46:29.889000Z,,2024-02-15T14:46:30.430421Z,543.0,CVPIIDEI,4496,38,Male,White,United States,United States,United States,English,No,Full-Time,Not Applicable
5c36c5a851707e0001cd533d,<b>I?ve been tricked before about important matters.,Highly disagree,74/94,Highly agree,4,1708008245051,1708008248155,\Highly agree\,\Highly agree\,\4\,1708008247464,1708008247464,2413,2413,3104,buq,qns-item-noham,74,385689,0.0-1.0-0.73,65ce213ff2f16c6a9e8c662d,AWAITING REVIEW,2024-02-15T14:37:27.729000Z,2024-02-15T14:46:29.889000Z,,2024-02-15T14:46:30.430421Z,543.0,CVPIIDEI,4496,38,Male,White,United States,United States,United States,English,No,Full-Time,Not Applicable
5c36c5a851707e0001cd533d,<b>I would need to be totally wowed if I were to change my opinion of a restaurant I don?t like.,Highly disagree,75/94,Highly disagree,1,1708008248157,1708008251295,\Highly disagree\,\Highly disagree\,\1\,1708008250685,1708008250685,2528,2528,3138,buq,qns-item-noham,75,388829,0.0-1.0-0.74,65ce213ff2f16c6a9e8c662d,AWAITING REVIEW,2024-02-15T14:37:27.729000Z,2024-02-15T14:46:29.889000Z,,2024-02-15T14:46:30.430421Z,543.0,CVPIIDEI,4496,38,Male,White,United States,United States,United States,English,No,Full-Time,Not Applicable
5c36c5a851707e0001cd533d,<b>I care a lot about politics.,Highly disagree,76/94,Highly agree,4,1708008251296,1708008253029,\Highly agree\,\Highly agree\,\4\,1708008252512,1708008252512,1216,1216,1733,buq,qns-item-noham,76,390563,0.0-1.0-0.75,65ce213ff2f16c6a9e8c662d,AWAITING REVIEW,2024-02-15T14:37:27.729000Z,2024-02-15T14:46:29.889000Z,,2024-02-15T14:46:30.430421Z,543.0,CVPIIDEI,4496,38,Male,White,United States,United States,United States,English,No,Full-Time,Not Applicable
5c36c5a851707e0001cd533d,<b>There are some topics I?ve been really wrong about.,Highly disagree,77/94,Highly agree,4,1708008253031,1708008255562,\Highly agree\,\Highly agree\,\4\,1708008255022,1708008255022,1991,1991,2531,buq,qns-item-noham,77,393096,0.0-1.0-0.76,65ce213ff2f16c6a9e8c662d,AWAITING REVIEW,2024-02-15T14:37:27.729000Z,2024-02-15T14:46:29.889000Z,,2024-02-15T14:46:30.430421Z,543.0,CVPIIDEI,4496,38,Male,White,United States,United States,United States,English,No,Full-Time,Not Applicable
5c36c5a851707e0001cd533d,<b>Most beliefs can be supported with at least some evidence.,Highly disagree,78/94,Somewhat disagree,2,1708008255563,1708008259145,\Somewhat disagree\,\Somewhat disagree\,\2\,1708008258281,1708008258281,2718,2718,3582,buq,qns-item-noham,78,396679,0.0-1.0-0.77,65ce213ff2f16c6a9e8c662d,AWAITING REVIEW,2024-02-15T14:37:27.729000Z,2024-02-15T14:46:29.889000Z,,2024-02-15T14:46:30.430421Z,543.0,CVPIIDEI,4496,38,Male,White,United States,United States,United States,English,No,Full-Time,Not Applicable
5c36c5a851707e0001cd533d,<b>Other people make life out to be more complicated than it really is.,Highly disagree,79/94,Highly disagree,1,1708008259148,1708008261746,\Highly disagree\,\Highly disagree\,\1\,1708008261031,1708008261031,1883,1883,2598,buq,qns-item-noham,79,399280,0.0-1.0-0.78,65ce213ff2f16c6a9e8c662d,AWAITING REVIEW,2024-02-15T14:37:27.729000Z,2024-02-15T14:46:29.889000Z,,2024-02-15T14:46:30.430421Z,543.0,CVPIIDEI,4496,38,Male,White,United States,United States,United States,English,No,Full-Time,Not Applicable
5c36c5a851707e0001cd533d,"<b>Policy details don?t matter much, just the big picture.",Highly disagree,80/94,Highly disagree,1,1708008261747,1708008265188,\Highly disagree\,\Highly disagree\,\1\,1708008263654,1708008263654,1907,1907,3441,buq,qns-item-noham,80,402722,0.0-1.0-0.79,65ce213ff2f16c6a9e8c662d,AWAITING REVIEW,2024-02-15T14:37:27.729000Z,2024-02-15T14:46:29.889000Z,,2024-02-15T14:46:30.430421Z,543.0,CVPIIDEI,4496,38,Male,White,United States,United States,United States,English,No,Full-Time,Not Applicable
5c36c5a851707e0001cd533d,<b>I know my friends so well they can hardly ever surprise me.,Highly disagree,81/94,Highly disagree,1,1708008265190,1708008268093,\Highly disagree\,\Highly disagree\,\1\,1708008267633,1708008267633,2443,2443,2903,buq,qns-item-noham,81,405628,0.0-1.0-0.80,65ce213ff2f16c6a9e8c662d,AWAITING REVIEW,2024-02-15T14:37:27.729000Z,2024-02-15T14:46:29.889000Z,,2024-02-15T14:46:30.430421Z,543.0,CVPIIDEI,4496,38,Male,White,United States,United States,United States,English,No,Full-Time,Not Applicable
5c36c5a851707e0001cd533d,<b>I do not often change my views on people.,Highly disagree,82/94,Somewhat disagree,2,1708008268095,1708008271195,\Somewhat disagree\,\Somewhat disagree\,\2\,1708008270745,1708008270745,2650,2650,3100,buq,qns-item-noham,82,408729,0.0-1.0-0.81,65ce213ff2f16c6a9e8c662d,AWAITING REVIEW,2024-02-15T14:37:27.729000Z,2024-02-15T14:46:29.889000Z,,2024-02-15T14:46:30.430421Z,543.0,CVPIIDEI,4496,38,Male,White,United States,United States,United States,English,No,Full-Time,Not Applicable
5c36c5a851707e0001cd533d,<b>I?m more certain about my beliefs than I used to be.,Highly disagree,83/94,Somewhat agree,3,1708008271197,1708008273929,\Somewhat agree\,\Somewhat agree\,\3\,1708008273367,1708008273367,2170,2170,2732,buq,qns-item-noham,83,411463,0.0-1.0-0.82,65ce213ff2f16c6a9e8c662d,AWAITING REVIEW,2024-02-15T14:37:27.729000Z,2024-02-15T14:46:29.889000Z,,2024-02-15T14:46:30.430421Z,543.0,CVPIIDEI,4496,38,Male,White,United States,United States,United States,English,No,Full-Time,Not Applicable
5c36c5a851707e0001cd533d,<b>People often tell falsehoods unintentionally.,Highly disagree,84/94,Highly agree,4,1708008273931,1708008276547,\Highly agree\,\Highly agree\,\4\,1708008276037,1708008276037,2106,2106,2616,buq,qns-item-noham,84,414081,0.0-1.0-0.83,65ce213ff2f16c6a9e8c662d,AWAITING REVIEW,2024-02-15T14:37:27.729000Z,2024-02-15T14:46:29.889000Z,,2024-02-15T14:46:30.430421Z,543.0,CVPIIDEI,4496,38,Male,White,United States,United States,United States,English,No,Full-Time,Not Applicable
5c36c5a851707e0001cd533d,<b>Most people don?t know much about most things.,Highly disagree,85/94,Somewhat disagree,2,1708008276550,1708008278947,\Somewhat disagree\,\Somewhat disagree\,\2\,1708008278547,1708008278547,1997,1997,2397,buq,qns-item-noham,85,416481,0.0-1.0-0.84,65ce213ff2f16c6a9e8c662d,AWAITING REVIEW,2024-02-15T14:37:27.729000Z,2024-02-15T14:46:29.889000Z,,2024-02-15T14:46:30.430421Z,543.0,CVPIIDEI,4496,38,Male,White,United States,United States,United States,English,No,Full-Time,Not Applicable
5c36c5a851707e0001cd533d,"<b>If I find out something new about someone, I easily change my views about them.",Highly disagree,86/94,Somewhat disagree,2,1708008278949,1708008282099,\Somewhat disagree\,\Somewhat disagree\,\2\,1708008281562,1708008281562,2613,2613,3150,buq,qns-item-noham,86,419633,0.0-1.0-0.85,65ce213ff2f16c6a9e8c662d,AWAITING REVIEW,2024-02-15T14:37:27.729000Z,2024-02-15T14:46:29.889000Z,,2024-02-15T14:46:30.430421Z,543.0,CVPIIDEI,4496,38,Male,White,United States,United States,United States,English,No,Full-Time,Not Applicable
5c36c5a851707e0001cd533d,<b>Having true beliefs is difficult.,Highly disagree,87/94,Highly agree,4,1708008282101,1708008284245,\Highly agree\,\Highly agree\,\4\,1708008283689,1708008283689,1588,1588,2144,buq,qns-item-noham,87,421779,0.0-1.0-0.86,65ce213ff2f16c6a9e8c662d,AWAITING REVIEW,2024-02-15T14:37:27.729000Z,2024-02-15T14:46:29.889000Z,,2024-02-15T14:46:30.430421Z,543.0,CVPIIDEI,4496,38,Male,White,United States,United States,United States,English,No,Full-Time,Not Applicable
5c36c5a851707e0001cd533d,<b>I don?t try new foods since I know I won?t like them.,Highly disagree,88/94,Highly disagree,1,1708008284247,1708008286188,\Highly disagree\,\Highly disagree\,\1\,1708008285692,1708008285692,1445,1445,1941,buq,qns-item-noham,88,423722,0.0-1.0-0.87,65ce213ff2f16c6a9e8c662d,AWAITING REVIEW,2024-02-15T14:37:27.729000Z,2024-02-15T14:46:29.889000Z,,2024-02-15T14:46:30.430421Z,543.0,CVPIIDEI,4496,38,Male,White,United States,United States,United States,English,No,Full-Time,Not Applicable
5c36c5a851707e0001cd533d,<b>Other people trick each other a lot.,Highly disagree,89/94,Somewhat agree,3,1708008286189,1708008288600,\Somewhat agree\,\Somewhat agree\,\3\,1708008287670,1708008287670,1481,1481,2411,buq,qns-item-noham,89,426134,0.0-1.0-0.88,65ce213ff2f16c6a9e8c662d,AWAITING REVIEW,2024-02-15T14:37:27.729000Z,2024-02-15T14:46:29.889000Z,,2024-02-15T14:46:30.430421Z,543.0,CVPIIDEI,4496,38,Male,White,United States,United States,United States,English,No,Full-Time,Not Applicable
5c36c5a851707e0001cd533d,<b>I would need to learn a lot about a person for my opinion of them to be swayed.,Highly disagree,90/94,Somewhat disagree,2,1708008288602,1708008342398,\Somewhat disagree\,\Somewhat disagree\,\2\,1708008341297,1708008341297,52695,52695,53796,buq,qns-item-noham,90,479932,0.0-1.0-0.89,65ce213ff2f16c6a9e8c662d,AWAITING REVIEW,2024-02-15T14:37:27.729000Z,2024-02-15T14:46:29.889000Z,,2024-02-15T14:46:30.430421Z,543.0,CVPIIDEI,4496,38,Male,White,United States,United States,United States,English,No,Full-Time,Not Applicable
5c36c5a851707e0001cd533d,<b>People can?t usually trick me when it comes to topics I care about.,Highly disagree,91/94,Somewhat disagree,2,1708008342400,1708008344769,\Somewhat disagree\,\Somewhat disagree\,\2\,1708008344179,1708008344179,1779,1779,2369,buq,qns-item-noham,91,482303,0.0-1.0-0.90,65ce213ff2f16c6a9e8c662d,AWAITING REVIEW,2024-02-15T14:37:27.729000Z,2024-02-15T14:46:29.889000Z,,2024-02-15T14:46:30.430421Z,543.0,CVPIIDEI,4496,38,Male,White,United States,United States,United States,English,No,Full-Time,Not Applicable
5c36c5a851707e0001cd533d,<b>I do not often change my views on food.,Highly disagree,92/94,Somewhat agree,3,1708008344770,1708008347755,\Somewhat agree\,\Somewhat agree\,\3\,1708008347178,1708008347178,2408,2408,2985,buq,qns-item-noham,92,485289,0.0-1.0-0.91,65ce213ff2f16c6a9e8c662d,AWAITING REVIEW,2024-02-15T14:37:27.729000Z,2024-02-15T14:46:29.889000Z,,2024-02-15T14:46:30.430421Z,543.0,CVPIIDEI,4496,38,Male,White,United States,United States,United States,English,No,Full-Time,Not Applicable
5c36c5a851707e0001cd533d,<b>Specific policies are often very important to me.,Highly disagree,93/94,Highly agree,4,1708008347756,1708008349832,\Highly agree\,\Highly agree\,\4\,1708008349301,1708008349301,1545,1545,2076,buq,qns-item-noham,93,487366,0.0-1.0-0.92,65ce213ff2f16c6a9e8c662d,AWAITING REVIEW,2024-02-15T14:37:27.729000Z,2024-02-15T14:46:29.889000Z,,2024-02-15T14:46:30.430421Z,543.0,CVPIIDEI,4496,38,Male,White,United States,United States,United States,English,No,Full-Time,Not Applicable
5c36c5a851707e0001cd533d,<b>Most people are woefully under-informed.,Highly disagree,94/94,Highly agree,4,1708008349833,1708008352465,\Highly agree\,\Highly agree\,\4\,1708008351853,1708008351853,2020,2020,2632,buq,qns-item-noham,94,489999,0.0-1.0-0.93,65ce213ff2f16c6a9e8c662d,AWAITING REVIEW,2024-02-15T14:37:27.729000Z,2024-02-15T14:46:29.889000Z,,2024-02-15T14:46:30.430421Z,543.0,CVPIIDEI,4496,38,Male,White,United States,United States,United States,English,No,Full-Time,Not Applicable
5c36c5a851707e0001cd533d,,,,,,,,,,,,,,,,,,,,,65ce213ff2f16c6a9e8c662d,AWAITING REVIEW,2024-02-15T14:37:27.729000Z,2024-02-15T14:46:29.889000Z,,2024-02-15T14:46:30.430421Z,543.0,CVPIIDEI,4496,38,Male,White,United States,United States,United States,English,No,Full-Time,Not Applicable
