PROLIFIC_PID,Question,qns_options,quest_num,answer,answer_num,question_load_timestamp,next_btn_timestamp,text_selected,final_text_selected,option_num_selected,preview_timestamps,final_text_selected_time_stamp,rt_first_option_click,rt_final_option_click,rt_submit_click,questionnaire,trial_type,trial_index,time_elapsed,internal_node_id,Demographic_Submission id,Demographic_Status,Demographic_Started at,Demographic_Completed at,Demographic_Reviewed at,Demographic_Archived at,Demographic_Time taken,Demographic_Completion code,Demographic_Total approvals,Demographic_Age,Demographic_Sex,Demographic_Ethnicity simplified,Demographic_Country of birth,Demographic_Country of residence,Demographic_Nationality,Demographic_Language,Demographic_Student status,Demographic_Employment status,Demographic_Custom study tncs accepted at
636148d7c918791f6fc8d86c,<b>Knowing what?s true and knowing what to do about it are usually basically the same.,Highly disagree,1/94,Somewhat agree,3,1708007842553,1708007861017,\Somewhat agree\,\Somewhat agree\,\3\,1708007860254,1708007860254,17701,17701,18464,buq,qns-item-noham,1,31264,0.0-1.0-0.0,65ce2177272ed735b56247d7,AWAITING REVIEW,2024-02-15T14:36:48.010000Z,2024-02-15T14:51:01.296000Z,,2024-02-15T14:51:01.775765Z,854.0,CVPIIDEI,504,34,Male,White,United States,United States,United States,English,No,"Not in paid work (e.g. homemaker', 'retired or disabled)",Not Applicable
636148d7c918791f6fc8d86c,<b>Most people just believe whatever is convenient for them.,Highly disagree,2/94,Highly agree,4,1708007861025,1708007866937,\Highly agree\,\Highly agree\,\4\,1708007865871,1708007865871,4846,4846,5912,buq,qns-item-noham,2,37183,0.0-1.0-0.1,65ce2177272ed735b56247d7,AWAITING REVIEW,2024-02-15T14:36:48.010000Z,2024-02-15T14:51:01.296000Z,,2024-02-15T14:51:01.775765Z,854.0,CVPIIDEI,504,34,Male,White,United States,United States,United States,English,No,"Not in paid work (e.g. homemaker', 'retired or disabled)",Not Applicable
636148d7c918791f6fc8d86c,<b>Having some big beliefs helps me sort out minor ones.,Highly disagree,3/94,Somewhat disagree,2,1708007866940,1708007878704,\Somewhat disagree\,\Somewhat disagree\,\2\,1708007877198,1708007877198,10258,10258,11764,buq,qns-item-noham,3,48950,0.0-1.0-0.2,65ce2177272ed735b56247d7,AWAITING REVIEW,2024-02-15T14:36:48.010000Z,2024-02-15T14:51:01.296000Z,,2024-02-15T14:51:01.775765Z,854.0,CVPIIDEI,504,34,Male,White,United States,United States,United States,English,No,"Not in paid work (e.g. homemaker', 'retired or disabled)",Not Applicable
636148d7c918791f6fc8d86c,<b>Political questions are usually pretty complicated.,Highly disagree,4/94,Highly agree,4,1708007878706,1708007889344,\Highly agree\,\Highly agree\,\4\,1708007888198,1708007888198,9492,9492,10638,buq,qns-item-noham,4,59590,0.0-1.0-0.3,65ce2177272ed735b56247d7,AWAITING REVIEW,2024-02-15T14:36:48.010000Z,2024-02-15T14:51:01.296000Z,,2024-02-15T14:51:01.775765Z,854.0,CVPIIDEI,504,34,Male,White,United States,United States,United States,English,No,"Not in paid work (e.g. homemaker', 'retired or disabled)",Not Applicable
636148d7c918791f6fc8d86c,<b>Figuring out what?s important in life requires learning a lot of facts.,Highly disagree,5/94,Somewhat disagree,2,1708007889348,1708007900254,\Somewhat disagree\,\Somewhat disagree\,\2\,1708007899116,1708007899116,9768,9768,10906,buq,qns-item-noham,5,70500,0.0-1.0-0.4,65ce2177272ed735b56247d7,AWAITING REVIEW,2024-02-15T14:36:48.010000Z,2024-02-15T14:51:01.296000Z,,2024-02-15T14:51:01.775765Z,854.0,CVPIIDEI,504,34,Male,White,United States,United States,United States,English,No,"Not in paid work (e.g. homemaker', 'retired or disabled)",Not Applicable
636148d7c918791f6fc8d86c,<b>It is difficult for me to remember the last time I was surprised by politics.,Highly disagree,6/94,Highly disagree,1,1708007900256,1708007910468,\Highly disagree\,\Highly disagree\,\1\,1708007907254,1708007907254,6998,6998,10212,buq,qns-item-noham,6,80714,0.0-1.0-0.5,65ce2177272ed735b56247d7,AWAITING REVIEW,2024-02-15T14:36:48.010000Z,2024-02-15T14:51:01.296000Z,,2024-02-15T14:51:01.775765Z,854.0,CVPIIDEI,504,34,Male,White,United States,United States,United States,English,No,"Not in paid work (e.g. homemaker', 'retired or disabled)",Not Applicable
636148d7c918791f6fc8d86c,<b>People?s false beliefs are understandable.,Highly disagree,7/94,Somewhat agree,3,1708007910470,1708007922186,\Somewhat agree\,\Somewhat agree\,\3\,1708007921466,1708007921466,10996,10996,11716,buq,qns-item-noham,7,92432,0.0-1.0-0.6,65ce2177272ed735b56247d7,AWAITING REVIEW,2024-02-15T14:36:48.010000Z,2024-02-15T14:51:01.296000Z,,2024-02-15T14:51:01.775765Z,854.0,CVPIIDEI,504,34,Male,White,United States,United States,United States,English,No,"Not in paid work (e.g. homemaker', 'retired or disabled)",Not Applicable
636148d7c918791f6fc8d86c,<b>I spend a lot of time trying to be informed about politics.,Highly disagree,8/94,Highly disagree,1,1708007922189,1708007928707,\Highly disagree\,\Highly disagree\,\1\,1708007927058,1708007927058,4869,4869,6518,buq,qns-item-noham,8,98954,0.0-1.0-0.7,65ce2177272ed735b56247d7,AWAITING REVIEW,2024-02-15T14:36:48.010000Z,2024-02-15T14:51:01.296000Z,,2024-02-15T14:51:01.775765Z,854.0,CVPIIDEI,504,34,Male,White,United States,United States,United States,English,No,"Not in paid work (e.g. homemaker', 'retired or disabled)",Not Applicable
636148d7c918791f6fc8d86c,<b>I think a lot about whether my beliefs are right.,Highly disagree,9/94,Somewhat disagree,2,1708007928711,1708007937760,\Somewhat disagree\,\Somewhat disagree\,\2\,1708007936989,1708007936989,8278,8278,9049,buq,qns-item-noham,9,108006,0.0-1.0-0.8,65ce2177272ed735b56247d7,AWAITING REVIEW,2024-02-15T14:36:48.010000Z,2024-02-15T14:51:01.296000Z,,2024-02-15T14:51:01.775765Z,854.0,CVPIIDEI,504,34,Male,White,United States,United States,United States,English,No,"Not in paid work (e.g. homemaker', 'retired or disabled)",Not Applicable
636148d7c918791f6fc8d86c,<b>Statistics can be pretty misleading sometimes.,Highly disagree,10/94,Somewhat agree,3,1708007937762,1708007944248,\Somewhat agree\,\Somewhat agree\,\3\,1708007943279,1708007943279,5517,5517,6486,buq,qns-item-noham,10,114494,0.0-1.0-0.9,65ce2177272ed735b56247d7,AWAITING REVIEW,2024-02-15T14:36:48.010000Z,2024-02-15T14:51:01.296000Z,,2024-02-15T14:51:01.775765Z,854.0,CVPIIDEI,504,34,Male,White,United States,United States,United States,English,No,"Not in paid work (e.g. homemaker', 'retired or disabled)",Not Applicable
636148d7c918791f6fc8d86c,<b>I have lots of beliefs that I?m only sort of sure about.,Highly disagree,11/94,Somewhat disagree,2,1708007944250,1708007953998,\Somewhat disagree\,\Somewhat disagree\,\2\,1708007952612,1708007952612,8362,8362,9748,buq,qns-item-noham,11,124244,0.0-1.0-0.10,65ce2177272ed735b56247d7,AWAITING REVIEW,2024-02-15T14:36:48.010000Z,2024-02-15T14:51:01.296000Z,,2024-02-15T14:51:01.775765Z,854.0,CVPIIDEI,504,34,Male,White,United States,United States,United States,English,No,"Not in paid work (e.g. homemaker', 'retired or disabled)",Not Applicable
636148d7c918791f6fc8d86c,"<b>If I go to my favorite restaurant and the food is surprisingly bad, it reminds me there are many disappointments in life.",Highly disagree,12/94,Somewhat disagree,2,1708007954000,1708007965413,\Somewhat disagree\,\Somewhat disagree\,\2\,1708007963914,1708007963914,9914,9914,11413,buq,qns-item-noham,12,135659,0.0-1.0-0.11,65ce2177272ed735b56247d7,AWAITING REVIEW,2024-02-15T14:36:48.010000Z,2024-02-15T14:51:01.296000Z,,2024-02-15T14:51:01.775765Z,854.0,CVPIIDEI,504,34,Male,White,United States,United States,United States,English,No,"Not in paid work (e.g. homemaker', 'retired or disabled)",Not Applicable
636148d7c918791f6fc8d86c,"<b>If you are paying attention, please select ?Somewhat agree?",Highly disagree,13/94,Somewhat agree,3,1708007965415,1708007971004,\Somewhat agree\,\Somewhat agree\,\3\,1708007970107,1708007970107,4692,4692,5589,buq,qns-item-noham,13,141250,0.0-1.0-0.12,65ce2177272ed735b56247d7,AWAITING REVIEW,2024-02-15T14:36:48.010000Z,2024-02-15T14:51:01.296000Z,,2024-02-15T14:51:01.775765Z,854.0,CVPIIDEI,504,34,Male,White,United States,United States,United States,English,No,"Not in paid work (e.g. homemaker', 'retired or disabled)",Not Applicable
636148d7c918791f6fc8d86c,"<b>When I talk to others, I often worry I?ll convince them of something I didn?t mean to.",Highly disagree,14/94,Somewhat agree,3,1708007971007,1708007979937,\Somewhat agree\,\Somewhat agree\,\3\,1708007978791,1708007978791,7784,7784,8930,buq,qns-item-noham,14,150183,0.0-1.0-0.13,65ce2177272ed735b56247d7,AWAITING REVIEW,2024-02-15T14:36:48.010000Z,2024-02-15T14:51:01.296000Z,,2024-02-15T14:51:01.775765Z,854.0,CVPIIDEI,504,34,Male,White,United States,United States,United States,English,No,"Not in paid work (e.g. homemaker', 'retired or disabled)",Not Applicable
636148d7c918791f6fc8d86c,<b>I would need to learn something utterly shocking about my party in order to change my political views.,Highly disagree,15/94,Highly disagree,1,1708007979939,1708007989940,\Highly disagree\,\Highly disagree\,\1\,1708007988933,1708007988933,8994,8994,10001,buq,qns-item-noham,15,160186,0.0-1.0-0.14,65ce2177272ed735b56247d7,AWAITING REVIEW,2024-02-15T14:36:48.010000Z,2024-02-15T14:51:01.296000Z,,2024-02-15T14:51:01.775765Z,854.0,CVPIIDEI,504,34,Male,White,United States,United States,United States,English,No,"Not in paid work (e.g. homemaker', 'retired or disabled)",Not Applicable
636148d7c918791f6fc8d86c,"<b>When I have new experiences, I tend to think of them as unique.",Highly disagree,16/94,Somewhat agree,3,1708007989942,1708007997359,\Somewhat agree\,\Somewhat agree\,\3\,1708007996670,1708007996670,6728,6728,7417,buq,qns-item-noham,16,167605,0.0-1.0-0.15,65ce2177272ed735b56247d7,AWAITING REVIEW,2024-02-15T14:36:48.010000Z,2024-02-15T14:51:01.296000Z,,2024-02-15T14:51:01.775765Z,854.0,CVPIIDEI,504,34,Male,White,United States,United States,United States,English,No,"Not in paid work (e.g. homemaker', 'retired or disabled)",Not Applicable
636148d7c918791f6fc8d86c,<b>I change my mind about specific policies pretty frequently.,Highly disagree,17/94,Highly disagree,1,1708007997361,1708008007141,\Highly disagree\,\Highly disagree\,\1\,1708008005891,1708008005891,8530,8530,9780,buq,qns-item-noham,17,177387,0.0-1.0-0.16,65ce2177272ed735b56247d7,AWAITING REVIEW,2024-02-15T14:36:48.010000Z,2024-02-15T14:51:01.296000Z,,2024-02-15T14:51:01.775765Z,854.0,CVPIIDEI,504,34,Male,White,United States,United States,United States,English,No,"Not in paid work (e.g. homemaker', 'retired or disabled)",Not Applicable
636148d7c918791f6fc8d86c,"<b>If a politician in my political party supports something I disagree with, I give them the benefit of the doubt, as such issues often involve hidden complexities that aren?t obvious.   ",Highly disagree,18/94,Somewhat agree,3,1708008007144,1708008017056,\Somewhat agree\,\Somewhat agree\,\3\,1708008016441,1708008016441,9297,9297,9912,buq,qns-item-noham,18,187303,0.0-1.0-0.17,65ce2177272ed735b56247d7,AWAITING REVIEW,2024-02-15T14:36:48.010000Z,2024-02-15T14:51:01.296000Z,,2024-02-15T14:51:01.775765Z,854.0,CVPIIDEI,504,34,Male,White,United States,United States,United States,English,No,"Not in paid work (e.g. homemaker', 'retired or disabled)",Not Applicable
636148d7c918791f6fc8d86c,<b>People?s bad politics are usually motivated by hatefulness.,Highly disagree,19/94,Somewhat agree,3,1708008017059,1708008024403,\Somewhat agree\,\Somewhat agree\,\3\,1708008023635,1708008023635,6576,6576,7344,buq,qns-item-noham,19,194649,0.0-1.0-0.18,65ce2177272ed735b56247d7,AWAITING REVIEW,2024-02-15T14:36:48.010000Z,2024-02-15T14:51:01.296000Z,,2024-02-15T14:51:01.775765Z,854.0,CVPIIDEI,504,34,Male,White,United States,United States,United States,English,No,"Not in paid work (e.g. homemaker', 'retired or disabled)",Not Applicable
636148d7c918791f6fc8d86c,<b>I think a lot about how to reconcile my beliefs with one another.,Highly disagree,20/94,Somewhat agree,3,1708008024405,1708008033144,\Somewhat agree\,\Somewhat agree\,\3\,1708008032504,1708008032504,8099,8099,8739,buq,qns-item-noham,20,203390,0.0-1.0-0.19,65ce2177272ed735b56247d7,AWAITING REVIEW,2024-02-15T14:36:48.010000Z,2024-02-15T14:51:01.296000Z,,2024-02-15T14:51:01.775765Z,854.0,CVPIIDEI,504,34,Male,White,United States,United States,United States,English,No,"Not in paid work (e.g. homemaker', 'retired or disabled)",Not Applicable
636148d7c918791f6fc8d86c,<b>I might have false beliefs about important topics.,Highly disagree,21/94,Somewhat agree,3,1708008033146,1708008038655,\Somewhat agree\,\Somewhat agree\,\3\,1708008037998,1708008037998,4852,4852,5509,buq,qns-item-noham,21,208901,0.0-1.0-0.20,65ce2177272ed735b56247d7,AWAITING REVIEW,2024-02-15T14:36:48.010000Z,2024-02-15T14:51:01.296000Z,,2024-02-15T14:51:01.775765Z,854.0,CVPIIDEI,504,34,Male,White,United States,United States,United States,English,No,"Not in paid work (e.g. homemaker', 'retired or disabled)",Not Applicable
636148d7c918791f6fc8d86c,"<b>If a good friend of mine does something unexpected that upsets me, I feel like I don?t know them anymore.",Highly disagree,22/94,Highly disagree,1,1708008038658,1708008048550,\Highly disagree\,\Highly disagree\,\1\,1708008045664,1708008045664,7006,7006,9892,buq,qns-item-noham,22,218796,0.0-1.0-0.21,65ce2177272ed735b56247d7,AWAITING REVIEW,2024-02-15T14:36:48.010000Z,2024-02-15T14:51:01.296000Z,,2024-02-15T14:51:01.775765Z,854.0,CVPIIDEI,504,34,Male,White,United States,United States,United States,English,No,"Not in paid work (e.g. homemaker', 'retired or disabled)",Not Applicable
636148d7c918791f6fc8d86c,<b>Other people?s beliefs are often incoherent.,Highly disagree,23/94,Somewhat disagree,2,1708008048552,1708008058908,\Somewhat disagree\,\Somewhat disagree\,\2\,1708008058212,1708008058212,9660,9660,10356,buq,qns-item-noham,23,229154,0.0-1.0-0.22,65ce2177272ed735b56247d7,AWAITING REVIEW,2024-02-15T14:36:48.010000Z,2024-02-15T14:51:01.296000Z,,2024-02-15T14:51:01.775765Z,854.0,CVPIIDEI,504,34,Male,White,United States,United States,United States,English,No,"Not in paid work (e.g. homemaker', 'retired or disabled)",Not Applicable
636148d7c918791f6fc8d86c,"<b>Every now and then, a new experience will unsettle beliefs I?ve had for a while.",Highly disagree,24/94,Somewhat disagree,2,1708008058911,1708008068514,\Somewhat disagree\,\Somewhat disagree\,\2\,1708008067896,1708008067896,8985,8985,9603,buq,qns-item-noham,24,238760,0.0-1.0-0.23,65ce2177272ed735b56247d7,AWAITING REVIEW,2024-02-15T14:36:48.010000Z,2024-02-15T14:51:01.296000Z,,2024-02-15T14:51:01.775765Z,854.0,CVPIIDEI,504,34,Male,White,United States,United States,United States,English,No,"Not in paid work (e.g. homemaker', 'retired or disabled)",Not Applicable
636148d7c918791f6fc8d86c,<b>Some policies I agree with in principle are so bad I don?t support them. ,Highly disagree,25/94,Somewhat agree,3,1708008068516,1708008081554,\Somewhat agree\,\Somewhat agree\,\3\,1708008080931,1708008080931,12415,12415,13038,buq,qns-item-noham,25,251800,0.0-1.0-0.24,65ce2177272ed735b56247d7,AWAITING REVIEW,2024-02-15T14:36:48.010000Z,2024-02-15T14:51:01.296000Z,,2024-02-15T14:51:01.775765Z,854.0,CVPIIDEI,504,34,Male,White,United States,United States,United States,English,No,"Not in paid work (e.g. homemaker', 'retired or disabled)",Not Applicable
636148d7c918791f6fc8d86c,<b>I?m pretty sure I?ve accidentally spread false information.,Highly disagree,26/94,Somewhat agree,3,1708008081556,1708008089036,\Somewhat agree\,\Somewhat agree\,\3\,1708008088452,1708008088452,6896,6896,7480,buq,qns-item-noham,26,259282,0.0-1.0-0.25,65ce2177272ed735b56247d7,AWAITING REVIEW,2024-02-15T14:36:48.010000Z,2024-02-15T14:51:01.296000Z,,2024-02-15T14:51:01.775765Z,854.0,CVPIIDEI,504,34,Male,White,United States,United States,United States,English,No,"Not in paid work (e.g. homemaker', 'retired or disabled)",Not Applicable
636148d7c918791f6fc8d86c,"<b>If I go to my favorite restaurant and the food is unexpectedly bad, then they have changed owners.",Highly disagree,27/94,Highly disagree,1,1708008089038,1708008099875,\Highly disagree\,\Highly disagree\,\1\,1708008098827,1708008098827,9789,9789,10837,buq,qns-item-noham,27,270122,0.0-1.0-0.26,65ce2177272ed735b56247d7,AWAITING REVIEW,2024-02-15T14:36:48.010000Z,2024-02-15T14:51:01.296000Z,,2024-02-15T14:51:01.775765Z,854.0,CVPIIDEI,504,34,Male,White,United States,United States,United States,English,No,"Not in paid work (e.g. homemaker', 'retired or disabled)",Not Applicable
636148d7c918791f6fc8d86c,"<b>In politics, it?s important to trust your friends and family.",Highly disagree,28/94,Highly disagree,1,1708008099878,1708008109929,\Highly disagree\,\Highly disagree\,\1\,1708008109240,1708008109240,9362,9362,10051,buq,qns-item-noham,28,280175,0.0-1.0-0.27,65ce2177272ed735b56247d7,AWAITING REVIEW,2024-02-15T14:36:48.010000Z,2024-02-15T14:51:01.296000Z,,2024-02-15T14:51:01.775765Z,854.0,CVPIIDEI,504,34,Male,White,United States,United States,United States,English,No,"Not in paid work (e.g. homemaker', 'retired or disabled)",Not Applicable
636148d7c918791f6fc8d86c,<b>It?s OK to have some conflicting beliefs.,Highly disagree,29/94,Highly agree,4,1708008109930,1708008115120,\Highly agree\,\Highly agree\,\4\,1708008114366,1708008114366,4436,4436,5190,buq,qns-item-noham,29,285366,0.0-1.0-0.28,65ce2177272ed735b56247d7,AWAITING REVIEW,2024-02-15T14:36:48.010000Z,2024-02-15T14:51:01.296000Z,,2024-02-15T14:51:01.775765Z,854.0,CVPIIDEI,504,34,Male,White,United States,United States,United States,English,No,"Not in paid work (e.g. homemaker', 'retired or disabled)",Not Applicable
636148d7c918791f6fc8d86c,<b>Listening to people I disagree with makes my opinions better.,Highly disagree,30/94,Somewhat agree,3,1708008115122,1708008120430,\Somewhat agree\,\Somewhat agree\,\3\,1708008119831,1708008119831,4709,4709,5308,buq,qns-item-noham,30,290676,0.0-1.0-0.29,65ce2177272ed735b56247d7,AWAITING REVIEW,2024-02-15T14:36:48.010000Z,2024-02-15T14:51:01.296000Z,,2024-02-15T14:51:01.775765Z,854.0,CVPIIDEI,504,34,Male,White,United States,United States,United States,English,No,"Not in paid work (e.g. homemaker', 'retired or disabled)",Not Applicable
636148d7c918791f6fc8d86c,<b>My moral compass sometimes makes it harder to determine what?s true.,Highly disagree,31/94,Somewhat agree,3,1708008120432,1708008128369,\Somewhat agree\,\Somewhat agree\,\3\,1708008127145,1708008127145,6713,6713,7937,buq,qns-item-noham,31,298615,0.0-1.0-0.30,65ce2177272ed735b56247d7,AWAITING REVIEW,2024-02-15T14:36:48.010000Z,2024-02-15T14:51:01.296000Z,,2024-02-15T14:51:01.775765Z,854.0,CVPIIDEI,504,34,Male,White,United States,United States,United States,English,No,"Not in paid work (e.g. homemaker', 'retired or disabled)",Not Applicable
636148d7c918791f6fc8d86c,<b>Evidence pointing in the wrong direction isn?t really evidence at all.,Highly disagree,32/94,Somewhat agree,3,1708008128371,1708008135563,\Somewhat agree\,\Somewhat agree\,\3\,1708008135075,1708008135075,6704,6704,7192,buq,qns-item-noham,32,305809,0.0-1.0-0.31,65ce2177272ed735b56247d7,AWAITING REVIEW,2024-02-15T14:36:48.010000Z,2024-02-15T14:51:01.296000Z,,2024-02-15T14:51:01.775765Z,854.0,CVPIIDEI,504,34,Male,White,United States,United States,United States,English,No,"Not in paid work (e.g. homemaker', 'retired or disabled)",Not Applicable
636148d7c918791f6fc8d86c,"<b>If the political party I support messes up, it makes me think politics is rotten.",Highly disagree,33/94,Highly disagree,1,1708008135566,1708008144039,\Highly disagree\,\Highly disagree\,\1\,1708008142678,1708008142678,7112,7112,8473,buq,qns-item-noham,33,314285,0.0-1.0-0.32,65ce2177272ed735b56247d7,AWAITING REVIEW,2024-02-15T14:36:48.010000Z,2024-02-15T14:51:01.296000Z,,2024-02-15T14:51:01.775765Z,854.0,CVPIIDEI,504,34,Male,White,United States,United States,United States,English,No,"Not in paid work (e.g. homemaker', 'retired or disabled)",Not Applicable
636148d7c918791f6fc8d86c,<b>Lots of important topics can only really be understood by some groups of people.,Highly disagree,34/94,Somewhat agree,3,1708008144041,1708008152258,\Somewhat agree\,\Somewhat agree\,\3\,1708008151298,1708008151298,7257,7257,8217,buq,qns-item-noham,34,322504,0.0-1.0-0.33,65ce2177272ed735b56247d7,AWAITING REVIEW,2024-02-15T14:36:48.010000Z,2024-02-15T14:51:01.296000Z,,2024-02-15T14:51:01.775765Z,854.0,CVPIIDEI,504,34,Male,White,United States,United States,United States,English,No,"Not in paid work (e.g. homemaker', 'retired or disabled)",Not Applicable
636148d7c918791f6fc8d86c,<b>Having conflicting beliefs means you haven?t thought about them enough.,Highly disagree,35/94,Highly agree,4,1708008152260,1708008158546,\Highly agree\,\Highly agree\,\4\,1708008157962,1708008157962,5702,5702,6286,buq,qns-item-noham,35,328792,0.0-1.0-0.34,65ce2177272ed735b56247d7,AWAITING REVIEW,2024-02-15T14:36:48.010000Z,2024-02-15T14:51:01.296000Z,,2024-02-15T14:51:01.775765Z,854.0,CVPIIDEI,504,34,Male,White,United States,United States,United States,English,No,"Not in paid work (e.g. homemaker', 'retired or disabled)",Not Applicable
636148d7c918791f6fc8d86c,<b>I do not often change my political opinions.,Highly disagree,36/94,Highly agree,4,1708008158549,1708008165356,\Highly agree\,\Highly agree\,\4\,1708008164281,1708008164281,5732,5732,6807,buq,qns-item-noham,36,335602,0.0-1.0-0.35,65ce2177272ed735b56247d7,AWAITING REVIEW,2024-02-15T14:36:48.010000Z,2024-02-15T14:51:01.296000Z,,2024-02-15T14:51:01.775765Z,854.0,CVPIIDEI,504,34,Male,White,United States,United States,United States,English,No,"Not in paid work (e.g. homemaker', 'retired or disabled)",Not Applicable
636148d7c918791f6fc8d86c,<b>It?s difficult to not have at least some conflicting beliefs.,Highly disagree,37/94,Somewhat agree,3,1708008165358,1708008170052,\Somewhat agree\,\Somewhat agree\,\3\,1708008169563,1708008169563,4205,4205,4694,buq,qns-item-noham,37,340298,0.0-1.0-0.36,65ce2177272ed735b56247d7,AWAITING REVIEW,2024-02-15T14:36:48.010000Z,2024-02-15T14:51:01.296000Z,,2024-02-15T14:51:01.775765Z,854.0,CVPIIDEI,504,34,Male,White,United States,United States,United States,English,No,"Not in paid work (e.g. homemaker', 'retired or disabled)",Not Applicable
636148d7c918791f6fc8d86c,<b>Wishful thinking causes a lot of problems.,Highly disagree,38/94,Somewhat agree,3,1708008170054,1708008175315,\Somewhat agree\,\Somewhat agree\,\3\,1708008174546,1708008174546,4492,4492,5261,buq,qns-item-noham,38,345561,0.0-1.0-0.37,65ce2177272ed735b56247d7,AWAITING REVIEW,2024-02-15T14:36:48.010000Z,2024-02-15T14:51:01.296000Z,,2024-02-15T14:51:01.775765Z,854.0,CVPIIDEI,504,34,Male,White,United States,United States,United States,English,No,"Not in paid work (e.g. homemaker', 'retired or disabled)",Not Applicable
636148d7c918791f6fc8d86c,<b>I judge a food item only once I try it many times.,Highly disagree,39/94,Somewhat agree,3,1708008175317,1708008182877,\Somewhat agree\,\Somewhat agree\,\3\,1708008182187,1708008182187,6870,6870,7560,buq,qns-item-noham,39,353123,0.0-1.0-0.38,65ce2177272ed735b56247d7,AWAITING REVIEW,2024-02-15T14:36:48.010000Z,2024-02-15T14:51:01.296000Z,,2024-02-15T14:51:01.775765Z,854.0,CVPIIDEI,504,34,Male,White,United States,United States,United States,English,No,"Not in paid work (e.g. homemaker', 'retired or disabled)",Not Applicable
636148d7c918791f6fc8d86c,"<b>When a person holds conflicting beliefs, they should really try to figure out what?s wrong.",Highly disagree,40/94,Somewhat agree,3,1708008182879,1708008190847,\Somewhat agree\,\Somewhat agree\,\3\,1708008190205,1708008190205,7326,7326,7968,buq,qns-item-noham,40,361093,0.0-1.0-0.39,65ce2177272ed735b56247d7,AWAITING REVIEW,2024-02-15T14:36:48.010000Z,2024-02-15T14:51:01.296000Z,,2024-02-15T14:51:01.775765Z,854.0,CVPIIDEI,504,34,Male,White,United States,United States,United States,English,No,"Not in paid work (e.g. homemaker', 'retired or disabled)",Not Applicable
636148d7c918791f6fc8d86c,<b>Knowing what?s important in life is easy.,Highly disagree,41/94,Highly disagree,1,1708008190850,1708008195133,\Highly disagree\,\Highly disagree\,\1\,1708008193738,1708008193738,2888,2888,4283,buq,qns-item-noham,41,365379,0.0-1.0-0.40,65ce2177272ed735b56247d7,AWAITING REVIEW,2024-02-15T14:36:48.010000Z,2024-02-15T14:51:01.296000Z,,2024-02-15T14:51:01.775765Z,854.0,CVPIIDEI,504,34,Male,White,United States,United States,United States,English,No,"Not in paid work (e.g. homemaker', 'retired or disabled)",Not Applicable
636148d7c918791f6fc8d86c,<b>I swim across the Atlantic Ocean to get to work every day.,Highly disagree,42/94,Highly disagree,1,1708008195135,1708008203072,\Highly disagree\,\Highly disagree\,\1\,1708008200267,1708008200267,5132,5132,7937,buq,qns-item-noham,42,373319,0.0-1.0-0.41,65ce2177272ed735b56247d7,AWAITING REVIEW,2024-02-15T14:36:48.010000Z,2024-02-15T14:51:01.296000Z,,2024-02-15T14:51:01.775765Z,854.0,CVPIIDEI,504,34,Male,White,United States,United States,United States,English,No,"Not in paid work (e.g. homemaker', 'retired or disabled)",Not Applicable
636148d7c918791f6fc8d86c,"<b>Sometimes, you just have to ignore evidence that you know is wrong.",Highly disagree,43/94,Somewhat agree,3,1708008203074,1708008214632,\Somewhat agree\,\Somewhat agree\,\3\,1708008213645,1708008213645,10571,10571,11558,buq,qns-item-noham,43,384878,0.0-1.0-0.42,65ce2177272ed735b56247d7,AWAITING REVIEW,2024-02-15T14:36:48.010000Z,2024-02-15T14:51:01.296000Z,,2024-02-15T14:51:01.775765Z,854.0,CVPIIDEI,504,34,Male,White,United States,United States,United States,English,No,"Not in paid work (e.g. homemaker', 'retired or disabled)",Not Applicable
636148d7c918791f6fc8d86c,<b>I have had some false beliefs.,Highly disagree,44/94,Somewhat agree,3,1708008214633,1708008222570,\Somewhat agree\,\Somewhat agree\,\3\,1708008221954,1708008221954,7321,7321,7937,buq,qns-item-noham,44,392816,0.0-1.0-0.43,65ce2177272ed735b56247d7,AWAITING REVIEW,2024-02-15T14:36:48.010000Z,2024-02-15T14:51:01.296000Z,,2024-02-15T14:51:01.775765Z,854.0,CVPIIDEI,504,34,Male,White,United States,United States,United States,English,No,"Not in paid work (e.g. homemaker', 'retired or disabled)",Not Applicable
636148d7c918791f6fc8d86c,"<b>If one friend does something that upsets me, I sometimes start to distrust people in general.",Highly disagree,45/94,Somewhat disagree,2,1708008222572,1708008231365,\Somewhat disagree\,\Somewhat disagree\,\2\,1708008230251,1708008230251,7679,7679,8793,buq,qns-item-noham,45,401611,0.0-1.0-0.44,65ce2177272ed735b56247d7,AWAITING REVIEW,2024-02-15T14:36:48.010000Z,2024-02-15T14:51:01.296000Z,,2024-02-15T14:51:01.775765Z,854.0,CVPIIDEI,504,34,Male,White,United States,United States,United States,English,No,"Not in paid work (e.g. homemaker', 'retired or disabled)",Not Applicable
636148d7c918791f6fc8d86c,<b>The facts about most important matters are easy to find.,Highly disagree,46/94,Highly disagree,1,1708008231368,1708008240306,\Highly disagree\,\Highly disagree\,\1\,1708008239504,1708008239504,8136,8136,8938,buq,qns-item-noham,46,410552,0.0-1.0-0.45,65ce2177272ed735b56247d7,AWAITING REVIEW,2024-02-15T14:36:48.010000Z,2024-02-15T14:51:01.296000Z,,2024-02-15T14:51:01.775765Z,854.0,CVPIIDEI,504,34,Male,White,United States,United States,United States,English,No,"Not in paid work (e.g. homemaker', 'retired or disabled)",Not Applicable
636148d7c918791f6fc8d86c,<b>It?s better to know what?s true than to know what?s moral.,Highly disagree,47/94,Somewhat disagree,2,1708008240308,1708008250600,\Somewhat disagree\,\Somewhat disagree\,\2\,1708008249853,1708008249853,9545,9545,10292,buq,qns-item-noham,47,420846,0.0-1.0-0.46,65ce2177272ed735b56247d7,AWAITING REVIEW,2024-02-15T14:36:48.010000Z,2024-02-15T14:51:01.296000Z,,2024-02-15T14:51:01.775765Z,854.0,CVPIIDEI,504,34,Male,White,United States,United States,United States,English,No,"Not in paid work (e.g. homemaker', 'retired or disabled)",Not Applicable
636148d7c918791f6fc8d86c,<b>I used to think the world was less complicated than I do now.,Highly disagree,48/94,Highly agree,4,1708008250601,1708008257736,\Highly agree\,\Highly agree\,\4\,1708008256150,1708008256150,5549,5549,7135,buq,qns-item-noham,48,427982,0.0-1.0-0.47,65ce2177272ed735b56247d7,AWAITING REVIEW,2024-02-15T14:36:48.010000Z,2024-02-15T14:51:01.296000Z,,2024-02-15T14:51:01.775765Z,854.0,CVPIIDEI,504,34,Male,White,United States,United States,United States,English,No,"Not in paid work (e.g. homemaker', 'retired or disabled)",Not Applicable
636148d7c918791f6fc8d86c,<b>People are usually completely right or completely wrong.,Highly disagree,49/94,Highly disagree,1,1708008257738,1708008264098,\Highly disagree\,\Highly disagree\,\1\,1708008263376,1708008263376,5638,5638,6360,buq,qns-item-noham,49,434344,0.0-1.0-0.48,65ce2177272ed735b56247d7,AWAITING REVIEW,2024-02-15T14:36:48.010000Z,2024-02-15T14:51:01.296000Z,,2024-02-15T14:51:01.775765Z,854.0,CVPIIDEI,504,34,Male,White,United States,United States,United States,English,No,"Not in paid work (e.g. homemaker', 'retired or disabled)",Not Applicable
636148d7c918791f6fc8d86c,<b>I spend a lot of time considering alternatives to my beliefs.,Highly disagree,50/94,Somewhat agree,3,1708008264099,1708008270274,\Somewhat agree\,\Somewhat agree\,\3\,1708008269648,1708008269648,5549,5549,6175,buq,qns-item-noham,50,440520,0.0-1.0-0.49,65ce2177272ed735b56247d7,AWAITING REVIEW,2024-02-15T14:36:48.010000Z,2024-02-15T14:51:01.296000Z,,2024-02-15T14:51:01.775765Z,854.0,CVPIIDEI,504,34,Male,White,United States,United States,United States,English,No,"Not in paid work (e.g. homemaker', 'retired or disabled)",Not Applicable
636148d7c918791f6fc8d86c,"<b>Political enemies need to be defeated, not convinced.",Highly disagree,51/94,Highly disagree,1,1708008270276,1708008280182,\Highly disagree\,\Highly disagree\,\1\,1708008279454,1708008279454,9178,9178,9906,buq,qns-item-noham,51,450428,0.0-1.0-0.50,65ce2177272ed735b56247d7,AWAITING REVIEW,2024-02-15T14:36:48.010000Z,2024-02-15T14:51:01.296000Z,,2024-02-15T14:51:01.775765Z,854.0,CVPIIDEI,504,34,Male,White,United States,United States,United States,English,No,"Not in paid work (e.g. homemaker', 'retired or disabled)",Not Applicable
636148d7c918791f6fc8d86c,<b>I form my political views only after meticulously gathering historical and present information about their policies.,Highly disagree,52/94,Highly disagree,1,1708008280184,1708008289379,\Highly disagree\,\Highly disagree\,\1\,1708008288691,1708008288691,8507,8507,9195,buq,qns-item-noham,52,459625,0.0-1.0-0.51,65ce2177272ed735b56247d7,AWAITING REVIEW,2024-02-15T14:36:48.010000Z,2024-02-15T14:51:01.296000Z,,2024-02-15T14:51:01.775765Z,854.0,CVPIIDEI,504,34,Male,White,United States,United States,United States,English,No,"Not in paid work (e.g. homemaker', 'retired or disabled)",Not Applicable
636148d7c918791f6fc8d86c,<b>It is difficult for me to remember the last time I was surprised by politics.,Highly disagree,53/94,Highly disagree,1,1708008289381,1708008299649,\Highly disagree\,\Highly disagree\,\1\,1708008295267,1708008295267,5886,5886,10268,buq,qns-item-noham,53,469895,0.0-1.0-0.52,65ce2177272ed735b56247d7,AWAITING REVIEW,2024-02-15T14:36:48.010000Z,2024-02-15T14:51:01.296000Z,,2024-02-15T14:51:01.775765Z,854.0,CVPIIDEI,504,34,Male,White,United States,United States,United States,English,No,"Not in paid work (e.g. homemaker', 'retired or disabled)",Not Applicable
636148d7c918791f6fc8d86c,"<b>When I find out I?m wrong, I think a lot about my related beliefs.",Highly disagree,54/94,Somewhat agree,3,1708008299651,1708008307092,\Somewhat agree\,\Somewhat agree\,\3\,1708008306348,1708008306348,6697,6697,7441,buq,qns-item-noham,54,477338,0.0-1.0-0.53,65ce2177272ed735b56247d7,AWAITING REVIEW,2024-02-15T14:36:48.010000Z,2024-02-15T14:51:01.296000Z,,2024-02-15T14:51:01.775765Z,854.0,CVPIIDEI,504,34,Male,White,United States,United States,United States,English,No,"Not in paid work (e.g. homemaker', 'retired or disabled)",Not Applicable
636148d7c918791f6fc8d86c,"<b>If the political party I support messes up, it makes me think you can?t trust anyone these days",Highly disagree,55/94,Somewhat disagree,2,1708008307094,1708008316424,\Somewhat disagree\,\Somewhat disagree\,\2\,1708008315335,1708008315335,8241,8241,9330,buq,qns-item-noham,55,486670,0.0-1.0-0.54,65ce2177272ed735b56247d7,AWAITING REVIEW,2024-02-15T14:36:48.010000Z,2024-02-15T14:51:01.296000Z,,2024-02-15T14:51:01.775765Z,854.0,CVPIIDEI,504,34,Male,White,United States,United States,United States,English,No,"Not in paid work (e.g. homemaker', 'retired or disabled)",Not Applicable
636148d7c918791f6fc8d86c,<b>People?s brains turn off when they talk about politics.,Highly disagree,56/94,Highly agree,4,1708008316426,1708008321448,\Highly agree\,\Highly agree\,\4\,1708008320542,1708008320542,4116,4116,5022,buq,qns-item-noham,56,491694,0.0-1.0-0.55,65ce2177272ed735b56247d7,AWAITING REVIEW,2024-02-15T14:36:48.010000Z,2024-02-15T14:51:01.296000Z,,2024-02-15T14:51:01.775765Z,854.0,CVPIIDEI,504,34,Male,White,United States,United States,United States,English,No,"Not in paid work (e.g. homemaker', 'retired or disabled)",Not Applicable
636148d7c918791f6fc8d86c,<b>People who are wrong are usually just ignoring the obvious.,Highly disagree,57/94,Somewhat disagree,2,1708008321450,1708008336741,\Somewhat disagree\,\Somewhat disagree\,\2\,1708008336131,1708008336131,14681,14681,15291,buq,qns-item-noham,57,506987,0.0-1.0-0.56,65ce2177272ed735b56247d7,AWAITING REVIEW,2024-02-15T14:36:48.010000Z,2024-02-15T14:51:01.296000Z,,2024-02-15T14:51:01.775765Z,854.0,CVPIIDEI,504,34,Male,White,United States,United States,United States,English,No,"Not in paid work (e.g. homemaker', 'retired or disabled)",Not Applicable
636148d7c918791f6fc8d86c,"<b>When forming my views on people, I rely more on what they are like now rather than rely on my past experience with them.",Highly disagree,58/94,Somewhat agree,3,1708008336743,1708008351215,\Somewhat agree\,\Somewhat agree\,\3\,1708008350615,1708008350615,13872,13872,14472,buq,qns-item-noham,58,521461,0.0-1.0-0.57,65ce2177272ed735b56247d7,AWAITING REVIEW,2024-02-15T14:36:48.010000Z,2024-02-15T14:51:01.296000Z,,2024-02-15T14:51:01.775765Z,854.0,CVPIIDEI,504,34,Male,White,United States,United States,United States,English,No,"Not in paid work (e.g. homemaker', 'retired or disabled)",Not Applicable
636148d7c918791f6fc8d86c,"<b>When people contradict my beliefs, I usually know about their evidence already.",Highly disagree,59/94,Somewhat agree,3,1708008351217,1708008360107,\Somewhat agree\,\Somewhat agree\,\3\,1708008359403,1708008359403,8186,8186,8890,buq,qns-item-noham,59,530353,0.0-1.0-0.58,65ce2177272ed735b56247d7,AWAITING REVIEW,2024-02-15T14:36:48.010000Z,2024-02-15T14:51:01.296000Z,,2024-02-15T14:51:01.775765Z,854.0,CVPIIDEI,504,34,Male,White,United States,United States,United States,English,No,"Not in paid work (e.g. homemaker', 'retired or disabled)",Not Applicable
636148d7c918791f6fc8d86c,<b>Figuring out what?s true and what?s false mainly requires a strong moral compass.,Highly disagree,60/94,Somewhat disagree,2,1708008360109,1708008367983,\Somewhat disagree\,\Somewhat disagree\,\2\,1708008367238,1708008367238,7129,7129,7874,buq,qns-item-noham,60,538229,0.0-1.0-0.59,65ce2177272ed735b56247d7,AWAITING REVIEW,2024-02-15T14:36:48.010000Z,2024-02-15T14:51:01.296000Z,,2024-02-15T14:51:01.775765Z,854.0,CVPIIDEI,504,34,Male,White,United States,United States,United States,English,No,"Not in paid work (e.g. homemaker', 'retired or disabled)",Not Applicable
636148d7c918791f6fc8d86c,"<b>Usually I?m wrong about simple things, not complicated ones.",Highly disagree,61/94,Somewhat agree,3,1708008367985,1708008378685,\Somewhat agree\,\Somewhat agree\,\3\,1708008377995,1708008377995,10010,10010,10700,buq,qns-item-noham,61,548931,0.0-1.0-0.60,65ce2177272ed735b56247d7,AWAITING REVIEW,2024-02-15T14:36:48.010000Z,2024-02-15T14:51:01.296000Z,,2024-02-15T14:51:01.775765Z,854.0,CVPIIDEI,504,34,Male,White,United States,United States,United States,English,No,"Not in paid work (e.g. homemaker', 'retired or disabled)",Not Applicable
636148d7c918791f6fc8d86c,<b>Getting all the information I want about important things is hard.,Highly disagree,62/94,Somewhat disagree,2,1708008378687,1708008387857,\Somewhat disagree\,\Somewhat disagree\,\2\,1708008387000,1708008387000,8313,8313,9170,buq,qns-item-noham,62,558103,0.0-1.0-0.61,65ce2177272ed735b56247d7,AWAITING REVIEW,2024-02-15T14:36:48.010000Z,2024-02-15T14:51:01.296000Z,,2024-02-15T14:51:01.775765Z,854.0,CVPIIDEI,504,34,Male,White,United States,United States,United States,English,No,"Not in paid work (e.g. homemaker', 'retired or disabled)",Not Applicable
636148d7c918791f6fc8d86c,<b>Most false beliefs spread because people try to deceive one another.,Highly disagree,63/94,Highly agree,4,1708008387859,1708008394186,\Highly agree\,\Highly agree\,\4\,1708008393520,1708008393520,5661,5661,6327,buq,qns-item-noham,63,564432,0.0-1.0-0.62,65ce2177272ed735b56247d7,AWAITING REVIEW,2024-02-15T14:36:48.010000Z,2024-02-15T14:51:01.296000Z,,2024-02-15T14:51:01.775765Z,854.0,CVPIIDEI,504,34,Male,White,United States,United States,United States,English,No,"Not in paid work (e.g. homemaker', 'retired or disabled)",Not Applicable
636148d7c918791f6fc8d86c,<b>I can usually find something to agree with in most people?s beliefs.,Highly disagree,64/94,Highly agree,4,1708008394188,1708008400618,\Highly agree\,\Highly agree\,\4\,1708008399906,1708008399906,5718,5718,6430,buq,qns-item-noham,64,570864,0.0-1.0-0.63,65ce2177272ed735b56247d7,AWAITING REVIEW,2024-02-15T14:36:48.010000Z,2024-02-15T14:51:01.296000Z,,2024-02-15T14:51:01.775765Z,854.0,CVPIIDEI,504,34,Male,White,United States,United States,United States,English,No,"Not in paid work (e.g. homemaker', 'retired or disabled)",Not Applicable
636148d7c918791f6fc8d86c,<b>I only form my views of people once I get to know them very well.,Highly disagree,65/94,Somewhat agree,3,1708008400620,1708008406354,\Somewhat agree\,\Somewhat agree\,\3\,1708008405882,1708008405882,5262,5262,5734,buq,qns-item-noham,65,576600,0.0-1.0-0.64,65ce2177272ed735b56247d7,AWAITING REVIEW,2024-02-15T14:36:48.010000Z,2024-02-15T14:51:01.296000Z,,2024-02-15T14:51:01.775765Z,854.0,CVPIIDEI,504,34,Male,White,United States,United States,United States,English,No,"Not in paid work (e.g. homemaker', 'retired or disabled)",Not Applicable
636148d7c918791f6fc8d86c,"<b>When people tell me important things about the world, I usually believe them.",Highly disagree,66/94,Somewhat agree,3,1708008406356,1708008413673,\Somewhat agree\,\Somewhat agree\,\3\,1708008413050,1708008413050,6694,6694,7317,buq,qns-item-noham,66,583919,0.0-1.0-0.65,65ce2177272ed735b56247d7,AWAITING REVIEW,2024-02-15T14:36:48.010000Z,2024-02-15T14:51:01.296000Z,,2024-02-15T14:51:01.775765Z,854.0,CVPIIDEI,504,34,Male,White,United States,United States,United States,English,No,"Not in paid work (e.g. homemaker', 'retired or disabled)",Not Applicable
636148d7c918791f6fc8d86c,"<b>If a friend does something that upsets me, it reminds me what an unpredictable place the world is.",Highly disagree,67/94,Somewhat disagree,2,1708008413675,1708008422953,\Somewhat disagree\,\Somewhat disagree\,\2\,1708008422071,1708008422071,8396,8396,9278,buq,qns-item-noham,67,593199,0.0-1.0-0.66,65ce2177272ed735b56247d7,AWAITING REVIEW,2024-02-15T14:36:48.010000Z,2024-02-15T14:51:01.296000Z,,2024-02-15T14:51:01.775765Z,854.0,CVPIIDEI,504,34,Male,White,United States,United States,United States,English,No,"Not in paid work (e.g. homemaker', 'retired or disabled)",Not Applicable
636148d7c918791f6fc8d86c,<b>People tend to believe whatever is good for their friends.,Highly disagree,68/94,Somewhat agree,3,1708008422955,1708008429771,\Somewhat agree\,\Somewhat agree\,\3\,1708008429265,1708008429265,6310,6310,6816,buq,qns-item-noham,68,600017,0.0-1.0-0.67,65ce2177272ed735b56247d7,AWAITING REVIEW,2024-02-15T14:36:48.010000Z,2024-02-15T14:51:01.296000Z,,2024-02-15T14:51:01.775765Z,854.0,CVPIIDEI,504,34,Male,White,United States,United States,United States,English,No,"Not in paid work (e.g. homemaker', 'retired or disabled)",Not Applicable
636148d7c918791f6fc8d86c,<b>I used to be more certain my beliefs were true.,Highly disagree,69/94,Somewhat agree,3,1708008429773,1708008446513,\Somewhat agree\,\Somewhat agree\,\3\,1708008445846,1708008445846,16073,16073,16740,buq,qns-item-noham,69,616759,0.0-1.0-0.68,65ce2177272ed735b56247d7,AWAITING REVIEW,2024-02-15T14:36:48.010000Z,2024-02-15T14:51:01.296000Z,,2024-02-15T14:51:01.775765Z,854.0,CVPIIDEI,504,34,Male,White,United States,United States,United States,English,No,"Not in paid work (e.g. homemaker', 'retired or disabled)",Not Applicable
636148d7c918791f6fc8d86c,<b>It?s often pretty easy to figure out whether something is true based on who said it.,Highly disagree,70/94,Highly disagree,1,1708008446515,1708008454271,\Highly disagree\,\Highly disagree\,\1\,1708008453581,1708008453581,7066,7066,7756,buq,qns-item-noham,70,624517,0.0-1.0-0.69,65ce2177272ed735b56247d7,AWAITING REVIEW,2024-02-15T14:36:48.010000Z,2024-02-15T14:51:01.296000Z,,2024-02-15T14:51:01.775765Z,854.0,CVPIIDEI,504,34,Male,White,United States,United States,United States,English,No,"Not in paid work (e.g. homemaker', 'retired or disabled)",Not Applicable
636148d7c918791f6fc8d86c,<b>I transform into a hummingbird every day.,Highly disagree,71/94,Highly disagree,1,1708008454273,1708008460719,\Highly disagree\,\Highly disagree\,\1\,1708008457363,1708008457363,3090,3090,6446,buq,qns-item-noham,71,630966,0.0-1.0-0.70,65ce2177272ed735b56247d7,AWAITING REVIEW,2024-02-15T14:36:48.010000Z,2024-02-15T14:51:01.296000Z,,2024-02-15T14:51:01.775765Z,854.0,CVPIIDEI,504,34,Male,White,United States,United States,United States,English,No,"Not in paid work (e.g. homemaker', 'retired or disabled)",Not Applicable
636148d7c918791f6fc8d86c,<b>I think a lot about arguments against my views.,Highly disagree,72/94,Highly disagree,1,1708008460721,1708008468665,\Highly disagree\,\Highly disagree\,\1\,1708008468009,1708008468009,7288,7288,7944,buq,qns-item-noham,72,638911,0.0-1.0-0.71,65ce2177272ed735b56247d7,AWAITING REVIEW,2024-02-15T14:36:48.010000Z,2024-02-15T14:51:01.296000Z,,2024-02-15T14:51:01.775765Z,854.0,CVPIIDEI,504,34,Male,White,United States,United States,United States,English,No,"Not in paid work (e.g. homemaker', 'retired or disabled)",Not Applicable
636148d7c918791f6fc8d86c,<b>Personal experience is usually more important than facts and figures.,Highly disagree,73/94,Somewhat agree,3,1708008468667,1708008475052,\Somewhat agree\,\Somewhat agree\,\3\,1708008474506,1708008474506,5839,5839,6385,buq,qns-item-noham,73,645298,0.0-1.0-0.72,65ce2177272ed735b56247d7,AWAITING REVIEW,2024-02-15T14:36:48.010000Z,2024-02-15T14:51:01.296000Z,,2024-02-15T14:51:01.775765Z,854.0,CVPIIDEI,504,34,Male,White,United States,United States,United States,English,No,"Not in paid work (e.g. homemaker', 'retired or disabled)",Not Applicable
636148d7c918791f6fc8d86c,<b>I?ve been tricked before about important matters.,Highly disagree,74/94,Somewhat agree,3,1708008475054,1708008479272,\Somewhat agree\,\Somewhat agree\,\3\,1708008478679,1708008478679,3625,3625,4218,buq,qns-item-noham,74,649518,0.0-1.0-0.73,65ce2177272ed735b56247d7,AWAITING REVIEW,2024-02-15T14:36:48.010000Z,2024-02-15T14:51:01.296000Z,,2024-02-15T14:51:01.775765Z,854.0,CVPIIDEI,504,34,Male,White,United States,United States,United States,English,No,"Not in paid work (e.g. homemaker', 'retired or disabled)",Not Applicable
636148d7c918791f6fc8d86c,<b>I would need to be totally wowed if I were to change my opinion of a restaurant I don?t like.,Highly disagree,75/94,Somewhat disagree,2,1708008479274,1708008488455,\Somewhat disagree\,\Somewhat disagree\,\2\,1708008487829,1708008487829,8555,8555,9181,buq,qns-item-noham,75,658701,0.0-1.0-0.74,65ce2177272ed735b56247d7,AWAITING REVIEW,2024-02-15T14:36:48.010000Z,2024-02-15T14:51:01.296000Z,,2024-02-15T14:51:01.775765Z,854.0,CVPIIDEI,504,34,Male,White,United States,United States,United States,English,No,"Not in paid work (e.g. homemaker', 'retired or disabled)",Not Applicable
636148d7c918791f6fc8d86c,<b>I care a lot about politics.,Highly disagree,76/94,Highly disagree,1,1708008488457,1708008493332,\Highly disagree\,\Highly disagree\,\1\,1708008491978,1708008491978,3521,3521,4875,buq,qns-item-noham,76,663578,0.0-1.0-0.75,65ce2177272ed735b56247d7,AWAITING REVIEW,2024-02-15T14:36:48.010000Z,2024-02-15T14:51:01.296000Z,,2024-02-15T14:51:01.775765Z,854.0,CVPIIDEI,504,34,Male,White,United States,United States,United States,English,No,"Not in paid work (e.g. homemaker', 'retired or disabled)",Not Applicable
636148d7c918791f6fc8d86c,<b>There are some topics I?ve been really wrong about.,Highly disagree,77/94,Somewhat agree,3,1708008493334,1708008499364,\Somewhat agree\,\Somewhat agree\,\3\,1708008498771,1708008498771,5437,5437,6030,buq,qns-item-noham,77,669610,0.0-1.0-0.76,65ce2177272ed735b56247d7,AWAITING REVIEW,2024-02-15T14:36:48.010000Z,2024-02-15T14:51:01.296000Z,,2024-02-15T14:51:01.775765Z,854.0,CVPIIDEI,504,34,Male,White,United States,United States,United States,English,No,"Not in paid work (e.g. homemaker', 'retired or disabled)",Not Applicable
636148d7c918791f6fc8d86c,<b>Most beliefs can be supported with at least some evidence.,Highly disagree,78/94,Somewhat agree,3,1708008499366,1708008506678,\Somewhat agree\,\Somewhat agree\,\3\,1708008506045,1708008506045,6679,6679,7312,buq,qns-item-noham,78,676924,0.0-1.0-0.77,65ce2177272ed735b56247d7,AWAITING REVIEW,2024-02-15T14:36:48.010000Z,2024-02-15T14:51:01.296000Z,,2024-02-15T14:51:01.775765Z,854.0,CVPIIDEI,504,34,Male,White,United States,United States,United States,English,No,"Not in paid work (e.g. homemaker', 'retired or disabled)",Not Applicable
636148d7c918791f6fc8d86c,<b>Other people make life out to be more complicated than it really is.,Highly disagree,79/94,Highly agree,4,1708008506680,1708008514305,\Highly agree\,\Highly agree\,\4\,1708008512862,1708008512862,6182,6182,7625,buq,qns-item-noham,79,684551,0.0-1.0-0.78,65ce2177272ed735b56247d7,AWAITING REVIEW,2024-02-15T14:36:48.010000Z,2024-02-15T14:51:01.296000Z,,2024-02-15T14:51:01.775765Z,854.0,CVPIIDEI,504,34,Male,White,United States,United States,United States,English,No,"Not in paid work (e.g. homemaker', 'retired or disabled)",Not Applicable
636148d7c918791f6fc8d86c,"<b>Policy details don?t matter much, just the big picture.",Highly disagree,80/94,Somewhat agree,3,1708008514307,1708008526041,\Somewhat agree\,\Somewhat agree\,\3\,1708008525335,1708008525335,11028,11028,11734,buq,qns-item-noham,80,696288,0.0-1.0-0.79,65ce2177272ed735b56247d7,AWAITING REVIEW,2024-02-15T14:36:48.010000Z,2024-02-15T14:51:01.296000Z,,2024-02-15T14:51:01.775765Z,854.0,CVPIIDEI,504,34,Male,White,United States,United States,United States,English,No,"Not in paid work (e.g. homemaker', 'retired or disabled)",Not Applicable
636148d7c918791f6fc8d86c,<b>I know my friends so well they can hardly ever surprise me.,Highly disagree,81/94,Somewhat disagree,2,1708008526044,1708008533384,\Somewhat disagree\,\Somewhat disagree\,\2\,1708008532584,1708008532584,6540,6540,7340,buq,qns-item-noham,81,703631,0.0-1.0-0.80,65ce2177272ed735b56247d7,AWAITING REVIEW,2024-02-15T14:36:48.010000Z,2024-02-15T14:51:01.296000Z,,2024-02-15T14:51:01.775765Z,854.0,CVPIIDEI,504,34,Male,White,United States,United States,United States,English,No,"Not in paid work (e.g. homemaker', 'retired or disabled)",Not Applicable
636148d7c918791f6fc8d86c,<b>I do not often change my views on people.,Highly disagree,82/94,Somewhat disagree,2,1708008533387,1708008538689,\Somewhat disagree\,\Somewhat disagree\,\2\,1708008538177,1708008538177,4790,4790,5302,buq,qns-item-noham,82,708935,0.0-1.0-0.81,65ce2177272ed735b56247d7,AWAITING REVIEW,2024-02-15T14:36:48.010000Z,2024-02-15T14:51:01.296000Z,,2024-02-15T14:51:01.775765Z,854.0,CVPIIDEI,504,34,Male,White,United States,United States,United States,English,No,"Not in paid work (e.g. homemaker', 'retired or disabled)",Not Applicable
636148d7c918791f6fc8d86c,<b>I?m more certain about my beliefs than I used to be.,Highly disagree,83/94,Somewhat disagree,2,1708008538691,1708008543692,\Somewhat disagree\,\Somewhat disagree\,\2\,1708008543220,1708008543220,4529,4529,5001,buq,qns-item-noham,83,713938,0.0-1.0-0.82,65ce2177272ed735b56247d7,AWAITING REVIEW,2024-02-15T14:36:48.010000Z,2024-02-15T14:51:01.296000Z,,2024-02-15T14:51:01.775765Z,854.0,CVPIIDEI,504,34,Male,White,United States,United States,United States,English,No,"Not in paid work (e.g. homemaker', 'retired or disabled)",Not Applicable
636148d7c918791f6fc8d86c,<b>People often tell falsehoods unintentionally.,Highly disagree,84/94,Highly agree,4,1708008543695,1708008548619,\Highly agree\,\Highly agree\,\4\,1708008548082,1708008548082,4387,4387,4924,buq,qns-item-noham,84,718865,0.0-1.0-0.83,65ce2177272ed735b56247d7,AWAITING REVIEW,2024-02-15T14:36:48.010000Z,2024-02-15T14:51:01.296000Z,,2024-02-15T14:51:01.775765Z,854.0,CVPIIDEI,504,34,Male,White,United States,United States,United States,English,No,"Not in paid work (e.g. homemaker', 'retired or disabled)",Not Applicable
636148d7c918791f6fc8d86c,<b>Most people don?t know much about most things.,Highly disagree,85/94,Highly agree,4,1708008548621,1708008556933,\Somewhat agree\,\Highly agree\,\3\,1708008553522,1708008556341,4901,7720,8312,buq,qns-item-noham,85,727179,0.0-1.0-0.84,65ce2177272ed735b56247d7,AWAITING REVIEW,2024-02-15T14:36:48.010000Z,2024-02-15T14:51:01.296000Z,,2024-02-15T14:51:01.775765Z,854.0,CVPIIDEI,504,34,Male,White,United States,United States,United States,English,No,"Not in paid work (e.g. homemaker', 'retired or disabled)",Not Applicable
636148d7c918791f6fc8d86c,"<b>If I find out something new about someone, I easily change my views about them.",Highly disagree,86/94,Somewhat disagree,2,1708008556935,1708008565722,\Somewhat disagree\,\Somewhat disagree\,\2\,1708008565120,1708008565120,8185,8185,8787,buq,qns-item-noham,86,735968,0.0-1.0-0.85,65ce2177272ed735b56247d7,AWAITING REVIEW,2024-02-15T14:36:48.010000Z,2024-02-15T14:51:01.296000Z,,2024-02-15T14:51:01.775765Z,854.0,CVPIIDEI,504,34,Male,White,United States,United States,United States,English,No,"Not in paid work (e.g. homemaker', 'retired or disabled)",Not Applicable
636148d7c918791f6fc8d86c,<b>Having true beliefs is difficult.,Highly disagree,87/94,Somewhat agree,3,1708008565725,1708008569469,\Somewhat agree\,\Somewhat agree\,\3\,1708008568838,1708008568838,3113,3113,3744,buq,qns-item-noham,87,739715,0.0-1.0-0.86,65ce2177272ed735b56247d7,AWAITING REVIEW,2024-02-15T14:36:48.010000Z,2024-02-15T14:51:01.296000Z,,2024-02-15T14:51:01.775765Z,854.0,CVPIIDEI,504,34,Male,White,United States,United States,United States,English,No,"Not in paid work (e.g. homemaker', 'retired or disabled)",Not Applicable
636148d7c918791f6fc8d86c,<b>I don?t try new foods since I know I won?t like them.,Highly disagree,88/94,Highly disagree,1,1708008569471,1708008574510,\Highly disagree\,\Highly disagree\,\1\,1708008573156,1708008573156,3685,3685,5039,buq,qns-item-noham,88,744756,0.0-1.0-0.87,65ce2177272ed735b56247d7,AWAITING REVIEW,2024-02-15T14:36:48.010000Z,2024-02-15T14:51:01.296000Z,,2024-02-15T14:51:01.775765Z,854.0,CVPIIDEI,504,34,Male,White,United States,United States,United States,English,No,"Not in paid work (e.g. homemaker', 'retired or disabled)",Not Applicable
636148d7c918791f6fc8d86c,<b>Other people trick each other a lot.,Highly disagree,89/94,Somewhat agree,3,1708008574512,1708008578731,\Somewhat agree\,\Somewhat agree\,\3\,1708008578106,1708008578106,3594,3594,4219,buq,qns-item-noham,89,748977,0.0-1.0-0.88,65ce2177272ed735b56247d7,AWAITING REVIEW,2024-02-15T14:36:48.010000Z,2024-02-15T14:51:01.296000Z,,2024-02-15T14:51:01.775765Z,854.0,CVPIIDEI,504,34,Male,White,United States,United States,United States,English,No,"Not in paid work (e.g. homemaker', 'retired or disabled)",Not Applicable
636148d7c918791f6fc8d86c,<b>I would need to learn a lot about a person for my opinion of them to be swayed.,Highly disagree,90/94,Somewhat agree,3,1708008578733,1708008585875,\Somewhat agree\,\Somewhat agree\,\3\,1708008585188,1708008585188,6455,6455,7142,buq,qns-item-noham,90,756122,0.0-1.0-0.89,65ce2177272ed735b56247d7,AWAITING REVIEW,2024-02-15T14:36:48.010000Z,2024-02-15T14:51:01.296000Z,,2024-02-15T14:51:01.775765Z,854.0,CVPIIDEI,504,34,Male,White,United States,United States,United States,English,No,"Not in paid work (e.g. homemaker', 'retired or disabled)",Not Applicable
636148d7c918791f6fc8d86c,<b>People can?t usually trick me when it comes to topics I care about.,Highly disagree,91/94,Somewhat disagree,2,1708008585877,1708008592766,\Somewhat disagree\,\Somewhat disagree\,\2\,1708008592147,1708008592147,6270,6270,6889,buq,qns-item-noham,91,763012,0.0-1.0-0.90,65ce2177272ed735b56247d7,AWAITING REVIEW,2024-02-15T14:36:48.010000Z,2024-02-15T14:51:01.296000Z,,2024-02-15T14:51:01.775765Z,854.0,CVPIIDEI,504,34,Male,White,United States,United States,United States,English,No,"Not in paid work (e.g. homemaker', 'retired or disabled)",Not Applicable
636148d7c918791f6fc8d86c,<b>I do not often change my views on food.,Highly disagree,92/94,Highly disagree,1,1708008592767,1708008598997,\Highly disagree\,\Highly disagree\,\1\,1708008597620,1708008597620,4853,4853,6230,buq,qns-item-noham,92,769243,0.0-1.0-0.91,65ce2177272ed735b56247d7,AWAITING REVIEW,2024-02-15T14:36:48.010000Z,2024-02-15T14:51:01.296000Z,,2024-02-15T14:51:01.775765Z,854.0,CVPIIDEI,504,34,Male,White,United States,United States,United States,English,No,"Not in paid work (e.g. homemaker', 'retired or disabled)",Not Applicable
636148d7c918791f6fc8d86c,<b>Specific policies are often very important to me.,Highly disagree,93/94,Highly disagree,1,1708008598999,1708008603580,\Highly disagree\,\Highly disagree\,\1\,1708008602130,1708008602130,3131,3131,4581,buq,qns-item-noham,93,773827,0.0-1.0-0.92,65ce2177272ed735b56247d7,AWAITING REVIEW,2024-02-15T14:36:48.010000Z,2024-02-15T14:51:01.296000Z,,2024-02-15T14:51:01.775765Z,854.0,CVPIIDEI,504,34,Male,White,United States,United States,United States,English,No,"Not in paid work (e.g. homemaker', 'retired or disabled)",Not Applicable
636148d7c918791f6fc8d86c,<b>Most people are woefully under-informed.,Highly disagree,94/94,Highly agree,4,1708008603583,1708008609101,\Highly agree\,\Highly agree\,\4\,1708008608274,1708008608274,4691,4691,5518,buq,qns-item-noham,94,779347,0.0-1.0-0.93,65ce2177272ed735b56247d7,AWAITING REVIEW,2024-02-15T14:36:48.010000Z,2024-02-15T14:51:01.296000Z,,2024-02-15T14:51:01.775765Z,854.0,CVPIIDEI,504,34,Male,White,United States,United States,United States,English,No,"Not in paid work (e.g. homemaker', 'retired or disabled)",Not Applicable
636148d7c918791f6fc8d86c,,,,,,,,,,,,,,,,,,,,,65ce2177272ed735b56247d7,AWAITING REVIEW,2024-02-15T14:36:48.010000Z,2024-02-15T14:51:01.296000Z,,2024-02-15T14:51:01.775765Z,854.0,CVPIIDEI,504,34,Male,White,United States,United States,United States,English,No,"Not in paid work (e.g. homemaker', 'retired or disabled)",Not Applicable
