PROLIFIC_PID,Question,qns_options,quest_num,answer,answer_num,question_load_timestamp,next_btn_timestamp,text_selected,final_text_selected,option_num_selected,preview_timestamps,final_text_selected_time_stamp,rt_first_option_click,rt_final_option_click,rt_submit_click,questionnaire,trial_type,trial_index,time_elapsed,internal_node_id,Demographic_Submission id,Demographic_Status,Demographic_Started at,Demographic_Completed at,Demographic_Reviewed at,Demographic_Archived at,Demographic_Time taken,Demographic_Completion code,Demographic_Total approvals,Demographic_Age,Demographic_Sex,Demographic_Ethnicity simplified,Demographic_Country of birth,Demographic_Country of residence,Demographic_Nationality,Demographic_Language,Demographic_Student status,Demographic_Employment status,Demographic_Custom study tncs accepted at
6568a71757a0ddeca59c05dc,<b>Knowing what?s true and knowing what to do about it are usually basically the same.,Highly disagree,1/94,Somewhat disagree,2,1708008073156,1708008087799,\Somewhat disagree\,\Somewhat disagree\,\2\,1708008087306,1708008087306,14150,14150,14643,buq,qns-item-noham,1,20436,0.0-1.0-0.0,65ce22701768174c8c6870c6,AWAITING REVIEW,2024-02-15T14:40:52.821000Z,2024-02-15T15:08:01.066000Z,,2024-02-15T15:08:01.692643Z,1629.0,CVPIIDEI,50,38,Male,Asian,United States,United States,United States,English,No,DATA_EXPIRED,Not Applicable
6568a71757a0ddeca59c05dc,<b>Most people just believe whatever is convenient for them.,Highly disagree,2/94,Highly agree,4,1708008087800,1708008093362,\Highly agree\,\Highly agree\,\4\,1708008091388,1708008091388,3588,3588,5562,buq,qns-item-noham,2,25999,0.0-1.0-0.1,65ce22701768174c8c6870c6,AWAITING REVIEW,2024-02-15T14:40:52.821000Z,2024-02-15T15:08:01.066000Z,,2024-02-15T15:08:01.692643Z,1629.0,CVPIIDEI,50,38,Male,Asian,United States,United States,United States,English,No,DATA_EXPIRED,Not Applicable
6568a71757a0ddeca59c05dc,<b>Having some big beliefs helps me sort out minor ones.,Highly disagree,3/94,Somewhat agree,3,1708008093364,1708008098242,\Somewhat agree\,\Somewhat agree\,\3\,1708008097866,1708008097866,4502,4502,4878,buq,qns-item-noham,3,30879,0.0-1.0-0.2,65ce22701768174c8c6870c6,AWAITING REVIEW,2024-02-15T14:40:52.821000Z,2024-02-15T15:08:01.066000Z,,2024-02-15T15:08:01.692643Z,1629.0,CVPIIDEI,50,38,Male,Asian,United States,United States,United States,English,No,DATA_EXPIRED,Not Applicable
6568a71757a0ddeca59c05dc,<b>Political questions are usually pretty complicated.,Highly disagree,4/94,Somewhat agree,3,1708008098243,1708008100764,\Somewhat agree\,\Somewhat agree\,\3\,1708008100378,1708008100378,2135,2135,2521,buq,qns-item-noham,4,33401,0.0-1.0-0.3,65ce22701768174c8c6870c6,AWAITING REVIEW,2024-02-15T14:40:52.821000Z,2024-02-15T15:08:01.066000Z,,2024-02-15T15:08:01.692643Z,1629.0,CVPIIDEI,50,38,Male,Asian,United States,United States,United States,English,No,DATA_EXPIRED,Not Applicable
6568a71757a0ddeca59c05dc,<b>Figuring out what?s important in life requires learning a lot of facts.,Highly disagree,5/94,Highly agree,4,1708008100765,1708008105437,\Highly agree\,\Highly agree\,\4\,1708008104439,1708008104439,3674,3674,4672,buq,qns-item-noham,5,38074,0.0-1.0-0.4,65ce22701768174c8c6870c6,AWAITING REVIEW,2024-02-15T14:40:52.821000Z,2024-02-15T15:08:01.066000Z,,2024-02-15T15:08:01.692643Z,1629.0,CVPIIDEI,50,38,Male,Asian,United States,United States,United States,English,No,DATA_EXPIRED,Not Applicable
6568a71757a0ddeca59c05dc,<b>It is difficult for me to remember the last time I was surprised by politics.,Highly disagree,6/94,Somewhat agree,3,1708008105438,1708008110366,\Somewhat agree\,\Somewhat agree\,\3\,1708008109862,1708008109862,4424,4424,4928,buq,qns-item-noham,6,43003,0.0-1.0-0.5,65ce22701768174c8c6870c6,AWAITING REVIEW,2024-02-15T14:40:52.821000Z,2024-02-15T15:08:01.066000Z,,2024-02-15T15:08:01.692643Z,1629.0,CVPIIDEI,50,38,Male,Asian,United States,United States,United States,English,No,DATA_EXPIRED,Not Applicable
6568a71757a0ddeca59c05dc,<b>People?s false beliefs are understandable.,Highly disagree,7/94,Somewhat agree,3,1708008110367,1708008114132,\Somewhat agree\,\Somewhat agree\,\3\,1708008113756,1708008113756,3389,3389,3765,buq,qns-item-noham,7,46769,0.0-1.0-0.6,65ce22701768174c8c6870c6,AWAITING REVIEW,2024-02-15T14:40:52.821000Z,2024-02-15T15:08:01.066000Z,,2024-02-15T15:08:01.692643Z,1629.0,CVPIIDEI,50,38,Male,Asian,United States,United States,United States,English,No,DATA_EXPIRED,Not Applicable
6568a71757a0ddeca59c05dc,<b>I spend a lot of time trying to be informed about politics.,Highly disagree,8/94,Somewhat disagree,2,1708008114133,1708008116737,\Somewhat disagree\,\Somewhat disagree\,\2\,1708008116334,1708008116334,2201,2201,2604,buq,qns-item-noham,8,49374,0.0-1.0-0.7,65ce22701768174c8c6870c6,AWAITING REVIEW,2024-02-15T14:40:52.821000Z,2024-02-15T15:08:01.066000Z,,2024-02-15T15:08:01.692643Z,1629.0,CVPIIDEI,50,38,Male,Asian,United States,United States,United States,English,No,DATA_EXPIRED,Not Applicable
6568a71757a0ddeca59c05dc,<b>I think a lot about whether my beliefs are right.,Highly disagree,9/94,Somewhat agree,3,1708008116738,1708008119313,\Somewhat agree\,\Somewhat agree\,\3\,1708008118949,1708008118949,2211,2211,2575,buq,qns-item-noham,9,51950,0.0-1.0-0.8,65ce22701768174c8c6870c6,AWAITING REVIEW,2024-02-15T14:40:52.821000Z,2024-02-15T15:08:01.066000Z,,2024-02-15T15:08:01.692643Z,1629.0,CVPIIDEI,50,38,Male,Asian,United States,United States,United States,English,No,DATA_EXPIRED,Not Applicable
6568a71757a0ddeca59c05dc,<b>Statistics can be pretty misleading sometimes.,Highly disagree,10/94,Somewhat agree,3,1708008119314,1708008122278,\Somewhat agree\,\Somewhat agree\,\3\,1708008121720,1708008121720,2406,2406,2964,buq,qns-item-noham,10,54915,0.0-1.0-0.9,65ce22701768174c8c6870c6,AWAITING REVIEW,2024-02-15T14:40:52.821000Z,2024-02-15T15:08:01.066000Z,,2024-02-15T15:08:01.692643Z,1629.0,CVPIIDEI,50,38,Male,Asian,United States,United States,United States,English,No,DATA_EXPIRED,Not Applicable
6568a71757a0ddeca59c05dc,<b>I have lots of beliefs that I?m only sort of sure about.,Highly disagree,11/94,Somewhat disagree,2,1708008122278,1708008128619,\Somewhat disagree\,\Somewhat disagree\,\2\,1708008128207,1708008128207,5929,5929,6341,buq,qns-item-noham,11,61256,0.0-1.0-0.10,65ce22701768174c8c6870c6,AWAITING REVIEW,2024-02-15T14:40:52.821000Z,2024-02-15T15:08:01.066000Z,,2024-02-15T15:08:01.692643Z,1629.0,CVPIIDEI,50,38,Male,Asian,United States,United States,United States,English,No,DATA_EXPIRED,Not Applicable
6568a71757a0ddeca59c05dc,"<b>If I go to my favorite restaurant and the food is surprisingly bad, it reminds me there are many disappointments in life.",Highly disagree,12/94,Somewhat agree,3,1708008128620,1708008134676,\Somewhat agree\,\Somewhat agree\,\3\,1708008134140,1708008134140,5520,5520,6056,buq,qns-item-noham,12,67313,0.0-1.0-0.11,65ce22701768174c8c6870c6,AWAITING REVIEW,2024-02-15T14:40:52.821000Z,2024-02-15T15:08:01.066000Z,,2024-02-15T15:08:01.692643Z,1629.0,CVPIIDEI,50,38,Male,Asian,United States,United States,United States,English,No,DATA_EXPIRED,Not Applicable
6568a71757a0ddeca59c05dc,"<b>If you are paying attention, please select ?Somewhat agree?",Highly disagree,13/94,Somewhat agree,3,1708008134676,1708008137918,\Somewhat agree\,\Somewhat agree\,\3\,1708008137417,1708008137417,2741,2741,3242,buq,qns-item-noham,13,70555,0.0-1.0-0.12,65ce22701768174c8c6870c6,AWAITING REVIEW,2024-02-15T14:40:52.821000Z,2024-02-15T15:08:01.066000Z,,2024-02-15T15:08:01.692643Z,1629.0,CVPIIDEI,50,38,Male,Asian,United States,United States,United States,English,No,DATA_EXPIRED,Not Applicable
6568a71757a0ddeca59c05dc,"<b>When I talk to others, I often worry I?ll convince them of something I didn?t mean to.",Highly disagree,14/94,Somewhat disagree,2,1708008137918,1708008145409,\Somewhat disagree\,\Somewhat disagree\,\2\,1708008144943,1708008144943,7025,7025,7491,buq,qns-item-noham,14,78046,0.0-1.0-0.13,65ce22701768174c8c6870c6,AWAITING REVIEW,2024-02-15T14:40:52.821000Z,2024-02-15T15:08:01.066000Z,,2024-02-15T15:08:01.692643Z,1629.0,CVPIIDEI,50,38,Male,Asian,United States,United States,United States,English,No,DATA_EXPIRED,Not Applicable
6568a71757a0ddeca59c05dc,<b>I would need to learn something utterly shocking about my party in order to change my political views.,Highly disagree,15/94,Somewhat agree,3,1708008145410,1708008154000,\Somewhat agree\,\Somewhat agree\,\3\,1708008153372,1708008153372,7962,7962,8590,buq,qns-item-noham,15,86637,0.0-1.0-0.14,65ce22701768174c8c6870c6,AWAITING REVIEW,2024-02-15T14:40:52.821000Z,2024-02-15T15:08:01.066000Z,,2024-02-15T15:08:01.692643Z,1629.0,CVPIIDEI,50,38,Male,Asian,United States,United States,United States,English,No,DATA_EXPIRED,Not Applicable
6568a71757a0ddeca59c05dc,"<b>When I have new experiences, I tend to think of them as unique.",Highly disagree,16/94,Somewhat agree,3,1708008154000,1708008164431,\Somewhat agree\,\Somewhat agree\,\3\,1708008164063,1708008164063,10063,10063,10431,buq,qns-item-noham,16,97068,0.0-1.0-0.15,65ce22701768174c8c6870c6,AWAITING REVIEW,2024-02-15T14:40:52.821000Z,2024-02-15T15:08:01.066000Z,,2024-02-15T15:08:01.692643Z,1629.0,CVPIIDEI,50,38,Male,Asian,United States,United States,United States,English,No,DATA_EXPIRED,Not Applicable
6568a71757a0ddeca59c05dc,<b>I change my mind about specific policies pretty frequently.,Highly disagree,17/94,Somewhat disagree,2,1708008164432,1708008167024,\Somewhat disagree\,\Somewhat disagree\,\2\,1708008166596,1708008166596,2164,2164,2592,buq,qns-item-noham,17,99661,0.0-1.0-0.16,65ce22701768174c8c6870c6,AWAITING REVIEW,2024-02-15T14:40:52.821000Z,2024-02-15T15:08:01.066000Z,,2024-02-15T15:08:01.692643Z,1629.0,CVPIIDEI,50,38,Male,Asian,United States,United States,United States,English,No,DATA_EXPIRED,Not Applicable
6568a71757a0ddeca59c05dc,"<b>If a politician in my political party supports something I disagree with, I give them the benefit of the doubt, as such issues often involve hidden complexities that aren?t obvious.   ",Highly disagree,18/94,Somewhat agree,3,1708008167024,1708008173688,\Somewhat agree\,\Somewhat agree\,\3\,1708008173414,1708008173414,6390,6390,6664,buq,qns-item-noham,18,106325,0.0-1.0-0.17,65ce22701768174c8c6870c6,AWAITING REVIEW,2024-02-15T14:40:52.821000Z,2024-02-15T15:08:01.066000Z,,2024-02-15T15:08:01.692643Z,1629.0,CVPIIDEI,50,38,Male,Asian,United States,United States,United States,English,No,DATA_EXPIRED,Not Applicable
6568a71757a0ddeca59c05dc,<b>People?s bad politics are usually motivated by hatefulness.,Highly disagree,19/94,Highly agree,4,1708008173689,1708008177012,\Highly agree\,\Highly agree\,\4\,1708008176652,1708008176652,2963,2963,3323,buq,qns-item-noham,19,109649,0.0-1.0-0.18,65ce22701768174c8c6870c6,AWAITING REVIEW,2024-02-15T14:40:52.821000Z,2024-02-15T15:08:01.066000Z,,2024-02-15T15:08:01.692643Z,1629.0,CVPIIDEI,50,38,Male,Asian,United States,United States,United States,English,No,DATA_EXPIRED,Not Applicable
6568a71757a0ddeca59c05dc,<b>I think a lot about how to reconcile my beliefs with one another.,Highly disagree,20/94,Somewhat agree,3,1708008177013,1708008180493,\Somewhat agree\,\Somewhat agree\,\3\,1708008180101,1708008180101,3088,3088,3480,buq,qns-item-noham,20,113130,0.0-1.0-0.19,65ce22701768174c8c6870c6,AWAITING REVIEW,2024-02-15T14:40:52.821000Z,2024-02-15T15:08:01.066000Z,,2024-02-15T15:08:01.692643Z,1629.0,CVPIIDEI,50,38,Male,Asian,United States,United States,United States,English,No,DATA_EXPIRED,Not Applicable
6568a71757a0ddeca59c05dc,<b>I might have false beliefs about important topics.,Highly disagree,21/94,Somewhat disagree,2,1708008180494,1708008185152,\Somewhat disagree\,\Somewhat disagree\,\2\,1708008184719,1708008184719,4225,4225,4658,buq,qns-item-noham,21,117789,0.0-1.0-0.20,65ce22701768174c8c6870c6,AWAITING REVIEW,2024-02-15T14:40:52.821000Z,2024-02-15T15:08:01.066000Z,,2024-02-15T15:08:01.692643Z,1629.0,CVPIIDEI,50,38,Male,Asian,United States,United States,United States,English,No,DATA_EXPIRED,Not Applicable
6568a71757a0ddeca59c05dc,"<b>If a good friend of mine does something unexpected that upsets me, I feel like I don?t know them anymore.",Highly disagree,22/94,Somewhat disagree,2,1708008185152,1708008194157,\Somewhat disagree\,\Somewhat disagree\,\2\,1708008193310,1708008193310,8158,8158,9005,buq,qns-item-noham,22,126795,0.0-1.0-0.21,65ce22701768174c8c6870c6,AWAITING REVIEW,2024-02-15T14:40:52.821000Z,2024-02-15T15:08:01.066000Z,,2024-02-15T15:08:01.692643Z,1629.0,CVPIIDEI,50,38,Male,Asian,United States,United States,United States,English,No,DATA_EXPIRED,Not Applicable
6568a71757a0ddeca59c05dc,<b>Other people?s beliefs are often incoherent.,Highly disagree,23/94,Somewhat disagree,2,1708008194158,1708008224976,\Somewhat disagree\,\Somewhat disagree\,\2\,1708008224503,1708008224503,30345,30345,30818,buq,qns-item-noham,23,157613,0.0-1.0-0.22,65ce22701768174c8c6870c6,AWAITING REVIEW,2024-02-15T14:40:52.821000Z,2024-02-15T15:08:01.066000Z,,2024-02-15T15:08:01.692643Z,1629.0,CVPIIDEI,50,38,Male,Asian,United States,United States,United States,English,No,DATA_EXPIRED,Not Applicable
6568a71757a0ddeca59c05dc,"<b>Every now and then, a new experience will unsettle beliefs I?ve had for a while.",Highly disagree,24/94,Somewhat disagree,2,1708008224977,1708008232460,\Somewhat disagree\,\Somewhat disagree\,\2\,1708008232083,1708008232083,7106,7106,7483,buq,qns-item-noham,24,165097,0.0-1.0-0.23,65ce22701768174c8c6870c6,AWAITING REVIEW,2024-02-15T14:40:52.821000Z,2024-02-15T15:08:01.066000Z,,2024-02-15T15:08:01.692643Z,1629.0,CVPIIDEI,50,38,Male,Asian,United States,United States,United States,English,No,DATA_EXPIRED,Not Applicable
6568a71757a0ddeca59c05dc,<b>Some policies I agree with in principle are so bad I don?t support them. ,Highly disagree,25/94,Somewhat disagree,2,1708008232461,1708008236291,\Somewhat disagree\,\Somewhat disagree\,\2\,1708008235761,1708008235761,3300,3300,3830,buq,qns-item-noham,25,168928,0.0-1.0-0.24,65ce22701768174c8c6870c6,AWAITING REVIEW,2024-02-15T14:40:52.821000Z,2024-02-15T15:08:01.066000Z,,2024-02-15T15:08:01.692643Z,1629.0,CVPIIDEI,50,38,Male,Asian,United States,United States,United States,English,No,DATA_EXPIRED,Not Applicable
6568a71757a0ddeca59c05dc,<b>I?m pretty sure I?ve accidentally spread false information.,Highly disagree,26/94,Somewhat disagree,2,1708008236292,1708008240525,\Somewhat disagree\,\Somewhat disagree\,\2\,1708008238745,1708008238745,2453,2453,4233,buq,qns-item-noham,26,173162,0.0-1.0-0.25,65ce22701768174c8c6870c6,AWAITING REVIEW,2024-02-15T14:40:52.821000Z,2024-02-15T15:08:01.066000Z,,2024-02-15T15:08:01.692643Z,1629.0,CVPIIDEI,50,38,Male,Asian,United States,United States,United States,English,No,DATA_EXPIRED,Not Applicable
6568a71757a0ddeca59c05dc,"<b>If I go to my favorite restaurant and the food is unexpectedly bad, then they have changed owners.",Highly disagree,27/94,Highly disagree,1,1708008240526,1708008269525,\Highly disagree\,\Highly disagree\,\1\,1708008268976,1708008268976,28450,28450,28999,buq,qns-item-noham,27,202162,0.0-1.0-0.26,65ce22701768174c8c6870c6,AWAITING REVIEW,2024-02-15T14:40:52.821000Z,2024-02-15T15:08:01.066000Z,,2024-02-15T15:08:01.692643Z,1629.0,CVPIIDEI,50,38,Male,Asian,United States,United States,United States,English,No,DATA_EXPIRED,Not Applicable
6568a71757a0ddeca59c05dc,"<b>In politics, it?s important to trust your friends and family.",Highly disagree,28/94,Somewhat agree,3,1708008269526,1708008274648,\Somewhat agree\,\Somewhat agree\,\3\,1708008274108,1708008274108,4582,4582,5122,buq,qns-item-noham,28,207285,0.0-1.0-0.27,65ce22701768174c8c6870c6,AWAITING REVIEW,2024-02-15T14:40:52.821000Z,2024-02-15T15:08:01.066000Z,,2024-02-15T15:08:01.692643Z,1629.0,CVPIIDEI,50,38,Male,Asian,United States,United States,United States,English,No,DATA_EXPIRED,Not Applicable
6568a71757a0ddeca59c05dc,<b>It?s OK to have some conflicting beliefs.,Highly disagree,29/94,Highly agree,4,1708008274649,1708008278365,\Somewhat agree\,\Highly agree\,\3\,1708008276364,1708008277984,1715,3335,3716,buq,qns-item-noham,29,211002,0.0-1.0-0.28,65ce22701768174c8c6870c6,AWAITING REVIEW,2024-02-15T14:40:52.821000Z,2024-02-15T15:08:01.066000Z,,2024-02-15T15:08:01.692643Z,1629.0,CVPIIDEI,50,38,Male,Asian,United States,United States,United States,English,No,DATA_EXPIRED,Not Applicable
6568a71757a0ddeca59c05dc,<b>Listening to people I disagree with makes my opinions better.,Highly disagree,30/94,Somewhat agree,3,1708008278366,1708008283336,\Somewhat agree\,\Somewhat agree\,\3\,1708008282938,1708008282938,4572,4572,4970,buq,qns-item-noham,30,215973,0.0-1.0-0.29,65ce22701768174c8c6870c6,AWAITING REVIEW,2024-02-15T14:40:52.821000Z,2024-02-15T15:08:01.066000Z,,2024-02-15T15:08:01.692643Z,1629.0,CVPIIDEI,50,38,Male,Asian,United States,United States,United States,English,No,DATA_EXPIRED,Not Applicable
6568a71757a0ddeca59c05dc,<b>My moral compass sometimes makes it harder to determine what?s true.,Highly disagree,31/94,Somewhat agree,3,1708008283337,1708008289576,\Somewhat agree\,\Somewhat agree\,\3\,1708008289175,1708008289175,5838,5838,6239,buq,qns-item-noham,31,222213,0.0-1.0-0.30,65ce22701768174c8c6870c6,AWAITING REVIEW,2024-02-15T14:40:52.821000Z,2024-02-15T15:08:01.066000Z,,2024-02-15T15:08:01.692643Z,1629.0,CVPIIDEI,50,38,Male,Asian,United States,United States,United States,English,No,DATA_EXPIRED,Not Applicable
6568a71757a0ddeca59c05dc,<b>Evidence pointing in the wrong direction isn?t really evidence at all.,Highly disagree,32/94,Somewhat agree,3,1708008289577,1708008294415,\Somewhat agree\,\Somewhat agree\,\3\,1708008294122,1708008294122,4545,4545,4838,buq,qns-item-noham,32,227052,0.0-1.0-0.31,65ce22701768174c8c6870c6,AWAITING REVIEW,2024-02-15T14:40:52.821000Z,2024-02-15T15:08:01.066000Z,,2024-02-15T15:08:01.692643Z,1629.0,CVPIIDEI,50,38,Male,Asian,United States,United States,United States,English,No,DATA_EXPIRED,Not Applicable
6568a71757a0ddeca59c05dc,"<b>If the political party I support messes up, it makes me think politics is rotten.",Highly disagree,33/94,Somewhat agree,3,1708008294416,1708008297985,\Somewhat agree\,\Somewhat agree\,\3\,1708008297667,1708008297667,3251,3251,3569,buq,qns-item-noham,33,230622,0.0-1.0-0.32,65ce22701768174c8c6870c6,AWAITING REVIEW,2024-02-15T14:40:52.821000Z,2024-02-15T15:08:01.066000Z,,2024-02-15T15:08:01.692643Z,1629.0,CVPIIDEI,50,38,Male,Asian,United States,United States,United States,English,No,DATA_EXPIRED,Not Applicable
6568a71757a0ddeca59c05dc,<b>Lots of important topics can only really be understood by some groups of people.,Highly disagree,34/94,Somewhat agree,3,1708008297986,1708008303372,\Somewhat agree\,\Somewhat agree\,\3\,1708008303038,1708008303038,5052,5052,5386,buq,qns-item-noham,34,236009,0.0-1.0-0.33,65ce22701768174c8c6870c6,AWAITING REVIEW,2024-02-15T14:40:52.821000Z,2024-02-15T15:08:01.066000Z,,2024-02-15T15:08:01.692643Z,1629.0,CVPIIDEI,50,38,Male,Asian,United States,United States,United States,English,No,DATA_EXPIRED,Not Applicable
6568a71757a0ddeca59c05dc,<b>Having conflicting beliefs means you haven?t thought about them enough.,Highly disagree,35/94,Somewhat disagree,2,1708008303373,1708008321559,\Somewhat disagree\,\Somewhat disagree\,\2\,1708008321108,1708008321108,17735,17735,18186,buq,qns-item-noham,35,254196,0.0-1.0-0.34,65ce22701768174c8c6870c6,AWAITING REVIEW,2024-02-15T14:40:52.821000Z,2024-02-15T15:08:01.066000Z,,2024-02-15T15:08:01.692643Z,1629.0,CVPIIDEI,50,38,Male,Asian,United States,United States,United States,English,No,DATA_EXPIRED,Not Applicable
6568a71757a0ddeca59c05dc,<b>I do not often change my political opinions.,Highly disagree,36/94,Somewhat agree,3,1708008321560,1708008324582,\Somewhat agree\,\Somewhat agree\,\3\,1708008324248,1708008324248,2688,2688,3022,buq,qns-item-noham,36,257219,0.0-1.0-0.35,65ce22701768174c8c6870c6,AWAITING REVIEW,2024-02-15T14:40:52.821000Z,2024-02-15T15:08:01.066000Z,,2024-02-15T15:08:01.692643Z,1629.0,CVPIIDEI,50,38,Male,Asian,United States,United States,United States,English,No,DATA_EXPIRED,Not Applicable
6568a71757a0ddeca59c05dc,<b>It?s difficult to not have at least some conflicting beliefs.,Highly disagree,37/94,Somewhat agree,3,1708008324583,1708008419661,\Somewhat agree\,\Somewhat agree\,\3\,1708008419319,1708008419319,94736,94736,95078,buq,qns-item-noham,37,352298,0.0-1.0-0.36,65ce22701768174c8c6870c6,AWAITING REVIEW,2024-02-15T14:40:52.821000Z,2024-02-15T15:08:01.066000Z,,2024-02-15T15:08:01.692643Z,1629.0,CVPIIDEI,50,38,Male,Asian,United States,United States,United States,English,No,DATA_EXPIRED,Not Applicable
6568a71757a0ddeca59c05dc,<b>Wishful thinking causes a lot of problems.,Highly disagree,38/94,Somewhat disagree,2,1708008419662,1708008422829,\Somewhat disagree\,\Somewhat disagree\,\2\,1708008422527,1708008422527,2865,2865,3167,buq,qns-item-noham,38,355466,0.0-1.0-0.37,65ce22701768174c8c6870c6,AWAITING REVIEW,2024-02-15T14:40:52.821000Z,2024-02-15T15:08:01.066000Z,,2024-02-15T15:08:01.692643Z,1629.0,CVPIIDEI,50,38,Male,Asian,United States,United States,United States,English,No,DATA_EXPIRED,Not Applicable
6568a71757a0ddeca59c05dc,<b>I judge a food item only once I try it many times.,Highly disagree,39/94,Somewhat agree,3,1708008422830,1708008430694,\Somewhat agree\,\Somewhat agree\,\3\,1708008430400,1708008430400,7570,7570,7864,buq,qns-item-noham,39,363331,0.0-1.0-0.38,65ce22701768174c8c6870c6,AWAITING REVIEW,2024-02-15T14:40:52.821000Z,2024-02-15T15:08:01.066000Z,,2024-02-15T15:08:01.692643Z,1629.0,CVPIIDEI,50,38,Male,Asian,United States,United States,United States,English,No,DATA_EXPIRED,Not Applicable
6568a71757a0ddeca59c05dc,"<b>When a person holds conflicting beliefs, they should really try to figure out what?s wrong.",Highly disagree,40/94,Highly agree,4,1708008430695,1708008434982,\Highly agree\,\Highly agree\,\4\,1708008434456,1708008434456,3761,3761,4287,buq,qns-item-noham,40,367619,0.0-1.0-0.39,65ce22701768174c8c6870c6,AWAITING REVIEW,2024-02-15T14:40:52.821000Z,2024-02-15T15:08:01.066000Z,,2024-02-15T15:08:01.692643Z,1629.0,CVPIIDEI,50,38,Male,Asian,United States,United States,United States,English,No,DATA_EXPIRED,Not Applicable
6568a71757a0ddeca59c05dc,<b>Knowing what?s important in life is easy.,Highly disagree,41/94,Somewhat agree,3,1708008434982,1708008437776,\Highly agree\,\Somewhat agree\,\4\,1708008436729,1708008437417,1747,2435,2794,buq,qns-item-noham,41,370414,0.0-1.0-0.40,65ce22701768174c8c6870c6,AWAITING REVIEW,2024-02-15T14:40:52.821000Z,2024-02-15T15:08:01.066000Z,,2024-02-15T15:08:01.692643Z,1629.0,CVPIIDEI,50,38,Male,Asian,United States,United States,United States,English,No,DATA_EXPIRED,Not Applicable
6568a71757a0ddeca59c05dc,<b>I swim across the Atlantic Ocean to get to work every day.,Highly disagree,42/94,Highly disagree,1,1708008437777,1708008443046,\Highly disagree\,\Highly disagree\,\1\,1708008441275,1708008441275,3498,3498,5269,buq,qns-item-noham,42,375683,0.0-1.0-0.41,65ce22701768174c8c6870c6,AWAITING REVIEW,2024-02-15T14:40:52.821000Z,2024-02-15T15:08:01.066000Z,,2024-02-15T15:08:01.692643Z,1629.0,CVPIIDEI,50,38,Male,Asian,United States,United States,United States,English,No,DATA_EXPIRED,Not Applicable
6568a71757a0ddeca59c05dc,"<b>Sometimes, you just have to ignore evidence that you know is wrong.",Highly disagree,43/94,Somewhat agree,3,1708008443047,1708008448342,\Somewhat agree\,\Somewhat agree\,\3\,1708008446685,1708008446685,3638,3638,5295,buq,qns-item-noham,43,380979,0.0-1.0-0.42,65ce22701768174c8c6870c6,AWAITING REVIEW,2024-02-15T14:40:52.821000Z,2024-02-15T15:08:01.066000Z,,2024-02-15T15:08:01.692643Z,1629.0,CVPIIDEI,50,38,Male,Asian,United States,United States,United States,English,No,DATA_EXPIRED,Not Applicable
6568a71757a0ddeca59c05dc,<b>I have had some false beliefs.,Highly disagree,44/94,Somewhat agree,3,1708008448342,1708008474042,\Somewhat agree\,\Somewhat agree\,\3\,1708008473770,1708008473770,25428,25428,25700,buq,qns-item-noham,44,406679,0.0-1.0-0.43,65ce22701768174c8c6870c6,AWAITING REVIEW,2024-02-15T14:40:52.821000Z,2024-02-15T15:08:01.066000Z,,2024-02-15T15:08:01.692643Z,1629.0,CVPIIDEI,50,38,Male,Asian,United States,United States,United States,English,No,DATA_EXPIRED,Not Applicable
6568a71757a0ddeca59c05dc,"<b>If one friend does something that upsets me, I sometimes start to distrust people in general.",Highly disagree,45/94,Somewhat agree,3,1708008474043,1708008492526,\Somewhat agree\,\Somewhat agree\,\3\,1708008492178,1708008492178,18135,18135,18483,buq,qns-item-noham,45,425163,0.0-1.0-0.44,65ce22701768174c8c6870c6,AWAITING REVIEW,2024-02-15T14:40:52.821000Z,2024-02-15T15:08:01.066000Z,,2024-02-15T15:08:01.692643Z,1629.0,CVPIIDEI,50,38,Male,Asian,United States,United States,United States,English,No,DATA_EXPIRED,Not Applicable
6568a71757a0ddeca59c05dc,<b>The facts about most important matters are easy to find.,Highly disagree,46/94,Somewhat agree,3,1708008492526,1708008498871,\Highly agree\,\Somewhat agree\,\4\,1708008497348,1708008498479,4822,5953,6345,buq,qns-item-noham,46,431508,0.0-1.0-0.45,65ce22701768174c8c6870c6,AWAITING REVIEW,2024-02-15T14:40:52.821000Z,2024-02-15T15:08:01.066000Z,,2024-02-15T15:08:01.692643Z,1629.0,CVPIIDEI,50,38,Male,Asian,United States,United States,United States,English,No,DATA_EXPIRED,Not Applicable
6568a71757a0ddeca59c05dc,<b>It?s better to know what?s true than to know what?s moral.,Highly disagree,47/94,Somewhat agree,3,1708008498872,1708008509685,\Somewhat agree\,\Somewhat agree\,\3\,1708008504178,1708008509407,5306,10535,10813,buq,qns-item-noham,47,442322,0.0-1.0-0.46,65ce22701768174c8c6870c6,AWAITING REVIEW,2024-02-15T14:40:52.821000Z,2024-02-15T15:08:01.066000Z,,2024-02-15T15:08:01.692643Z,1629.0,CVPIIDEI,50,38,Male,Asian,United States,United States,United States,English,No,DATA_EXPIRED,Not Applicable
6568a71757a0ddeca59c05dc,<b>I used to think the world was less complicated than I do now.,Highly disagree,48/94,Highly agree,4,1708008509685,1708008785340,\Highly agree\,\Highly agree\,\4\,1708008784894,1708008784894,275209,275209,275655,buq,qns-item-noham,48,717977,0.0-1.0-0.47,65ce22701768174c8c6870c6,AWAITING REVIEW,2024-02-15T14:40:52.821000Z,2024-02-15T15:08:01.066000Z,,2024-02-15T15:08:01.692643Z,1629.0,CVPIIDEI,50,38,Male,Asian,United States,United States,United States,English,No,DATA_EXPIRED,Not Applicable
6568a71757a0ddeca59c05dc,<b>People are usually completely right or completely wrong.,Highly disagree,49/94,Highly disagree,1,1708008785341,1708008788604,\Highly disagree\,\Highly disagree\,\1\,1708008788226,1708008788226,2885,2885,3263,buq,qns-item-noham,49,721241,0.0-1.0-0.48,65ce22701768174c8c6870c6,AWAITING REVIEW,2024-02-15T14:40:52.821000Z,2024-02-15T15:08:01.066000Z,,2024-02-15T15:08:01.692643Z,1629.0,CVPIIDEI,50,38,Male,Asian,United States,United States,United States,English,No,DATA_EXPIRED,Not Applicable
6568a71757a0ddeca59c05dc,<b>I spend a lot of time considering alternatives to my beliefs.,Highly disagree,50/94,Somewhat disagree,2,1708008788605,1708008791964,\Somewhat disagree\,\Somewhat disagree\,\2\,1708008791673,1708008791673,3068,3068,3359,buq,qns-item-noham,50,724601,0.0-1.0-0.49,65ce22701768174c8c6870c6,AWAITING REVIEW,2024-02-15T14:40:52.821000Z,2024-02-15T15:08:01.066000Z,,2024-02-15T15:08:01.692643Z,1629.0,CVPIIDEI,50,38,Male,Asian,United States,United States,United States,English,No,DATA_EXPIRED,Not Applicable
6568a71757a0ddeca59c05dc,"<b>Political enemies need to be defeated, not convinced.",Highly disagree,51/94,Somewhat disagree,2,1708008791965,1708008798096,\Somewhat disagree\,\Somewhat disagree\,\2\,1708008797814,1708008797814,5849,5849,6131,buq,qns-item-noham,51,730733,0.0-1.0-0.50,65ce22701768174c8c6870c6,AWAITING REVIEW,2024-02-15T14:40:52.821000Z,2024-02-15T15:08:01.066000Z,,2024-02-15T15:08:01.692643Z,1629.0,CVPIIDEI,50,38,Male,Asian,United States,United States,United States,English,No,DATA_EXPIRED,Not Applicable
6568a71757a0ddeca59c05dc,<b>I form my political views only after meticulously gathering historical and present information about their policies.,Highly disagree,52/94,Somewhat agree,3,1708008798097,1708008807674,\Somewhat agree\,\Somewhat agree\,\3\,1708008807403,1708008807403,9306,9306,9577,buq,qns-item-noham,52,740311,0.0-1.0-0.51,65ce22701768174c8c6870c6,AWAITING REVIEW,2024-02-15T14:40:52.821000Z,2024-02-15T15:08:01.066000Z,,2024-02-15T15:08:01.692643Z,1629.0,CVPIIDEI,50,38,Male,Asian,United States,United States,United States,English,No,DATA_EXPIRED,Not Applicable
6568a71757a0ddeca59c05dc,<b>It is difficult for me to remember the last time I was surprised by politics.,Highly disagree,53/94,Somewhat agree,3,1708008807675,1708008811143,\Somewhat agree\,\Somewhat agree\,\3\,1708008810763,1708008810763,3088,3088,3468,buq,qns-item-noham,53,743780,0.0-1.0-0.52,65ce22701768174c8c6870c6,AWAITING REVIEW,2024-02-15T14:40:52.821000Z,2024-02-15T15:08:01.066000Z,,2024-02-15T15:08:01.692643Z,1629.0,CVPIIDEI,50,38,Male,Asian,United States,United States,United States,English,No,DATA_EXPIRED,Not Applicable
6568a71757a0ddeca59c05dc,"<b>When I find out I?m wrong, I think a lot about my related beliefs.",Highly disagree,54/94,Somewhat agree,3,1708008811144,1708008814467,\Somewhat agree\,\Somewhat agree\,\3\,1708008814149,1708008814149,3005,3005,3323,buq,qns-item-noham,54,747104,0.0-1.0-0.53,65ce22701768174c8c6870c6,AWAITING REVIEW,2024-02-15T14:40:52.821000Z,2024-02-15T15:08:01.066000Z,,2024-02-15T15:08:01.692643Z,1629.0,CVPIIDEI,50,38,Male,Asian,United States,United States,United States,English,No,DATA_EXPIRED,Not Applicable
6568a71757a0ddeca59c05dc,"<b>If the political party I support messes up, it makes me think you can?t trust anyone these days",Highly disagree,55/94,Somewhat agree,3,1708008814468,1708008828031,\Somewhat agree\,\Somewhat agree\,\3\,1708008825602,1708008825602,11134,11134,13563,buq,qns-item-noham,55,760668,0.0-1.0-0.54,65ce22701768174c8c6870c6,AWAITING REVIEW,2024-02-15T14:40:52.821000Z,2024-02-15T15:08:01.066000Z,,2024-02-15T15:08:01.692643Z,1629.0,CVPIIDEI,50,38,Male,Asian,United States,United States,United States,English,No,DATA_EXPIRED,Not Applicable
6568a71757a0ddeca59c05dc,<b>People?s brains turn off when they talk about politics.,Highly disagree,56/94,Somewhat disagree,2,1708008828032,1708008834013,\Somewhat disagree\,\Somewhat disagree\,\2\,1708008833464,1708008833464,5432,5432,5981,buq,qns-item-noham,56,766650,0.0-1.0-0.55,65ce22701768174c8c6870c6,AWAITING REVIEW,2024-02-15T14:40:52.821000Z,2024-02-15T15:08:01.066000Z,,2024-02-15T15:08:01.692643Z,1629.0,CVPIIDEI,50,38,Male,Asian,United States,United States,United States,English,No,DATA_EXPIRED,Not Applicable
6568a71757a0ddeca59c05dc,<b>People who are wrong are usually just ignoring the obvious.,Highly disagree,57/94,Somewhat agree,3,1708008834014,1708008837045,\Somewhat agree\,\Somewhat agree\,\3\,1708008836774,1708008836774,2760,2760,3031,buq,qns-item-noham,57,769682,0.0-1.0-0.56,65ce22701768174c8c6870c6,AWAITING REVIEW,2024-02-15T14:40:52.821000Z,2024-02-15T15:08:01.066000Z,,2024-02-15T15:08:01.692643Z,1629.0,CVPIIDEI,50,38,Male,Asian,United States,United States,United States,English,No,DATA_EXPIRED,Not Applicable
6568a71757a0ddeca59c05dc,"<b>When forming my views on people, I rely more on what they are like now rather than rely on my past experience with them.",Highly disagree,58/94,Somewhat disagree,2,1708008837046,1708008896936,\Somewhat disagree\,\Somewhat disagree\,\2\,1708008895944,1708008896173,58898,59127,59890,buq,qns-item-noham,58,829573,0.0-1.0-0.57,65ce22701768174c8c6870c6,AWAITING REVIEW,2024-02-15T14:40:52.821000Z,2024-02-15T15:08:01.066000Z,,2024-02-15T15:08:01.692643Z,1629.0,CVPIIDEI,50,38,Male,Asian,United States,United States,United States,English,No,DATA_EXPIRED,Not Applicable
6568a71757a0ddeca59c05dc,"<b>When people contradict my beliefs, I usually know about their evidence already.",Highly disagree,59/94,Somewhat agree,3,1708008896937,1708009113944,\Somewhat agree\,\Somewhat agree\,\3\,1708009113594,1708009113594,216657,216657,217007,buq,qns-item-noham,59,1046581,0.0-1.0-0.58,65ce22701768174c8c6870c6,AWAITING REVIEW,2024-02-15T14:40:52.821000Z,2024-02-15T15:08:01.066000Z,,2024-02-15T15:08:01.692643Z,1629.0,CVPIIDEI,50,38,Male,Asian,United States,United States,United States,English,No,DATA_EXPIRED,Not Applicable
6568a71757a0ddeca59c05dc,<b>Figuring out what?s true and what?s false mainly requires a strong moral compass.,Highly disagree,60/94,Somewhat agree,3,1708009113944,1708009117394,\Somewhat agree\,\Somewhat agree\,\3\,1708009117061,1708009117061,3117,3117,3450,buq,qns-item-noham,60,1050031,0.0-1.0-0.59,65ce22701768174c8c6870c6,AWAITING REVIEW,2024-02-15T14:40:52.821000Z,2024-02-15T15:08:01.066000Z,,2024-02-15T15:08:01.692643Z,1629.0,CVPIIDEI,50,38,Male,Asian,United States,United States,United States,English,No,DATA_EXPIRED,Not Applicable
6568a71757a0ddeca59c05dc,"<b>Usually I?m wrong about simple things, not complicated ones.",Highly disagree,61/94,Somewhat disagree,2,1708009117394,1708009122249,\Somewhat disagree\,\Somewhat disagree\,\2\,1708009121929,1708009121929,4535,4535,4855,buq,qns-item-noham,61,1054886,0.0-1.0-0.60,65ce22701768174c8c6870c6,AWAITING REVIEW,2024-02-15T14:40:52.821000Z,2024-02-15T15:08:01.066000Z,,2024-02-15T15:08:01.692643Z,1629.0,CVPIIDEI,50,38,Male,Asian,United States,United States,United States,English,No,DATA_EXPIRED,Not Applicable
6568a71757a0ddeca59c05dc,<b>Getting all the information I want about important things is hard.,Highly disagree,62/94,Somewhat agree,3,1708009122249,1708009127295,\Somewhat agree\,\Somewhat agree\,\3\,1708009124961,1708009124961,2712,2712,5046,buq,qns-item-noham,62,1059932,0.0-1.0-0.61,65ce22701768174c8c6870c6,AWAITING REVIEW,2024-02-15T14:40:52.821000Z,2024-02-15T15:08:01.066000Z,,2024-02-15T15:08:01.692643Z,1629.0,CVPIIDEI,50,38,Male,Asian,United States,United States,United States,English,No,DATA_EXPIRED,Not Applicable
6568a71757a0ddeca59c05dc,<b>Most false beliefs spread because people try to deceive one another.,Highly disagree,63/94,Somewhat agree,3,1708009127295,1708009130865,\Somewhat agree\,\Somewhat agree\,\3\,1708009129893,1708009129893,2598,2598,3570,buq,qns-item-noham,63,1063502,0.0-1.0-0.62,65ce22701768174c8c6870c6,AWAITING REVIEW,2024-02-15T14:40:52.821000Z,2024-02-15T15:08:01.066000Z,,2024-02-15T15:08:01.692643Z,1629.0,CVPIIDEI,50,38,Male,Asian,United States,United States,United States,English,No,DATA_EXPIRED,Not Applicable
6568a71757a0ddeca59c05dc,<b>I can usually find something to agree with in most people?s beliefs.,Highly disagree,64/94,Somewhat agree,3,1708009130865,1708009134006,\Somewhat agree\,\Somewhat agree\,\3\,1708009133750,1708009133750,2885,2885,3141,buq,qns-item-noham,64,1066643,0.0-1.0-0.63,65ce22701768174c8c6870c6,AWAITING REVIEW,2024-02-15T14:40:52.821000Z,2024-02-15T15:08:01.066000Z,,2024-02-15T15:08:01.692643Z,1629.0,CVPIIDEI,50,38,Male,Asian,United States,United States,United States,English,No,DATA_EXPIRED,Not Applicable
6568a71757a0ddeca59c05dc,<b>I only form my views of people once I get to know them very well.,Highly disagree,65/94,Somewhat agree,3,1708009134006,1708009138613,\Somewhat agree\,\Somewhat agree\,\3\,1708009137318,1708009137318,3312,3312,4607,buq,qns-item-noham,65,1071250,0.0-1.0-0.64,65ce22701768174c8c6870c6,AWAITING REVIEW,2024-02-15T14:40:52.821000Z,2024-02-15T15:08:01.066000Z,,2024-02-15T15:08:01.692643Z,1629.0,CVPIIDEI,50,38,Male,Asian,United States,United States,United States,English,No,DATA_EXPIRED,Not Applicable
6568a71757a0ddeca59c05dc,"<b>When people tell me important things about the world, I usually believe them.",Highly disagree,66/94,Somewhat agree,3,1708009138613,1708009143211,\Somewhat agree\,\Somewhat agree\,\3\,1708009142103,1708009142103,3490,3490,4598,buq,qns-item-noham,66,1075848,0.0-1.0-0.65,65ce22701768174c8c6870c6,AWAITING REVIEW,2024-02-15T14:40:52.821000Z,2024-02-15T15:08:01.066000Z,,2024-02-15T15:08:01.692643Z,1629.0,CVPIIDEI,50,38,Male,Asian,United States,United States,United States,English,No,DATA_EXPIRED,Not Applicable
6568a71757a0ddeca59c05dc,"<b>If a friend does something that upsets me, it reminds me what an unpredictable place the world is.",Highly disagree,67/94,Somewhat agree,3,1708009143212,1708009146805,\Somewhat agree\,\Somewhat agree\,\3\,1708009146526,1708009146526,3314,3314,3593,buq,qns-item-noham,67,1079442,0.0-1.0-0.66,65ce22701768174c8c6870c6,AWAITING REVIEW,2024-02-15T14:40:52.821000Z,2024-02-15T15:08:01.066000Z,,2024-02-15T15:08:01.692643Z,1629.0,CVPIIDEI,50,38,Male,Asian,United States,United States,United States,English,No,DATA_EXPIRED,Not Applicable
6568a71757a0ddeca59c05dc,<b>People tend to believe whatever is good for their friends.,Highly disagree,68/94,Somewhat agree,3,1708009146805,1708009150823,\Somewhat agree\,\Somewhat agree\,\3\,1708009149995,1708009149995,3190,3190,4018,buq,qns-item-noham,68,1083460,0.0-1.0-0.67,65ce22701768174c8c6870c6,AWAITING REVIEW,2024-02-15T14:40:52.821000Z,2024-02-15T15:08:01.066000Z,,2024-02-15T15:08:01.692643Z,1629.0,CVPIIDEI,50,38,Male,Asian,United States,United States,United States,English,No,DATA_EXPIRED,Not Applicable
6568a71757a0ddeca59c05dc,<b>I used to be more certain my beliefs were true.,Highly disagree,69/94,Somewhat agree,3,1708009150823,1708009155168,\Somewhat agree\,\Somewhat agree\,\3\,1708009154122,1708009154122,3299,3299,4345,buq,qns-item-noham,69,1087806,0.0-1.0-0.68,65ce22701768174c8c6870c6,AWAITING REVIEW,2024-02-15T14:40:52.821000Z,2024-02-15T15:08:01.066000Z,,2024-02-15T15:08:01.692643Z,1629.0,CVPIIDEI,50,38,Male,Asian,United States,United States,United States,English,No,DATA_EXPIRED,Not Applicable
6568a71757a0ddeca59c05dc,<b>It?s often pretty easy to figure out whether something is true based on who said it.,Highly disagree,70/94,Somewhat agree,3,1708009155169,1708009158866,\Somewhat agree\,\Somewhat agree\,\3\,1708009158471,1708009158471,3302,3302,3697,buq,qns-item-noham,70,1091503,0.0-1.0-0.69,65ce22701768174c8c6870c6,AWAITING REVIEW,2024-02-15T14:40:52.821000Z,2024-02-15T15:08:01.066000Z,,2024-02-15T15:08:01.692643Z,1629.0,CVPIIDEI,50,38,Male,Asian,United States,United States,United States,English,No,DATA_EXPIRED,Not Applicable
6568a71757a0ddeca59c05dc,<b>I transform into a hummingbird every day.,Highly disagree,71/94,Highly disagree,1,1708009158867,1708009221008,\Highly disagree\,\Highly disagree\,\1\,1708009219850,1708009219850,60983,60983,62141,buq,qns-item-noham,71,1153645,0.0-1.0-0.70,65ce22701768174c8c6870c6,AWAITING REVIEW,2024-02-15T14:40:52.821000Z,2024-02-15T15:08:01.066000Z,,2024-02-15T15:08:01.692643Z,1629.0,CVPIIDEI,50,38,Male,Asian,United States,United States,United States,English,No,DATA_EXPIRED,Not Applicable
6568a71757a0ddeca59c05dc,<b>I think a lot about arguments against my views.,Highly disagree,72/94,Somewhat agree,3,1708009221009,1708009225994,\Somewhat agree\,\Somewhat agree\,\3\,1708009225610,1708009225610,4601,4601,4985,buq,qns-item-noham,72,1158631,0.0-1.0-0.71,65ce22701768174c8c6870c6,AWAITING REVIEW,2024-02-15T14:40:52.821000Z,2024-02-15T15:08:01.066000Z,,2024-02-15T15:08:01.692643Z,1629.0,CVPIIDEI,50,38,Male,Asian,United States,United States,United States,English,No,DATA_EXPIRED,Not Applicable
6568a71757a0ddeca59c05dc,<b>Personal experience is usually more important than facts and figures.,Highly disagree,73/94,Somewhat disagree,2,1708009225995,1708009272881,\Somewhat disagree\,\Somewhat disagree\,\2\,1708009271007,1708009271007,45012,45012,46886,buq,qns-item-noham,73,1205518,0.0-1.0-0.72,65ce22701768174c8c6870c6,AWAITING REVIEW,2024-02-15T14:40:52.821000Z,2024-02-15T15:08:01.066000Z,,2024-02-15T15:08:01.692643Z,1629.0,CVPIIDEI,50,38,Male,Asian,United States,United States,United States,English,No,DATA_EXPIRED,Not Applicable
6568a71757a0ddeca59c05dc,<b>I?ve been tricked before about important matters.,Highly disagree,74/94,Somewhat disagree,2,1708009272882,1708009276012,\Somewhat disagree\,\Somewhat disagree\,\2\,1708009274957,1708009274957,2075,2075,3130,buq,qns-item-noham,74,1208649,0.0-1.0-0.73,65ce22701768174c8c6870c6,AWAITING REVIEW,2024-02-15T14:40:52.821000Z,2024-02-15T15:08:01.066000Z,,2024-02-15T15:08:01.692643Z,1629.0,CVPIIDEI,50,38,Male,Asian,United States,United States,United States,English,No,DATA_EXPIRED,Not Applicable
6568a71757a0ddeca59c05dc,<b>I would need to be totally wowed if I were to change my opinion of a restaurant I don?t like.,Highly disagree,75/94,Somewhat agree,3,1708009276013,1708009281398,\Somewhat agree\,\Somewhat agree\,\3\,1708009279384,1708009279384,3371,3371,5385,buq,qns-item-noham,75,1214035,0.0-1.0-0.74,65ce22701768174c8c6870c6,AWAITING REVIEW,2024-02-15T14:40:52.821000Z,2024-02-15T15:08:01.066000Z,,2024-02-15T15:08:01.692643Z,1629.0,CVPIIDEI,50,38,Male,Asian,United States,United States,United States,English,No,DATA_EXPIRED,Not Applicable
6568a71757a0ddeca59c05dc,<b>I care a lot about politics.,Highly disagree,76/94,Highly disagree,1,1708009281399,1708009284586,\Somewhat disagree\,\Highly disagree\,\2\,1708009283140,1708009283418,1741,2019,3187,buq,qns-item-noham,76,1217223,0.0-1.0-0.75,65ce22701768174c8c6870c6,AWAITING REVIEW,2024-02-15T14:40:52.821000Z,2024-02-15T15:08:01.066000Z,,2024-02-15T15:08:01.692643Z,1629.0,CVPIIDEI,50,38,Male,Asian,United States,United States,United States,English,No,DATA_EXPIRED,Not Applicable
6568a71757a0ddeca59c05dc,<b>There are some topics I?ve been really wrong about.,Highly disagree,77/94,Somewhat agree,3,1708009284587,1708009287609,\Somewhat agree\,\Somewhat agree\,\3\,1708009287362,1708009287362,2775,2775,3022,buq,qns-item-noham,77,1220246,0.0-1.0-0.76,65ce22701768174c8c6870c6,AWAITING REVIEW,2024-02-15T14:40:52.821000Z,2024-02-15T15:08:01.066000Z,,2024-02-15T15:08:01.692643Z,1629.0,CVPIIDEI,50,38,Male,Asian,United States,United States,United States,English,No,DATA_EXPIRED,Not Applicable
6568a71757a0ddeca59c05dc,<b>Most beliefs can be supported with at least some evidence.,Highly disagree,78/94,Somewhat agree,3,1708009287610,1708009601158,\Somewhat agree\,\Somewhat agree\,\3\,1708009600777,1708009600777,313167,313167,313548,buq,qns-item-noham,78,1533795,0.0-1.0-0.77,65ce22701768174c8c6870c6,AWAITING REVIEW,2024-02-15T14:40:52.821000Z,2024-02-15T15:08:01.066000Z,,2024-02-15T15:08:01.692643Z,1629.0,CVPIIDEI,50,38,Male,Asian,United States,United States,United States,English,No,DATA_EXPIRED,Not Applicable
6568a71757a0ddeca59c05dc,<b>Other people make life out to be more complicated than it really is.,Highly disagree,79/94,Somewhat agree,3,1708009601159,1708009606773,\Somewhat agree\,\Somewhat agree\,\3\,1708009606439,1708009606439,5280,5280,5614,buq,qns-item-noham,79,1539410,0.0-1.0-0.78,65ce22701768174c8c6870c6,AWAITING REVIEW,2024-02-15T14:40:52.821000Z,2024-02-15T15:08:01.066000Z,,2024-02-15T15:08:01.692643Z,1629.0,CVPIIDEI,50,38,Male,Asian,United States,United States,United States,English,No,DATA_EXPIRED,Not Applicable
6568a71757a0ddeca59c05dc,"<b>Policy details don?t matter much, just the big picture.",Highly disagree,80/94,Somewhat disagree,2,1708009606774,1708009609720,\Somewhat disagree\,\Somewhat disagree\,\2\,1708009609410,1708009609410,2636,2636,2946,buq,qns-item-noham,80,1542357,0.0-1.0-0.79,65ce22701768174c8c6870c6,AWAITING REVIEW,2024-02-15T14:40:52.821000Z,2024-02-15T15:08:01.066000Z,,2024-02-15T15:08:01.692643Z,1629.0,CVPIIDEI,50,38,Male,Asian,United States,United States,United States,English,No,DATA_EXPIRED,Not Applicable
6568a71757a0ddeca59c05dc,<b>I know my friends so well they can hardly ever surprise me.,Highly disagree,81/94,Somewhat disagree,2,1708009609721,1708009614072,\Somewhat disagree\,\Somewhat disagree\,\2\,1708009612684,1708009612684,2963,2963,4351,buq,qns-item-noham,81,1546709,0.0-1.0-0.80,65ce22701768174c8c6870c6,AWAITING REVIEW,2024-02-15T14:40:52.821000Z,2024-02-15T15:08:01.066000Z,,2024-02-15T15:08:01.692643Z,1629.0,CVPIIDEI,50,38,Male,Asian,United States,United States,United States,English,No,DATA_EXPIRED,Not Applicable
6568a71757a0ddeca59c05dc,<b>I do not often change my views on people.,Highly disagree,82/94,Somewhat disagree,2,1708009614073,1708009617315,\Somewhat disagree\,\Somewhat disagree\,\2\,1708009617034,1708009617034,2961,2961,3242,buq,qns-item-noham,82,1549952,0.0-1.0-0.81,65ce22701768174c8c6870c6,AWAITING REVIEW,2024-02-15T14:40:52.821000Z,2024-02-15T15:08:01.066000Z,,2024-02-15T15:08:01.692643Z,1629.0,CVPIIDEI,50,38,Male,Asian,United States,United States,United States,English,No,DATA_EXPIRED,Not Applicable
6568a71757a0ddeca59c05dc,<b>I?m more certain about my beliefs than I used to be.,Highly disagree,83/94,Somewhat agree,3,1708009617316,1708009620019,\Somewhat agree\,\Somewhat agree\,\3\,1708009619761,1708009619761,2445,2445,2703,buq,qns-item-noham,83,1552656,0.0-1.0-0.82,65ce22701768174c8c6870c6,AWAITING REVIEW,2024-02-15T14:40:52.821000Z,2024-02-15T15:08:01.066000Z,,2024-02-15T15:08:01.692643Z,1629.0,CVPIIDEI,50,38,Male,Asian,United States,United States,United States,English,No,DATA_EXPIRED,Not Applicable
6568a71757a0ddeca59c05dc,<b>People often tell falsehoods unintentionally.,Highly disagree,84/94,Somewhat agree,3,1708009620020,1708009624831,\Somewhat agree\,\Somewhat agree\,\3\,1708009623819,1708009623819,3799,3799,4811,buq,qns-item-noham,84,1557468,0.0-1.0-0.83,65ce22701768174c8c6870c6,AWAITING REVIEW,2024-02-15T14:40:52.821000Z,2024-02-15T15:08:01.066000Z,,2024-02-15T15:08:01.692643Z,1629.0,CVPIIDEI,50,38,Male,Asian,United States,United States,United States,English,No,DATA_EXPIRED,Not Applicable
6568a71757a0ddeca59c05dc,<b>Most people don?t know much about most things.,Highly disagree,85/94,Somewhat agree,3,1708009624832,1708009628719,\Somewhat agree\,\Somewhat agree\,\3\,1708009628427,1708009628427,3595,3595,3887,buq,qns-item-noham,85,1561356,0.0-1.0-0.84,65ce22701768174c8c6870c6,AWAITING REVIEW,2024-02-15T14:40:52.821000Z,2024-02-15T15:08:01.066000Z,,2024-02-15T15:08:01.692643Z,1629.0,CVPIIDEI,50,38,Male,Asian,United States,United States,United States,English,No,DATA_EXPIRED,Not Applicable
6568a71757a0ddeca59c05dc,"<b>If I find out something new about someone, I easily change my views about them.",Highly disagree,86/94,Somewhat disagree,2,1708009628720,1708009634775,\Somewhat disagree\,\Somewhat disagree\,\2\,1708009634538,1708009634538,5818,5818,6055,buq,qns-item-noham,86,1567412,0.0-1.0-0.85,65ce22701768174c8c6870c6,AWAITING REVIEW,2024-02-15T14:40:52.821000Z,2024-02-15T15:08:01.066000Z,,2024-02-15T15:08:01.692643Z,1629.0,CVPIIDEI,50,38,Male,Asian,United States,United States,United States,English,No,DATA_EXPIRED,Not Applicable
6568a71757a0ddeca59c05dc,<b>Having true beliefs is difficult.,Highly disagree,87/94,Somewhat agree,3,1708009634776,1708009636929,\Somewhat agree\,\Somewhat agree\,\3\,1708009636659,1708009636659,1883,1883,2153,buq,qns-item-noham,87,1569566,0.0-1.0-0.86,65ce22701768174c8c6870c6,AWAITING REVIEW,2024-02-15T14:40:52.821000Z,2024-02-15T15:08:01.066000Z,,2024-02-15T15:08:01.692643Z,1629.0,CVPIIDEI,50,38,Male,Asian,United States,United States,United States,English,No,DATA_EXPIRED,Not Applicable
6568a71757a0ddeca59c05dc,<b>I don?t try new foods since I know I won?t like them.,Highly disagree,88/94,Somewhat disagree,2,1708009636930,1708009639627,\Somewhat disagree\,\Somewhat disagree\,\2\,1708009639338,1708009639338,2408,2408,2697,buq,qns-item-noham,88,1572264,0.0-1.0-0.87,65ce22701768174c8c6870c6,AWAITING REVIEW,2024-02-15T14:40:52.821000Z,2024-02-15T15:08:01.066000Z,,2024-02-15T15:08:01.692643Z,1629.0,CVPIIDEI,50,38,Male,Asian,United States,United States,United States,English,No,DATA_EXPIRED,Not Applicable
6568a71757a0ddeca59c05dc,<b>Other people trick each other a lot.,Highly disagree,89/94,Somewhat agree,3,1708009639628,1708009642574,\Somewhat agree\,\Somewhat agree\,\3\,1708009642281,1708009642281,2653,2653,2946,buq,qns-item-noham,89,1575211,0.0-1.0-0.88,65ce22701768174c8c6870c6,AWAITING REVIEW,2024-02-15T14:40:52.821000Z,2024-02-15T15:08:01.066000Z,,2024-02-15T15:08:01.692643Z,1629.0,CVPIIDEI,50,38,Male,Asian,United States,United States,United States,English,No,DATA_EXPIRED,Not Applicable
6568a71757a0ddeca59c05dc,<b>I would need to learn a lot about a person for my opinion of them to be swayed.,Highly disagree,90/94,Somewhat agree,3,1708009642575,1708009646723,\Somewhat agree\,\Somewhat agree\,\3\,1708009646402,1708009646402,3827,3827,4148,buq,qns-item-noham,90,1579360,0.0-1.0-0.89,65ce22701768174c8c6870c6,AWAITING REVIEW,2024-02-15T14:40:52.821000Z,2024-02-15T15:08:01.066000Z,,2024-02-15T15:08:01.692643Z,1629.0,CVPIIDEI,50,38,Male,Asian,United States,United States,United States,English,No,DATA_EXPIRED,Not Applicable
6568a71757a0ddeca59c05dc,<b>People can?t usually trick me when it comes to topics I care about.,Highly disagree,91/94,Somewhat agree,3,1708009646724,1708009649263,\Somewhat agree\,\Somewhat agree\,\3\,1708009649021,1708009649021,2297,2297,2539,buq,qns-item-noham,91,1581900,0.0-1.0-0.90,65ce22701768174c8c6870c6,AWAITING REVIEW,2024-02-15T14:40:52.821000Z,2024-02-15T15:08:01.066000Z,,2024-02-15T15:08:01.692643Z,1629.0,CVPIIDEI,50,38,Male,Asian,United States,United States,United States,English,No,DATA_EXPIRED,Not Applicable
6568a71757a0ddeca59c05dc,<b>I do not often change my views on food.,Highly disagree,92/94,Somewhat agree,3,1708009649264,1708009653776,\Somewhat disagree\,\Somewhat agree\,\2\,1708009651305,1708009653501,2041,4237,4512,buq,qns-item-noham,92,1586413,0.0-1.0-0.91,65ce22701768174c8c6870c6,AWAITING REVIEW,2024-02-15T14:40:52.821000Z,2024-02-15T15:08:01.066000Z,,2024-02-15T15:08:01.692643Z,1629.0,CVPIIDEI,50,38,Male,Asian,United States,United States,United States,English,No,DATA_EXPIRED,Not Applicable
6568a71757a0ddeca59c05dc,<b>Specific policies are often very important to me.,Highly disagree,93/94,Somewhat agree,3,1708009653777,1708009660362,\Somewhat agree\,\Somewhat agree\,\3\,1708009659998,1708009659998,6221,6221,6585,buq,qns-item-noham,93,1592999,0.0-1.0-0.92,65ce22701768174c8c6870c6,AWAITING REVIEW,2024-02-15T14:40:52.821000Z,2024-02-15T15:08:01.066000Z,,2024-02-15T15:08:01.692643Z,1629.0,CVPIIDEI,50,38,Male,Asian,United States,United States,United States,English,No,DATA_EXPIRED,Not Applicable
6568a71757a0ddeca59c05dc,<b>Most people are woefully under-informed.,Highly disagree,94/94,Somewhat agree,3,1708009660363,1708009663437,\Somewhat agree\,\Somewhat agree\,\3\,1708009662690,1708009662690,2327,2327,3074,buq,qns-item-noham,94,1596074,0.0-1.0-0.93,65ce22701768174c8c6870c6,AWAITING REVIEW,2024-02-15T14:40:52.821000Z,2024-02-15T15:08:01.066000Z,,2024-02-15T15:08:01.692643Z,1629.0,CVPIIDEI,50,38,Male,Asian,United States,United States,United States,English,No,DATA_EXPIRED,Not Applicable
6568a71757a0ddeca59c05dc,,,,,,,,,,,,,,,,,,,,,65ce22701768174c8c6870c6,AWAITING REVIEW,2024-02-15T14:40:52.821000Z,2024-02-15T15:08:01.066000Z,,2024-02-15T15:08:01.692643Z,1629.0,CVPIIDEI,50,38,Male,Asian,United States,United States,United States,English,No,DATA_EXPIRED,Not Applicable
