PROLIFIC_PID,Question,qns_options,quest_num,answer_num,question_load_timestamp,next_btn_timestamp,option_num_selected,preview_timestamps,final_text_selected_time_stamp,rt_first_option_click,rt_final_option_click,rt_submit_click,questionnaire,trial_type,trial_index,time_elapsed,internal_node_id,Demographic_Submission id,Demographic_Status,Demographic_Started at,Demographic_Completed at,Demographic_Reviewed at,Demographic_Archived at,Demographic_Time taken,Demographic_Completion code,Demographic_Total approvals,Demographic_Age,Demographic_Sex,Demographic_Ethnicity simplified,Demographic_Country of birth,Demographic_Country of residence,Demographic_Nationality,Demographic_Language,Demographic_Student status,Demographic_Employment status,Demographic_Custom study tncs accepted at
65108d02742b73e5f03efb63,<b>Knowing what?s true and knowing what to do about it are usually basically the same.,Highly disagree,1/94,2,1708008881941,1708008901634,\2\,1708008900323,1708008900323,18382,18382,19693,buq,qns-item-noham,1,32473,0.0-1.0-0.0,65ce2090846439b984dbe607,AWAITING REVIEW,2024-02-15T14:36:22.300000Z,2024-02-15T15:14:08.090000Z,,2024-02-15T15:14:09.061224Z,2266.0,CVPIIDEI,209,32,Male,White,United States,United States,United States,English,No,Full-Time,Not Applicable
65108d02742b73e5f03efb63,<b>Most people just believe whatever is convenient for them.,Highly disagree,2/94,3,1708008901636,1708008906266,\3\,1708008905594,1708008905594,3958,3958,4630,buq,qns-item-noham,2,37105,0.0-1.0-0.1,65ce2090846439b984dbe607,AWAITING REVIEW,2024-02-15T14:36:22.300000Z,2024-02-15T15:14:08.090000Z,,2024-02-15T15:14:09.061224Z,2266.0,CVPIIDEI,209,32,Male,White,United States,United States,United States,English,No,Full-Time,Not Applicable
65108d02742b73e5f03efb63,<b>Having some big beliefs helps me sort out minor ones.,Highly disagree,3/94,3,1708008906273,1708008928018,\3\,1708008927202,1708008927202,20929,20929,21745,buq,qns-item-noham,3,58857,0.0-1.0-0.2,65ce2090846439b984dbe607,AWAITING REVIEW,2024-02-15T14:36:22.300000Z,2024-02-15T15:14:08.090000Z,,2024-02-15T15:14:09.061224Z,2266.0,CVPIIDEI,209,32,Male,White,United States,United States,United States,English,No,Full-Time,Not Applicable
65108d02742b73e5f03efb63,<b>Political questions are usually pretty complicated.,Highly disagree,4/94,3,1708008928020,1708008931722,\3\,1708008931226,1708008931226,3206,3206,3702,buq,qns-item-noham,4,62561,0.0-1.0-0.3,65ce2090846439b984dbe607,AWAITING REVIEW,2024-02-15T14:36:22.300000Z,2024-02-15T15:14:08.090000Z,,2024-02-15T15:14:09.061224Z,2266.0,CVPIIDEI,209,32,Male,White,United States,United States,United States,English,No,Full-Time,Not Applicable
65108d02742b73e5f03efb63,<b>Figuring out what?s important in life requires learning a lot of facts.,Highly disagree,5/94,4,1708008931725,1708008973825,\4\,1708008973009,1708008973009,41284,41284,42100,buq,qns-item-noham,5,104665,0.0-1.0-0.4,65ce2090846439b984dbe607,AWAITING REVIEW,2024-02-15T14:36:22.300000Z,2024-02-15T15:14:08.090000Z,,2024-02-15T15:14:09.061224Z,2266.0,CVPIIDEI,209,32,Male,White,United States,United States,United States,English,No,Full-Time,Not Applicable
65108d02742b73e5f03efb63,<b>It is difficult for me to remember the last time I was surprised by politics.,Highly disagree,6/94,1,1708008973828,1708008983290,\1\,1708008981193,1708008981193,7365,7365,9462,buq,qns-item-noham,6,114129,0.0-1.0-0.5,65ce2090846439b984dbe607,AWAITING REVIEW,2024-02-15T14:36:22.300000Z,2024-02-15T15:14:08.090000Z,,2024-02-15T15:14:09.061224Z,2266.0,CVPIIDEI,209,32,Male,White,United States,United States,United States,English,No,Full-Time,Not Applicable
65108d02742b73e5f03efb63,<b>People?s false beliefs are understandable.,Highly disagree,7/94,2,1708008983293,1708008988945,\2\,1708008988106,1708008988106,4813,4813,5652,buq,qns-item-noham,7,119785,0.0-1.0-0.6,65ce2090846439b984dbe607,AWAITING REVIEW,2024-02-15T14:36:22.300000Z,2024-02-15T15:14:08.090000Z,,2024-02-15T15:14:09.061224Z,2266.0,CVPIIDEI,209,32,Male,White,United States,United States,United States,English,No,Full-Time,Not Applicable
65108d02742b73e5f03efb63,<b>I spend a lot of time trying to be informed about politics.,Highly disagree,8/94,3,1708008988948,1708009046066,\3\,1708009045514,1708009045514,56566,56566,57118,buq,qns-item-noham,8,176905,0.0-1.0-0.7,65ce2090846439b984dbe607,AWAITING REVIEW,2024-02-15T14:36:22.300000Z,2024-02-15T15:14:08.090000Z,,2024-02-15T15:14:09.061224Z,2266.0,CVPIIDEI,209,32,Male,White,United States,United States,United States,English,No,Full-Time,Not Applicable
65108d02742b73e5f03efb63,<b>I think a lot about whether my beliefs are right.,Highly disagree,9/94,3,1708009046068,1708009051970,\3\,1708009051066,1708009051066,4998,4998,5902,buq,qns-item-noham,9,182809,0.0-1.0-0.8,65ce2090846439b984dbe607,AWAITING REVIEW,2024-02-15T14:36:22.300000Z,2024-02-15T15:14:08.090000Z,,2024-02-15T15:14:09.061224Z,2266.0,CVPIIDEI,209,32,Male,White,United States,United States,United States,English,No,Full-Time,Not Applicable
65108d02742b73e5f03efb63,<b>Statistics can be pretty misleading sometimes.,Highly disagree,10/94,2,1708009051972,1708009057042,\2\,1708009056586,1708009056586,4614,4614,5070,buq,qns-item-noham,10,187881,0.0-1.0-0.9,65ce2090846439b984dbe607,AWAITING REVIEW,2024-02-15T14:36:22.300000Z,2024-02-15T15:14:08.090000Z,,2024-02-15T15:14:09.061224Z,2266.0,CVPIIDEI,209,32,Male,White,United States,United States,United States,English,No,Full-Time,Not Applicable
65108d02742b73e5f03efb63,<b>I have lots of beliefs that I?m only sort of sure about.,Highly disagree,11/94,3,1708009057045,1708009061146,\3\,1708009060642,1708009060642,3597,3597,4101,buq,qns-item-noham,11,191985,0.0-1.0-0.10,65ce2090846439b984dbe607,AWAITING REVIEW,2024-02-15T14:36:22.300000Z,2024-02-15T15:14:08.090000Z,,2024-02-15T15:14:09.061224Z,2266.0,CVPIIDEI,209,32,Male,White,United States,United States,United States,English,No,Full-Time,Not Applicable
65108d02742b73e5f03efb63,"<b>If I go to my favorite restaurant and the food is surprisingly bad, it reminds me there are many disappointments in life.",Highly disagree,12/94,1,1708009061148,1708009070474,\1\,1708009069850,1708009069850,8702,8702,9326,buq,qns-item-noham,12,201313,0.0-1.0-0.11,65ce2090846439b984dbe607,AWAITING REVIEW,2024-02-15T14:36:22.300000Z,2024-02-15T15:14:08.090000Z,,2024-02-15T15:14:09.061224Z,2266.0,CVPIIDEI,209,32,Male,White,United States,United States,United States,English,No,Full-Time,Not Applicable
65108d02742b73e5f03efb63,"<b>If you are paying attention, please select ?Somewhat agree?",Highly disagree,13/94,3,1708009070477,1708009082690,\3\,1708009078282,1708009078282,7805,7805,12213,buq,qns-item-noham,13,213529,0.0-1.0-0.12,65ce2090846439b984dbe607,AWAITING REVIEW,2024-02-15T14:36:22.300000Z,2024-02-15T15:14:08.090000Z,,2024-02-15T15:14:09.061224Z,2266.0,CVPIIDEI,209,32,Male,White,United States,United States,United States,English,No,Full-Time,Not Applicable
65108d02742b73e5f03efb63,"<b>When I talk to others, I often worry I?ll convince them of something I didn?t mean to.",Highly disagree,14/94,1,1708009082693,1708009090002,\1\,1708009089482,1708009089482,6789,6789,7309,buq,qns-item-noham,14,220841,0.0-1.0-0.13,65ce2090846439b984dbe607,AWAITING REVIEW,2024-02-15T14:36:22.300000Z,2024-02-15T15:14:08.090000Z,,2024-02-15T15:14:09.061224Z,2266.0,CVPIIDEI,209,32,Male,White,United States,United States,United States,English,No,Full-Time,Not Applicable
65108d02742b73e5f03efb63,<b>I would need to learn something utterly shocking about my party in order to change my political views.,Highly disagree,15/94,3,1708009090004,1708009095722,\1\,1708009094178,1708009095202,4174,5198,5718,buq,qns-item-noham,15,226561,0.0-1.0-0.14,65ce2090846439b984dbe607,AWAITING REVIEW,2024-02-15T14:36:22.300000Z,2024-02-15T15:14:08.090000Z,,2024-02-15T15:14:09.061224Z,2266.0,CVPIIDEI,209,32,Male,White,United States,United States,United States,English,No,Full-Time,Not Applicable
65108d02742b73e5f03efb63,"<b>When I have new experiences, I tend to think of them as unique.",Highly disagree,16/94,3,1708009095724,1708009103402,\3\,1708009102842,1708009102842,7118,7118,7678,buq,qns-item-noham,16,234241,0.0-1.0-0.15,65ce2090846439b984dbe607,AWAITING REVIEW,2024-02-15T14:36:22.300000Z,2024-02-15T15:14:08.090000Z,,2024-02-15T15:14:09.061224Z,2266.0,CVPIIDEI,209,32,Male,White,United States,United States,United States,English,No,Full-Time,Not Applicable
65108d02742b73e5f03efb63,<b>I change my mind about specific policies pretty frequently.,Highly disagree,17/94,1,1708009103404,1708009142498,\2\,1708009104642,1708009141811,1238,38407,39094,buq,qns-item-noham,17,273337,0.0-1.0-0.16,65ce2090846439b984dbe607,AWAITING REVIEW,2024-02-15T14:36:22.300000Z,2024-02-15T15:14:08.090000Z,,2024-02-15T15:14:09.061224Z,2266.0,CVPIIDEI,209,32,Male,White,United States,United States,United States,English,No,Full-Time,Not Applicable
65108d02742b73e5f03efb63,"<b>If a politician in my political party supports something I disagree with, I give them the benefit of the doubt, as such issues often involve hidden complexities that aren?t obvious.   ",Highly disagree,18/94,1,1708009142500,1708009145202,\1\,1708009144410,1708009144410,1910,1910,2702,buq,qns-item-noham,18,276041,0.0-1.0-0.17,65ce2090846439b984dbe607,AWAITING REVIEW,2024-02-15T14:36:22.300000Z,2024-02-15T15:14:08.090000Z,,2024-02-15T15:14:09.061224Z,2266.0,CVPIIDEI,209,32,Male,White,United States,United States,United States,English,No,Full-Time,Not Applicable
65108d02742b73e5f03efb63,<b>People?s bad politics are usually motivated by hatefulness.,Highly disagree,19/94,2,1708009145204,1708009150290,\2\,1708009149570,1708009149570,4366,4366,5086,buq,qns-item-noham,19,281129,0.0-1.0-0.18,65ce2090846439b984dbe607,AWAITING REVIEW,2024-02-15T14:36:22.300000Z,2024-02-15T15:14:08.090000Z,,2024-02-15T15:14:09.061224Z,2266.0,CVPIIDEI,209,32,Male,White,United States,United States,United States,English,No,Full-Time,Not Applicable
65108d02742b73e5f03efb63,<b>I think a lot about how to reconcile my beliefs with one another.,Highly disagree,20/94,1,1708009150292,1708009153170,\1\,1708009151466,1708009151466,1174,1174,2878,buq,qns-item-noham,20,284009,0.0-1.0-0.19,65ce2090846439b984dbe607,AWAITING REVIEW,2024-02-15T14:36:22.300000Z,2024-02-15T15:14:08.090000Z,,2024-02-15T15:14:09.061224Z,2266.0,CVPIIDEI,209,32,Male,White,United States,United States,United States,English,No,Full-Time,Not Applicable
65108d02742b73e5f03efb63,<b>I might have false beliefs about important topics.,Highly disagree,21/94,1,1708009153172,1708009155354,\1\,1708009154026,1708009154026,854,854,2182,buq,qns-item-noham,21,286193,0.0-1.0-0.20,65ce2090846439b984dbe607,AWAITING REVIEW,2024-02-15T14:36:22.300000Z,2024-02-15T15:14:08.090000Z,,2024-02-15T15:14:09.061224Z,2266.0,CVPIIDEI,209,32,Male,White,United States,United States,United States,English,No,Full-Time,Not Applicable
65108d02742b73e5f03efb63,"<b>If a good friend of mine does something unexpected that upsets me, I feel like I don?t know them anymore.",Highly disagree,22/94,1,1708009155356,1708009157106,\1\,1708009156130,1708009156130,774,774,1750,buq,qns-item-noham,22,287945,0.0-1.0-0.21,65ce2090846439b984dbe607,AWAITING REVIEW,2024-02-15T14:36:22.300000Z,2024-02-15T15:14:08.090000Z,,2024-02-15T15:14:09.061224Z,2266.0,CVPIIDEI,209,32,Male,White,United States,United States,United States,English,No,Full-Time,Not Applicable
65108d02742b73e5f03efb63,<b>Other people?s beliefs are often incoherent.,Highly disagree,23/94,2,1708009157108,1708009159002,\2\,1708009157858,1708009157858,750,750,1894,buq,qns-item-noham,23,289841,0.0-1.0-0.22,65ce2090846439b984dbe607,AWAITING REVIEW,2024-02-15T14:36:22.300000Z,2024-02-15T15:14:08.090000Z,,2024-02-15T15:14:09.061224Z,2266.0,CVPIIDEI,209,32,Male,White,United States,United States,United States,English,No,Full-Time,Not Applicable
65108d02742b73e5f03efb63,"<b>Every now and then, a new experience will unsettle beliefs I?ve had for a while.",Highly disagree,24/94,1,1708009159004,1708009208409,\1\,1708009160042,1708009207721,1038,48717,49405,buq,qns-item-noham,24,339248,0.0-1.0-0.23,65ce2090846439b984dbe607,AWAITING REVIEW,2024-02-15T14:36:22.300000Z,2024-02-15T15:14:08.090000Z,,2024-02-15T15:14:09.061224Z,2266.0,CVPIIDEI,209,32,Male,White,United States,United States,United States,English,No,Full-Time,Not Applicable
65108d02742b73e5f03efb63,<b>Some policies I agree with in principle are so bad I don?t support them. ,Highly disagree,25/94,1,1708009208412,1708009209641,\1\,1708009209025,1708009209025,613,613,1229,buq,qns-item-noham,25,340480,0.0-1.0-0.24,65ce2090846439b984dbe607,AWAITING REVIEW,2024-02-15T14:36:22.300000Z,2024-02-15T15:14:08.090000Z,,2024-02-15T15:14:09.061224Z,2266.0,CVPIIDEI,209,32,Male,White,United States,United States,United States,English,No,Full-Time,Not Applicable
65108d02742b73e5f03efb63,<b>I?m pretty sure I?ve accidentally spread false information.,Highly disagree,26/94,2,1708009209642,1708009211145,\2\,1708009210545,1708009210545,903,903,1503,buq,qns-item-noham,26,341984,0.0-1.0-0.25,65ce2090846439b984dbe607,AWAITING REVIEW,2024-02-15T14:36:22.300000Z,2024-02-15T15:14:08.090000Z,,2024-02-15T15:14:09.061224Z,2266.0,CVPIIDEI,209,32,Male,White,United States,United States,United States,English,No,Full-Time,Not Applicable
65108d02742b73e5f03efb63,"<b>If I go to my favorite restaurant and the food is unexpectedly bad, then they have changed owners.",Highly disagree,27/94,2,1708009211148,1708009218346,\1\,1708009211769,1708009217553,621,6405,7198,buq,qns-item-noham,27,349185,0.0-1.0-0.26,65ce2090846439b984dbe607,AWAITING REVIEW,2024-02-15T14:36:22.300000Z,2024-02-15T15:14:08.090000Z,,2024-02-15T15:14:09.061224Z,2266.0,CVPIIDEI,209,32,Male,White,United States,United States,United States,English,No,Full-Time,Not Applicable
65108d02742b73e5f03efb63,"<b>In politics, it?s important to trust your friends and family.",Highly disagree,28/94,3,1708009218347,1708009222417,\1\,1708009219217,1708009221897,870,3550,4070,buq,qns-item-noham,28,353256,0.0-1.0-0.27,65ce2090846439b984dbe607,AWAITING REVIEW,2024-02-15T14:36:22.300000Z,2024-02-15T15:14:08.090000Z,,2024-02-15T15:14:09.061224Z,2266.0,CVPIIDEI,209,32,Male,White,United States,United States,United States,English,No,Full-Time,Not Applicable
65108d02742b73e5f03efb63,<b>It?s OK to have some conflicting beliefs.,Highly disagree,29/94,2,1708009222419,1708009229506,\1\,1708009223121,1708009228778,702,6359,7087,buq,qns-item-noham,29,360345,0.0-1.0-0.28,65ce2090846439b984dbe607,AWAITING REVIEW,2024-02-15T14:36:22.300000Z,2024-02-15T15:14:08.090000Z,,2024-02-15T15:14:09.061224Z,2266.0,CVPIIDEI,209,32,Male,White,United States,United States,United States,English,No,Full-Time,Not Applicable
65108d02742b73e5f03efb63,<b>Listening to people I disagree with makes my opinions better.,Highly disagree,30/94,3,1708009229508,1708009239409,\3\,1708009238930,1708009238930,9422,9422,9901,buq,qns-item-noham,30,370248,0.0-1.0-0.29,65ce2090846439b984dbe607,AWAITING REVIEW,2024-02-15T14:36:22.300000Z,2024-02-15T15:14:08.090000Z,,2024-02-15T15:14:09.061224Z,2266.0,CVPIIDEI,209,32,Male,White,United States,United States,United States,English,No,Full-Time,Not Applicable
65108d02742b73e5f03efb63,<b>My moral compass sometimes makes it harder to determine what?s true.,Highly disagree,31/94,1,1708009239413,1708009255578,\1\,1708009255075,1708009255075,15662,15662,16165,buq,qns-item-noham,31,386417,0.0-1.0-0.30,65ce2090846439b984dbe607,AWAITING REVIEW,2024-02-15T14:36:22.300000Z,2024-02-15T15:14:08.090000Z,,2024-02-15T15:14:09.061224Z,2266.0,CVPIIDEI,209,32,Male,White,United States,United States,United States,English,No,Full-Time,Not Applicable
65108d02742b73e5f03efb63,<b>Evidence pointing in the wrong direction isn?t really evidence at all.,Highly disagree,32/94,1,1708009255581,1708009269794,\1\,1708009256753,1708009256753,1172,1172,14213,buq,qns-item-noham,32,400633,0.0-1.0-0.31,65ce2090846439b984dbe607,AWAITING REVIEW,2024-02-15T14:36:22.300000Z,2024-02-15T15:14:08.090000Z,,2024-02-15T15:14:09.061224Z,2266.0,CVPIIDEI,209,32,Male,White,United States,United States,United States,English,No,Full-Time,Not Applicable
65108d02742b73e5f03efb63,"<b>If the political party I support messes up, it makes me think politics is rotten.",Highly disagree,33/94,1,1708009269796,1708009271898,\1\,1708009270593,1708009270593,797,797,2102,buq,qns-item-noham,33,402737,0.0-1.0-0.32,65ce2090846439b984dbe607,AWAITING REVIEW,2024-02-15T14:36:22.300000Z,2024-02-15T15:14:08.090000Z,,2024-02-15T15:14:09.061224Z,2266.0,CVPIIDEI,209,32,Male,White,United States,United States,United States,English,No,Full-Time,Not Applicable
65108d02742b73e5f03efb63,<b>Lots of important topics can only really be understood by some groups of people.,Highly disagree,34/94,2,1708009271900,1708009273314,\2\,1708009272625,1708009272625,725,725,1414,buq,qns-item-noham,34,404153,0.0-1.0-0.33,65ce2090846439b984dbe607,AWAITING REVIEW,2024-02-15T14:36:22.300000Z,2024-02-15T15:14:08.090000Z,,2024-02-15T15:14:09.061224Z,2266.0,CVPIIDEI,209,32,Male,White,United States,United States,United States,English,No,Full-Time,Not Applicable
65108d02742b73e5f03efb63,<b>Having conflicting beliefs means you haven?t thought about them enough.,Highly disagree,35/94,1,1708009273317,1708009274953,\1\,1708009274157,1708009274157,840,840,1636,buq,qns-item-noham,35,405792,0.0-1.0-0.34,65ce2090846439b984dbe607,AWAITING REVIEW,2024-02-15T14:36:22.300000Z,2024-02-15T15:14:08.090000Z,,2024-02-15T15:14:09.061224Z,2266.0,CVPIIDEI,209,32,Male,White,United States,United States,United States,English,No,Full-Time,Not Applicable
65108d02742b73e5f03efb63,<b>I do not often change my political opinions.,Highly disagree,36/94,3,1708009274956,1708009277858,\3\,1708009277330,1708009277330,2374,2374,2902,buq,qns-item-noham,36,408697,0.0-1.0-0.35,65ce2090846439b984dbe607,AWAITING REVIEW,2024-02-15T14:36:22.300000Z,2024-02-15T15:14:08.090000Z,,2024-02-15T15:14:09.061224Z,2266.0,CVPIIDEI,209,32,Male,White,United States,United States,United States,English,No,Full-Time,Not Applicable
65108d02742b73e5f03efb63,<b>It?s difficult to not have at least some conflicting beliefs.,Highly disagree,37/94,2,1708009277859,1708009281793,\2\,1708009281370,1708009281370,3511,3511,3934,buq,qns-item-noham,37,412632,0.0-1.0-0.36,65ce2090846439b984dbe607,AWAITING REVIEW,2024-02-15T14:36:22.300000Z,2024-02-15T15:14:08.090000Z,,2024-02-15T15:14:09.061224Z,2266.0,CVPIIDEI,209,32,Male,White,United States,United States,United States,English,No,Full-Time,Not Applicable
65108d02742b73e5f03efb63,<b>Wishful thinking causes a lot of problems.,Highly disagree,38/94,1,1708009281796,1708009283233,\1\,1708009282585,1708009282585,789,789,1437,buq,qns-item-noham,38,414072,0.0-1.0-0.37,65ce2090846439b984dbe607,AWAITING REVIEW,2024-02-15T14:36:22.300000Z,2024-02-15T15:14:08.090000Z,,2024-02-15T15:14:09.061224Z,2266.0,CVPIIDEI,209,32,Male,White,United States,United States,United States,English,No,Full-Time,Not Applicable
65108d02742b73e5f03efb63,<b>I judge a food item only once I try it many times.,Highly disagree,39/94,3,1708009283235,1708009292649,\1\,1708009284817,1708009291897,1582,8662,9414,buq,qns-item-noham,39,423488,0.0-1.0-0.38,65ce2090846439b984dbe607,AWAITING REVIEW,2024-02-15T14:36:22.300000Z,2024-02-15T15:14:08.090000Z,,2024-02-15T15:14:09.061224Z,2266.0,CVPIIDEI,209,32,Male,White,United States,United States,United States,English,No,Full-Time,Not Applicable
65108d02742b73e5f03efb63,"<b>When a person holds conflicting beliefs, they should really try to figure out what?s wrong.",Highly disagree,40/94,1,1708009292651,1708009295577,\1\,1708009294689,1708009294689,2038,2038,2926,buq,qns-item-noham,40,426416,0.0-1.0-0.39,65ce2090846439b984dbe607,AWAITING REVIEW,2024-02-15T14:36:22.300000Z,2024-02-15T15:14:08.090000Z,,2024-02-15T15:14:09.061224Z,2266.0,CVPIIDEI,209,32,Male,White,United States,United States,United States,English,No,Full-Time,Not Applicable
65108d02742b73e5f03efb63,<b>Knowing what?s important in life is easy.,Highly disagree,41/94,1,1708009295580,1708009300569,\1\,1708009299905,1708009299905,4325,4325,4989,buq,qns-item-noham,41,431408,0.0-1.0-0.40,65ce2090846439b984dbe607,AWAITING REVIEW,2024-02-15T14:36:22.300000Z,2024-02-15T15:14:08.090000Z,,2024-02-15T15:14:09.061224Z,2266.0,CVPIIDEI,209,32,Male,White,United States,United States,United States,English,No,Full-Time,Not Applicable
65108d02742b73e5f03efb63,<b>I swim across the Atlantic Ocean to get to work every day.,Highly disagree,42/94,1,1708009300571,1708009334881,\1\,1708009333529,1708009333529,32958,32958,34310,buq,qns-item-noham,42,465720,0.0-1.0-0.41,65ce2090846439b984dbe607,AWAITING REVIEW,2024-02-15T14:36:22.300000Z,2024-02-15T15:14:08.090000Z,,2024-02-15T15:14:09.061224Z,2266.0,CVPIIDEI,209,32,Male,White,United States,United States,United States,English,No,Full-Time,Not Applicable
65108d02742b73e5f03efb63,"<b>Sometimes, you just have to ignore evidence that you know is wrong.",Highly disagree,43/94,4,1708009334883,1708009339809,\4\,1708009339217,1708009339217,4334,4334,4926,buq,qns-item-noham,43,470648,0.0-1.0-0.42,65ce2090846439b984dbe607,AWAITING REVIEW,2024-02-15T14:36:22.300000Z,2024-02-15T15:14:08.090000Z,,2024-02-15T15:14:09.061224Z,2266.0,CVPIIDEI,209,32,Male,White,United States,United States,United States,English,No,Full-Time,Not Applicable
65108d02742b73e5f03efb63,<b>I have had some false beliefs.,Highly disagree,44/94,2,1708009339811,1708009343378,\2\,1708009342722,1708009342722,2911,2911,3567,buq,qns-item-noham,44,474217,0.0-1.0-0.43,65ce2090846439b984dbe607,AWAITING REVIEW,2024-02-15T14:36:22.300000Z,2024-02-15T15:14:08.090000Z,,2024-02-15T15:14:09.061224Z,2266.0,CVPIIDEI,209,32,Male,White,United States,United States,United States,English,No,Full-Time,Not Applicable
65108d02742b73e5f03efb63,"<b>If one friend does something that upsets me, I sometimes start to distrust people in general.",Highly disagree,45/94,3,1708009343381,1708009373906,\1\,1708009346042,1708009373410,2661,30029,30525,buq,qns-item-noham,45,504745,0.0-1.0-0.44,65ce2090846439b984dbe607,AWAITING REVIEW,2024-02-15T14:36:22.300000Z,2024-02-15T15:14:08.090000Z,,2024-02-15T15:14:09.061224Z,2266.0,CVPIIDEI,209,32,Male,White,United States,United States,United States,English,No,Full-Time,Not Applicable
65108d02742b73e5f03efb63,<b>The facts about most important matters are easy to find.,Highly disagree,46/94,4,1708009373908,1708009378874,\1\,1708009374762,1708009378314,854,4406,4966,buq,qns-item-noham,46,509713,0.0-1.0-0.45,65ce2090846439b984dbe607,AWAITING REVIEW,2024-02-15T14:36:22.300000Z,2024-02-15T15:14:08.090000Z,,2024-02-15T15:14:09.061224Z,2266.0,CVPIIDEI,209,32,Male,White,United States,United States,United States,English,No,Full-Time,Not Applicable
65108d02742b73e5f03efb63,<b>It?s better to know what?s true than to know what?s moral.,Highly disagree,47/94,2,1708009378876,1708009387338,\1\,1708009382458,1708009386786,3582,7910,8462,buq,qns-item-noham,47,518177,0.0-1.0-0.46,65ce2090846439b984dbe607,AWAITING REVIEW,2024-02-15T14:36:22.300000Z,2024-02-15T15:14:08.090000Z,,2024-02-15T15:14:09.061224Z,2266.0,CVPIIDEI,209,32,Male,White,United States,United States,United States,English,No,Full-Time,Not Applicable
65108d02742b73e5f03efb63,<b>I used to think the world was less complicated than I do now.,Highly disagree,48/94,1,1708009387340,1708009394170,\1\,1708009388306,1708009392970,966,5630,6830,buq,qns-item-noham,48,525009,0.0-1.0-0.47,65ce2090846439b984dbe607,AWAITING REVIEW,2024-02-15T14:36:22.300000Z,2024-02-15T15:14:08.090000Z,,2024-02-15T15:14:09.061224Z,2266.0,CVPIIDEI,209,32,Male,White,United States,United States,United States,English,No,Full-Time,Not Applicable
65108d02742b73e5f03efb63,<b>People are usually completely right or completely wrong.,Highly disagree,49/94,2,1708009394172,1708009399674,\1\,1708009395034,1708009399138,862,4966,5502,buq,qns-item-noham,49,530513,0.0-1.0-0.48,65ce2090846439b984dbe607,AWAITING REVIEW,2024-02-15T14:36:22.300000Z,2024-02-15T15:14:08.090000Z,,2024-02-15T15:14:09.061224Z,2266.0,CVPIIDEI,209,32,Male,White,United States,United States,United States,English,No,Full-Time,Not Applicable
65108d02742b73e5f03efb63,<b>I spend a lot of time considering alternatives to my beliefs.,Highly disagree,50/94,1,1708009399676,1708009413473,\1\,1708009400770,1708009400770,1094,1094,13797,buq,qns-item-noham,50,544312,0.0-1.0-0.49,65ce2090846439b984dbe607,AWAITING REVIEW,2024-02-15T14:36:22.300000Z,2024-02-15T15:14:08.090000Z,,2024-02-15T15:14:09.061224Z,2266.0,CVPIIDEI,209,32,Male,White,United States,United States,United States,English,No,Full-Time,Not Applicable
65108d02742b73e5f03efb63,"<b>Political enemies need to be defeated, not convinced.",Highly disagree,51/94,3,1708009413475,1708009434178,\1\,1708009414641,1708009433529,1166,20054,20703,buq,qns-item-noham,51,565017,0.0-1.0-0.50,65ce2090846439b984dbe607,AWAITING REVIEW,2024-02-15T14:36:22.300000Z,2024-02-15T15:14:08.090000Z,,2024-02-15T15:14:09.061224Z,2266.0,CVPIIDEI,209,32,Male,White,United States,United States,United States,English,No,Full-Time,Not Applicable
65108d02742b73e5f03efb63,<b>I form my political views only after meticulously gathering historical and present information about their policies.,Highly disagree,52/94,1,1708009434180,1708009436433,\1\,1708009435201,1708009435201,1021,1021,2253,buq,qns-item-noham,52,567272,0.0-1.0-0.51,65ce2090846439b984dbe607,AWAITING REVIEW,2024-02-15T14:36:22.300000Z,2024-02-15T15:14:08.090000Z,,2024-02-15T15:14:09.061224Z,2266.0,CVPIIDEI,209,32,Male,White,United States,United States,United States,English,No,Full-Time,Not Applicable
65108d02742b73e5f03efb63,<b>It is difficult for me to remember the last time I was surprised by politics.,Highly disagree,53/94,1,1708009436435,1708009440305,\1\,1708009439545,1708009439545,3110,3110,3870,buq,qns-item-noham,53,571144,0.0-1.0-0.52,65ce2090846439b984dbe607,AWAITING REVIEW,2024-02-15T14:36:22.300000Z,2024-02-15T15:14:08.090000Z,,2024-02-15T15:14:09.061224Z,2266.0,CVPIIDEI,209,32,Male,White,United States,United States,United States,English,No,Full-Time,Not Applicable
65108d02742b73e5f03efb63,"<b>When I find out I?m wrong, I think a lot about my related beliefs.",Highly disagree,54/94,3,1708009440307,1708009463651,\3\,1708009462913,1708009462913,22606,22606,23344,buq,qns-item-noham,54,594490,0.0-1.0-0.53,65ce2090846439b984dbe607,AWAITING REVIEW,2024-02-15T14:36:22.300000Z,2024-02-15T15:14:08.090000Z,,2024-02-15T15:14:09.061224Z,2266.0,CVPIIDEI,209,32,Male,White,United States,United States,United States,English,No,Full-Time,Not Applicable
65108d02742b73e5f03efb63,"<b>If the political party I support messes up, it makes me think you can?t trust anyone these days",Highly disagree,55/94,1,1708009463653,1708009467745,\1\,1708009464801,1708009464801,1148,1148,4092,buq,qns-item-noham,55,598584,0.0-1.0-0.54,65ce2090846439b984dbe607,AWAITING REVIEW,2024-02-15T14:36:22.300000Z,2024-02-15T15:14:08.090000Z,,2024-02-15T15:14:09.061224Z,2266.0,CVPIIDEI,209,32,Male,White,United States,United States,United States,English,No,Full-Time,Not Applicable
65108d02742b73e5f03efb63,<b>People?s brains turn off when they talk about politics.,Highly disagree,56/94,1,1708009467747,1708009471521,\1\,1708009468530,1708009468530,783,783,3774,buq,qns-item-noham,56,602360,0.0-1.0-0.55,65ce2090846439b984dbe607,AWAITING REVIEW,2024-02-15T14:36:22.300000Z,2024-02-15T15:14:08.090000Z,,2024-02-15T15:14:09.061224Z,2266.0,CVPIIDEI,209,32,Male,White,United States,United States,United States,English,No,Full-Time,Not Applicable
65108d02742b73e5f03efb63,<b>People who are wrong are usually just ignoring the obvious.,Highly disagree,57/94,1,1708009471523,1708009475050,\1\,1708009472481,1708009472481,958,958,3527,buq,qns-item-noham,57,605889,0.0-1.0-0.56,65ce2090846439b984dbe607,AWAITING REVIEW,2024-02-15T14:36:22.300000Z,2024-02-15T15:14:08.090000Z,,2024-02-15T15:14:09.061224Z,2266.0,CVPIIDEI,209,32,Male,White,United States,United States,United States,English,No,Full-Time,Not Applicable
65108d02742b73e5f03efb63,"<b>When forming my views on people, I rely more on what they are like now rather than rely on my past experience with them.",Highly disagree,58/94,1,1708009475052,1708009476689,\1\,1708009475641,1708009475641,589,589,1637,buq,qns-item-noham,58,607528,0.0-1.0-0.57,65ce2090846439b984dbe607,AWAITING REVIEW,2024-02-15T14:36:22.300000Z,2024-02-15T15:14:08.090000Z,,2024-02-15T15:14:09.061224Z,2266.0,CVPIIDEI,209,32,Male,White,United States,United States,United States,English,No,Full-Time,Not Applicable
65108d02742b73e5f03efb63,"<b>When people contradict my beliefs, I usually know about their evidence already.",Highly disagree,59/94,1,1708009476691,1708009478153,\1\,1708009477393,1708009477393,702,702,1462,buq,qns-item-noham,59,608992,0.0-1.0-0.58,65ce2090846439b984dbe607,AWAITING REVIEW,2024-02-15T14:36:22.300000Z,2024-02-15T15:14:08.090000Z,,2024-02-15T15:14:09.061224Z,2266.0,CVPIIDEI,209,32,Male,White,United States,United States,United States,English,No,Full-Time,Not Applicable
65108d02742b73e5f03efb63,<b>Figuring out what?s true and what?s false mainly requires a strong moral compass.,Highly disagree,60/94,2,1708009478155,1708009506625,\1\,1708009487209,1708009505225,9054,27070,28470,buq,qns-item-noham,60,637464,0.0-1.0-0.59,65ce2090846439b984dbe607,AWAITING REVIEW,2024-02-15T14:36:22.300000Z,2024-02-15T15:14:08.090000Z,,2024-02-15T15:14:09.061224Z,2266.0,CVPIIDEI,209,32,Male,White,United States,United States,United States,English,No,Full-Time,Not Applicable
65108d02742b73e5f03efb63,"<b>Usually I?m wrong about simple things, not complicated ones.",Highly disagree,61/94,1,1708009506627,1708009510473,\1\,1708009509553,1708009509553,2926,2926,3846,buq,qns-item-noham,61,641312,0.0-1.0-0.60,65ce2090846439b984dbe607,AWAITING REVIEW,2024-02-15T14:36:22.300000Z,2024-02-15T15:14:08.090000Z,,2024-02-15T15:14:09.061224Z,2266.0,CVPIIDEI,209,32,Male,White,United States,United States,United States,English,No,Full-Time,Not Applicable
65108d02742b73e5f03efb63,<b>Getting all the information I want about important things is hard.,Highly disagree,62/94,2,1708009510475,1708009516873,\1\,1708009511265,1708009516201,790,5726,6398,buq,qns-item-noham,62,647712,0.0-1.0-0.61,65ce2090846439b984dbe607,AWAITING REVIEW,2024-02-15T14:36:22.300000Z,2024-02-15T15:14:08.090000Z,,2024-02-15T15:14:09.061224Z,2266.0,CVPIIDEI,209,32,Male,White,United States,United States,United States,English,No,Full-Time,Not Applicable
65108d02742b73e5f03efb63,<b>Most false beliefs spread because people try to deceive one another.,Highly disagree,63/94,1,1708009516875,1708009553386,\1\,1708009550578,1708009550578,33703,33703,36511,buq,qns-item-noham,63,684225,0.0-1.0-0.62,65ce2090846439b984dbe607,AWAITING REVIEW,2024-02-15T14:36:22.300000Z,2024-02-15T15:14:08.090000Z,,2024-02-15T15:14:09.061224Z,2266.0,CVPIIDEI,209,32,Male,White,United States,United States,United States,English,No,Full-Time,Not Applicable
65108d02742b73e5f03efb63,<b>I can usually find something to agree with in most people?s beliefs.,Highly disagree,64/94,3,1708009553388,1708009560970,\3\,1708009559898,1708009559898,6510,6510,7582,buq,qns-item-noham,64,691809,0.0-1.0-0.63,65ce2090846439b984dbe607,AWAITING REVIEW,2024-02-15T14:36:22.300000Z,2024-02-15T15:14:08.090000Z,,2024-02-15T15:14:09.061224Z,2266.0,CVPIIDEI,209,32,Male,White,United States,United States,United States,English,No,Full-Time,Not Applicable
65108d02742b73e5f03efb63,<b>I only form my views of people once I get to know them very well.,Highly disagree,65/94,3,1708009560972,1708009567634,\1\,1708009562138,1708009566930,1166,5958,6662,buq,qns-item-noham,65,698473,0.0-1.0-0.64,65ce2090846439b984dbe607,AWAITING REVIEW,2024-02-15T14:36:22.300000Z,2024-02-15T15:14:08.090000Z,,2024-02-15T15:14:09.061224Z,2266.0,CVPIIDEI,209,32,Male,White,United States,United States,United States,English,No,Full-Time,Not Applicable
65108d02742b73e5f03efb63,"<b>When people tell me important things about the world, I usually believe them.",Highly disagree,66/94,1,1708009567636,1708009569850,\1\,1708009568434,1708009568434,798,798,2214,buq,qns-item-noham,66,700689,0.0-1.0-0.65,65ce2090846439b984dbe607,AWAITING REVIEW,2024-02-15T14:36:22.300000Z,2024-02-15T15:14:08.090000Z,,2024-02-15T15:14:09.061224Z,2266.0,CVPIIDEI,209,32,Male,White,United States,United States,United States,English,No,Full-Time,Not Applicable
65108d02742b73e5f03efb63,"<b>If a friend does something that upsets me, it reminds me what an unpredictable place the world is.",Highly disagree,67/94,1,1708009569852,1708009607890,\1\,1708009570538,1708009570538,686,686,38038,buq,qns-item-noham,67,738729,0.0-1.0-0.66,65ce2090846439b984dbe607,AWAITING REVIEW,2024-02-15T14:36:22.300000Z,2024-02-15T15:14:08.090000Z,,2024-02-15T15:14:09.061224Z,2266.0,CVPIIDEI,209,32,Male,White,United States,United States,United States,English,No,Full-Time,Not Applicable
65108d02742b73e5f03efb63,<b>People tend to believe whatever is good for their friends.,Highly disagree,68/94,1,1708009607892,1708009639434,\1\,1708009624210,1708009624210,16318,16318,31542,buq,qns-item-noham,68,770273,0.0-1.0-0.67,65ce2090846439b984dbe607,AWAITING REVIEW,2024-02-15T14:36:22.300000Z,2024-02-15T15:14:08.090000Z,,2024-02-15T15:14:09.061224Z,2266.0,CVPIIDEI,209,32,Male,White,United States,United States,United States,English,No,Full-Time,Not Applicable
65108d02742b73e5f03efb63,<b>I used to be more certain my beliefs were true.,Highly disagree,69/94,3,1708009639436,1708009643762,\1\,1708009640354,1708009643058,918,3622,4326,buq,qns-item-noham,69,774601,0.0-1.0-0.68,65ce2090846439b984dbe607,AWAITING REVIEW,2024-02-15T14:36:22.300000Z,2024-02-15T15:14:08.090000Z,,2024-02-15T15:14:09.061224Z,2266.0,CVPIIDEI,209,32,Male,White,United States,United States,United States,English,No,Full-Time,Not Applicable
65108d02742b73e5f03efb63,<b>It?s often pretty easy to figure out whether something is true based on who said it.,Highly disagree,70/94,3,1708009643763,1708009702666,\1\,1708009644810,1708009702194,1047,58431,58903,buq,qns-item-noham,70,833505,0.0-1.0-0.69,65ce2090846439b984dbe607,AWAITING REVIEW,2024-02-15T14:36:22.300000Z,2024-02-15T15:14:08.090000Z,,2024-02-15T15:14:09.061224Z,2266.0,CVPIIDEI,209,32,Male,White,United States,United States,United States,English,No,Full-Time,Not Applicable
65108d02742b73e5f03efb63,<b>I transform into a hummingbird every day.,Highly disagree,71/94,1,1708009702668,1708009711890,\1\,1708009710978,1708009710978,8310,8310,9222,buq,qns-item-noham,71,842729,0.0-1.0-0.70,65ce2090846439b984dbe607,AWAITING REVIEW,2024-02-15T14:36:22.300000Z,2024-02-15T15:14:08.090000Z,,2024-02-15T15:14:09.061224Z,2266.0,CVPIIDEI,209,32,Male,White,United States,United States,United States,English,No,Full-Time,Not Applicable
65108d02742b73e5f03efb63,<b>I think a lot about arguments against my views.,Highly disagree,72/94,1,1708009711893,1708009713898,\1\,1708009712834,1708009712834,941,941,2005,buq,qns-item-noham,72,844737,0.0-1.0-0.71,65ce2090846439b984dbe607,AWAITING REVIEW,2024-02-15T14:36:22.300000Z,2024-02-15T15:14:08.090000Z,,2024-02-15T15:14:09.061224Z,2266.0,CVPIIDEI,209,32,Male,White,United States,United States,United States,English,No,Full-Time,Not Applicable
65108d02742b73e5f03efb63,<b>Personal experience is usually more important than facts and figures.,Highly disagree,73/94,3,1708009713900,1708009719810,\1\,1708009715034,1708009719010,1134,5110,5910,buq,qns-item-noham,73,850649,0.0-1.0-0.72,65ce2090846439b984dbe607,AWAITING REVIEW,2024-02-15T14:36:22.300000Z,2024-02-15T15:14:08.090000Z,,2024-02-15T15:14:09.061224Z,2266.0,CVPIIDEI,209,32,Male,White,United States,United States,United States,English,No,Full-Time,Not Applicable
65108d02742b73e5f03efb63,<b>I?ve been tricked before about important matters.,Highly disagree,74/94,3,1708009719812,1708009734226,\1\,1708009721218,1708009733482,1406,13670,14414,buq,qns-item-noham,74,865065,0.0-1.0-0.73,65ce2090846439b984dbe607,AWAITING REVIEW,2024-02-15T14:36:22.300000Z,2024-02-15T15:14:08.090000Z,,2024-02-15T15:14:09.061224Z,2266.0,CVPIIDEI,209,32,Male,White,United States,United States,United States,English,No,Full-Time,Not Applicable
65108d02742b73e5f03efb63,<b>I would need to be totally wowed if I were to change my opinion of a restaurant I don?t like.,Highly disagree,75/94,1,1708009734228,1708009752202,\1\,1708009735107,1708009735107,879,879,17974,buq,qns-item-noham,75,883041,0.0-1.0-0.74,65ce2090846439b984dbe607,AWAITING REVIEW,2024-02-15T14:36:22.300000Z,2024-02-15T15:14:08.090000Z,,2024-02-15T15:14:09.061224Z,2266.0,CVPIIDEI,209,32,Male,White,United States,United States,United States,English,No,Full-Time,Not Applicable
65108d02742b73e5f03efb63,<b>I care a lot about politics.,Highly disagree,76/94,3,1708009752204,1708009756913,\1\,1708009753130,1708009756361,926,4157,4709,buq,qns-item-noham,76,887752,0.0-1.0-0.75,65ce2090846439b984dbe607,AWAITING REVIEW,2024-02-15T14:36:22.300000Z,2024-02-15T15:14:08.090000Z,,2024-02-15T15:14:09.061224Z,2266.0,CVPIIDEI,209,32,Male,White,United States,United States,United States,English,No,Full-Time,Not Applicable
65108d02742b73e5f03efb63,<b>There are some topics I?ve been really wrong about.,Highly disagree,77/94,2,1708009756915,1708009763385,\1\,1708009757985,1708009762689,1070,5774,6470,buq,qns-item-noham,77,894224,0.0-1.0-0.76,65ce2090846439b984dbe607,AWAITING REVIEW,2024-02-15T14:36:22.300000Z,2024-02-15T15:14:08.090000Z,,2024-02-15T15:14:09.061224Z,2266.0,CVPIIDEI,209,32,Male,White,United States,United States,United States,English,No,Full-Time,Not Applicable
65108d02742b73e5f03efb63,<b>Most beliefs can be supported with at least some evidence.,Highly disagree,78/94,3,1708009763387,1708009817585,\1\,1708009764121,1708009816929,734,53542,54198,buq,qns-item-noham,78,948424,0.0-1.0-0.77,65ce2090846439b984dbe607,AWAITING REVIEW,2024-02-15T14:36:22.300000Z,2024-02-15T15:14:08.090000Z,,2024-02-15T15:14:09.061224Z,2266.0,CVPIIDEI,209,32,Male,White,United States,United States,United States,English,No,Full-Time,Not Applicable
65108d02742b73e5f03efb63,<b>Other people make life out to be more complicated than it really is.,Highly disagree,79/94,1,1708009817587,1708009821345,\1\,1708009818505,1708009818505,918,918,3758,buq,qns-item-noham,79,952184,0.0-1.0-0.78,65ce2090846439b984dbe607,AWAITING REVIEW,2024-02-15T14:36:22.300000Z,2024-02-15T15:14:08.090000Z,,2024-02-15T15:14:09.061224Z,2266.0,CVPIIDEI,209,32,Male,White,United States,United States,United States,English,No,Full-Time,Not Applicable
65108d02742b73e5f03efb63,"<b>Policy details don?t matter much, just the big picture.",Highly disagree,80/94,1,1708009821347,1708009826217,\1\,1708009822338,1708009822338,991,991,4870,buq,qns-item-noham,80,957056,0.0-1.0-0.79,65ce2090846439b984dbe607,AWAITING REVIEW,2024-02-15T14:36:22.300000Z,2024-02-15T15:14:08.090000Z,,2024-02-15T15:14:09.061224Z,2266.0,CVPIIDEI,209,32,Male,White,United States,United States,United States,English,No,Full-Time,Not Applicable
65108d02742b73e5f03efb63,<b>I know my friends so well they can hardly ever surprise me.,Highly disagree,81/94,3,1708009826219,1708009867746,\1\,1708009830897,1708009867121,4678,40902,41527,buq,qns-item-noham,81,998585,0.0-1.0-0.80,65ce2090846439b984dbe607,AWAITING REVIEW,2024-02-15T14:36:22.300000Z,2024-02-15T15:14:08.090000Z,,2024-02-15T15:14:09.061224Z,2266.0,CVPIIDEI,209,32,Male,White,United States,United States,United States,English,No,Full-Time,Not Applicable
65108d02742b73e5f03efb63,<b>I do not often change my views on people.,Highly disagree,82/94,3,1708009867747,1708009873482,\3\,1708009872889,1708009872889,5142,5142,5735,buq,qns-item-noham,82,1004321,0.0-1.0-0.81,65ce2090846439b984dbe607,AWAITING REVIEW,2024-02-15T14:36:22.300000Z,2024-02-15T15:14:08.090000Z,,2024-02-15T15:14:09.061224Z,2266.0,CVPIIDEI,209,32,Male,White,United States,United States,United States,English,No,Full-Time,Not Applicable
65108d02742b73e5f03efb63,<b>I?m more certain about my beliefs than I used to be.,Highly disagree,83/94,3,1708009873484,1708009876458,\3\,1708009875946,1708009875946,2462,2462,2974,buq,qns-item-noham,83,1007297,0.0-1.0-0.82,65ce2090846439b984dbe607,AWAITING REVIEW,2024-02-15T14:36:22.300000Z,2024-02-15T15:14:08.090000Z,,2024-02-15T15:14:09.061224Z,2266.0,CVPIIDEI,209,32,Male,White,United States,United States,United States,English,No,Full-Time,Not Applicable
65108d02742b73e5f03efb63,<b>People often tell falsehoods unintentionally.,Highly disagree,84/94,1,1708009876461,1708009880122,\1\,1708009879586,1708009879586,3125,3125,3661,buq,qns-item-noham,84,1010961,0.0-1.0-0.83,65ce2090846439b984dbe607,AWAITING REVIEW,2024-02-15T14:36:22.300000Z,2024-02-15T15:14:08.090000Z,,2024-02-15T15:14:09.061224Z,2266.0,CVPIIDEI,209,32,Male,White,United States,United States,United States,English,No,Full-Time,Not Applicable
65108d02742b73e5f03efb63,<b>Most people don?t know much about most things.,Highly disagree,85/94,2,1708009880124,1708009885978,\1\,1708009884522,1708009885298,4398,5174,5854,buq,qns-item-noham,85,1016817,0.0-1.0-0.84,65ce2090846439b984dbe607,AWAITING REVIEW,2024-02-15T14:36:22.300000Z,2024-02-15T15:14:08.090000Z,,2024-02-15T15:14:09.061224Z,2266.0,CVPIIDEI,209,32,Male,White,United States,United States,United States,English,No,Full-Time,Not Applicable
65108d02742b73e5f03efb63,"<b>If I find out something new about someone, I easily change my views about them.",Highly disagree,86/94,3,1708009885980,1708009892370,\3\,1708009891826,1708009891826,5846,5846,6390,buq,qns-item-noham,86,1023209,0.0-1.0-0.85,65ce2090846439b984dbe607,AWAITING REVIEW,2024-02-15T14:36:22.300000Z,2024-02-15T15:14:08.090000Z,,2024-02-15T15:14:09.061224Z,2266.0,CVPIIDEI,209,32,Male,White,United States,United States,United States,English,No,Full-Time,Not Applicable
65108d02742b73e5f03efb63,<b>Having true beliefs is difficult.,Highly disagree,87/94,1,1708009892372,1708009896730,\1\,1708009896170,1708009896170,3798,3798,4358,buq,qns-item-noham,87,1027569,0.0-1.0-0.86,65ce2090846439b984dbe607,AWAITING REVIEW,2024-02-15T14:36:22.300000Z,2024-02-15T15:14:08.090000Z,,2024-02-15T15:14:09.061224Z,2266.0,CVPIIDEI,209,32,Male,White,United States,United States,United States,English,No,Full-Time,Not Applicable
65108d02742b73e5f03efb63,<b>I don?t try new foods since I know I won?t like them.,Highly disagree,88/94,1,1708009896732,1708009900882,\1\,1708009899961,1708009899961,3229,3229,4150,buq,qns-item-noham,88,1031721,0.0-1.0-0.87,65ce2090846439b984dbe607,AWAITING REVIEW,2024-02-15T14:36:22.300000Z,2024-02-15T15:14:08.090000Z,,2024-02-15T15:14:09.061224Z,2266.0,CVPIIDEI,209,32,Male,White,United States,United States,United States,English,No,Full-Time,Not Applicable
65108d02742b73e5f03efb63,<b>Other people trick each other a lot.,Highly disagree,89/94,1,1708009900883,1708009904162,\1\,1708009903626,1708009903626,2743,2743,3279,buq,qns-item-noham,89,1035001,0.0-1.0-0.88,65ce2090846439b984dbe607,AWAITING REVIEW,2024-02-15T14:36:22.300000Z,2024-02-15T15:14:08.090000Z,,2024-02-15T15:14:09.061224Z,2266.0,CVPIIDEI,209,32,Male,White,United States,United States,United States,English,No,Full-Time,Not Applicable
65108d02742b73e5f03efb63,<b>I would need to learn a lot about a person for my opinion of them to be swayed.,Highly disagree,90/94,3,1708009904164,1708009934042,\3\,1708009933018,1708009933018,28854,28854,29878,buq,qns-item-noham,90,1064881,0.0-1.0-0.89,65ce2090846439b984dbe607,AWAITING REVIEW,2024-02-15T14:36:22.300000Z,2024-02-15T15:14:08.090000Z,,2024-02-15T15:14:09.061224Z,2266.0,CVPIIDEI,209,32,Male,White,United States,United States,United States,English,No,Full-Time,Not Applicable
65108d02742b73e5f03efb63,<b>People can?t usually trick me when it comes to topics I care about.,Highly disagree,91/94,3,1708009934044,1708009940233,\1\,1708009935001,1708009939657,957,5613,6189,buq,qns-item-noham,91,1071072,0.0-1.0-0.90,65ce2090846439b984dbe607,AWAITING REVIEW,2024-02-15T14:36:22.300000Z,2024-02-15T15:14:08.090000Z,,2024-02-15T15:14:09.061224Z,2266.0,CVPIIDEI,209,32,Male,White,United States,United States,United States,English,No,Full-Time,Not Applicable
65108d02742b73e5f03efb63,<b>I do not often change my views on food.,Highly disagree,92/94,3,1708009940235,1708009945105,\3\,1708009944129,1708009944129,3894,3894,4870,buq,qns-item-noham,92,1075944,0.0-1.0-0.91,65ce2090846439b984dbe607,AWAITING REVIEW,2024-02-15T14:36:22.300000Z,2024-02-15T15:14:08.090000Z,,2024-02-15T15:14:09.061224Z,2266.0,CVPIIDEI,209,32,Male,White,United States,United States,United States,English,No,Full-Time,Not Applicable
65108d02742b73e5f03efb63,<b>Specific policies are often very important to me.,Highly disagree,93/94,2,1708009945107,1708009951241,\2\,1708009950777,1708009950777,5670,5670,6134,buq,qns-item-noham,93,1082080,0.0-1.0-0.92,65ce2090846439b984dbe607,AWAITING REVIEW,2024-02-15T14:36:22.300000Z,2024-02-15T15:14:08.090000Z,,2024-02-15T15:14:09.061224Z,2266.0,CVPIIDEI,209,32,Male,White,United States,United States,United States,English,No,Full-Time,Not Applicable
65108d02742b73e5f03efb63,<b>Most people are woefully under-informed.,Highly disagree,94/94,2,1708009951244,1708009955489,\1\,1708009953585,1708009955001,2341,3757,4245,buq,qns-item-noham,94,1086328,0.0-1.0-0.93,65ce2090846439b984dbe607,AWAITING REVIEW,2024-02-15T14:36:22.300000Z,2024-02-15T15:14:08.090000Z,,2024-02-15T15:14:09.061224Z,2266.0,CVPIIDEI,209,32,Male,White,United States,United States,United States,English,No,Full-Time,Not Applicable
65108d02742b73e5f03efb63,,,,,,,,,,,,,,,,,,65ce2090846439b984dbe607,AWAITING REVIEW,2024-02-15T14:36:22.300000Z,2024-02-15T15:14:08.090000Z,,2024-02-15T15:14:09.061224Z,2266.0,CVPIIDEI,209,32,Male,White,United States,United States,United States,English,No,Full-Time,Not Applicable
