PROLIFIC_PID,Question,qns_options,quest_num,answer,answer_num,question_load_timestamp,next_btn_timestamp,text_selected,final_text_selected,option_num_selected,preview_timestamps,final_text_selected_time_stamp,rt_first_option_click,rt_final_option_click,rt_submit_click,questionnaire,trial_type,trial_index,time_elapsed,internal_node_id,Demographic_Submission id,Demographic_Status,Demographic_Started at,Demographic_Completed at,Demographic_Reviewed at,Demographic_Archived at,Demographic_Time taken,Demographic_Completion code,Demographic_Total approvals,Demographic_Age,Demographic_Sex,Demographic_Ethnicity simplified,Demographic_Country of birth,Demographic_Country of residence,Demographic_Nationality,Demographic_Language,Demographic_Student status,Demographic_Employment status,Demographic_Custom study tncs accepted at
6003ef9269c7814f0ca7b46a,<b>Knowing what?s true and knowing what to do about it are usually basically the same.,Highly disagree,1/94,Highly disagree,1,1708009556239,1708009577255,\Highly disagree\,\Highly disagree\,\1\,1708009576309,1708009576309,20070,20070,21016,buq,qns-item-noham,1,26441,0.0-1.0-0.0,65ce22434359fb1c228c66ea,AWAITING REVIEW,2024-02-15T14:40:03.087000Z,2024-02-15T15:21:29.268000Z,,2024-02-15T15:21:29.978725Z,2487.0,CVPIIDEI,2529,35,Male,DATA_EXPIRED,Philippines,United States,United States,English,DATA_EXPIRED,DATA_EXPIRED,Not Applicable
6003ef9269c7814f0ca7b46a,<b>Most people just believe whatever is convenient for them.,Highly disagree,2/94,Highly agree,4,1708009577256,1708009592316,\Highly agree\,\Highly agree\,\4\,1708009591838,1708009591838,14582,14582,15060,buq,qns-item-noham,2,41502,0.0-1.0-0.1,65ce22434359fb1c228c66ea,AWAITING REVIEW,2024-02-15T14:40:03.087000Z,2024-02-15T15:21:29.268000Z,,2024-02-15T15:21:29.978725Z,2487.0,CVPIIDEI,2529,35,Male,DATA_EXPIRED,Philippines,United States,United States,English,DATA_EXPIRED,DATA_EXPIRED,Not Applicable
6003ef9269c7814f0ca7b46a,<b>Having some big beliefs helps me sort out minor ones.,Highly disagree,3/94,Somewhat disagree,2,1708009592321,1708009604420,\Somewhat disagree\,\Somewhat disagree\,\2\,1708009598618,1708009603175,6297,10854,12099,buq,qns-item-noham,3,53606,0.0-1.0-0.2,65ce22434359fb1c228c66ea,AWAITING REVIEW,2024-02-15T14:40:03.087000Z,2024-02-15T15:21:29.268000Z,,2024-02-15T15:21:29.978725Z,2487.0,CVPIIDEI,2529,35,Male,DATA_EXPIRED,Philippines,United States,United States,English,DATA_EXPIRED,DATA_EXPIRED,Not Applicable
6003ef9269c7814f0ca7b46a,<b>Political questions are usually pretty complicated.,Highly disagree,4/94,Highly agree,4,1708009604422,1708009609848,\Highly agree\,\Highly agree\,\4\,1708009609318,1708009609318,4896,4896,5426,buq,qns-item-noham,4,59034,0.0-1.0-0.3,65ce22434359fb1c228c66ea,AWAITING REVIEW,2024-02-15T14:40:03.087000Z,2024-02-15T15:21:29.268000Z,,2024-02-15T15:21:29.978725Z,2487.0,CVPIIDEI,2529,35,Male,DATA_EXPIRED,Philippines,United States,United States,English,DATA_EXPIRED,DATA_EXPIRED,Not Applicable
6003ef9269c7814f0ca7b46a,<b>Figuring out what?s important in life requires learning a lot of facts.,Highly disagree,5/94,Somewhat disagree,2,1708009609849,1708009617876,\Somewhat disagree\,\Somewhat disagree\,\2\,1708009617385,1708009617385,7536,7536,8027,buq,qns-item-noham,5,67062,0.0-1.0-0.4,65ce22434359fb1c228c66ea,AWAITING REVIEW,2024-02-15T14:40:03.087000Z,2024-02-15T15:21:29.268000Z,,2024-02-15T15:21:29.978725Z,2487.0,CVPIIDEI,2529,35,Male,DATA_EXPIRED,Philippines,United States,United States,English,DATA_EXPIRED,DATA_EXPIRED,Not Applicable
6003ef9269c7814f0ca7b46a,<b>It is difficult for me to remember the last time I was surprised by politics.,Highly disagree,6/94,Highly disagree,1,1708009617877,1708009628388,\Highly disagree\,\Highly disagree\,\1\,1708009627935,1708009627935,10058,10058,10511,buq,qns-item-noham,6,77574,0.0-1.0-0.5,65ce22434359fb1c228c66ea,AWAITING REVIEW,2024-02-15T14:40:03.087000Z,2024-02-15T15:21:29.268000Z,,2024-02-15T15:21:29.978725Z,2487.0,CVPIIDEI,2529,35,Male,DATA_EXPIRED,Philippines,United States,United States,English,DATA_EXPIRED,DATA_EXPIRED,Not Applicable
6003ef9269c7814f0ca7b46a,<b>People?s false beliefs are understandable.,Highly disagree,7/94,Somewhat agree,3,1708009628390,1708009636594,\Somewhat agree\,\Somewhat agree\,\3\,1708009635976,1708009635976,7586,7586,8204,buq,qns-item-noham,7,85780,0.0-1.0-0.6,65ce22434359fb1c228c66ea,AWAITING REVIEW,2024-02-15T14:40:03.087000Z,2024-02-15T15:21:29.268000Z,,2024-02-15T15:21:29.978725Z,2487.0,CVPIIDEI,2529,35,Male,DATA_EXPIRED,Philippines,United States,United States,English,DATA_EXPIRED,DATA_EXPIRED,Not Applicable
6003ef9269c7814f0ca7b46a,<b>I spend a lot of time trying to be informed about politics.,Highly disagree,8/94,Somewhat agree,3,1708009636596,1708009642760,\Highly agree\,\Somewhat agree\,\4\,1708009641700,1708009642269,5104,5673,6164,buq,qns-item-noham,8,91946,0.0-1.0-0.7,65ce22434359fb1c228c66ea,AWAITING REVIEW,2024-02-15T14:40:03.087000Z,2024-02-15T15:21:29.268000Z,,2024-02-15T15:21:29.978725Z,2487.0,CVPIIDEI,2529,35,Male,DATA_EXPIRED,Philippines,United States,United States,English,DATA_EXPIRED,DATA_EXPIRED,Not Applicable
6003ef9269c7814f0ca7b46a,<b>I think a lot about whether my beliefs are right.,Highly disagree,9/94,Highly agree,4,1708009642761,1708009647122,\Highly agree\,\Highly agree\,\4\,1708009646631,1708009646631,3870,3870,4361,buq,qns-item-noham,9,96308,0.0-1.0-0.8,65ce22434359fb1c228c66ea,AWAITING REVIEW,2024-02-15T14:40:03.087000Z,2024-02-15T15:21:29.268000Z,,2024-02-15T15:21:29.978725Z,2487.0,CVPIIDEI,2529,35,Male,DATA_EXPIRED,Philippines,United States,United States,English,DATA_EXPIRED,DATA_EXPIRED,Not Applicable
6003ef9269c7814f0ca7b46a,<b>Statistics can be pretty misleading sometimes.,Highly disagree,10/94,Highly agree,4,1708009647123,1708009650730,\Highly agree\,\Highly agree\,\4\,1708009650330,1708009650330,3207,3207,3607,buq,qns-item-noham,10,99916,0.0-1.0-0.9,65ce22434359fb1c228c66ea,AWAITING REVIEW,2024-02-15T14:40:03.087000Z,2024-02-15T15:21:29.268000Z,,2024-02-15T15:21:29.978725Z,2487.0,CVPIIDEI,2529,35,Male,DATA_EXPIRED,Philippines,United States,United States,English,DATA_EXPIRED,DATA_EXPIRED,Not Applicable
6003ef9269c7814f0ca7b46a,<b>I have lots of beliefs that I?m only sort of sure about.,Highly disagree,11/94,Highly agree,4,1708009650731,1708009659603,\Highly agree\,\Highly agree\,\4\,1708009658930,1708009658930,8199,8199,8872,buq,qns-item-noham,11,108789,0.0-1.0-0.10,65ce22434359fb1c228c66ea,AWAITING REVIEW,2024-02-15T14:40:03.087000Z,2024-02-15T15:21:29.268000Z,,2024-02-15T15:21:29.978725Z,2487.0,CVPIIDEI,2529,35,Male,DATA_EXPIRED,Philippines,United States,United States,English,DATA_EXPIRED,DATA_EXPIRED,Not Applicable
6003ef9269c7814f0ca7b46a,"<b>If I go to my favorite restaurant and the food is surprisingly bad, it reminds me there are many disappointments in life.",Highly disagree,12/94,Highly disagree,1,1708009659605,1708009671775,\Highly disagree\,\Highly disagree\,\1\,1708009668323,1708009668323,8718,8718,12170,buq,qns-item-noham,12,120961,0.0-1.0-0.11,65ce22434359fb1c228c66ea,AWAITING REVIEW,2024-02-15T14:40:03.087000Z,2024-02-15T15:21:29.268000Z,,2024-02-15T15:21:29.978725Z,2487.0,CVPIIDEI,2529,35,Male,DATA_EXPIRED,Philippines,United States,United States,English,DATA_EXPIRED,DATA_EXPIRED,Not Applicable
6003ef9269c7814f0ca7b46a,"<b>If you are paying attention, please select ?Somewhat agree?",Highly disagree,13/94,Somewhat agree,3,1708009671776,1708009674447,\Somewhat agree\,\Somewhat agree\,\3\,1708009673930,1708009673930,2154,2154,2671,buq,qns-item-noham,13,123633,0.0-1.0-0.12,65ce22434359fb1c228c66ea,AWAITING REVIEW,2024-02-15T14:40:03.087000Z,2024-02-15T15:21:29.268000Z,,2024-02-15T15:21:29.978725Z,2487.0,CVPIIDEI,2529,35,Male,DATA_EXPIRED,Philippines,United States,United States,English,DATA_EXPIRED,DATA_EXPIRED,Not Applicable
6003ef9269c7814f0ca7b46a,"<b>When I talk to others, I often worry I?ll convince them of something I didn?t mean to.",Highly disagree,14/94,Highly disagree,1,1708009674448,1708009680603,\Highly disagree\,\Highly disagree\,\1\,1708009679748,1708009679748,5300,5300,6155,buq,qns-item-noham,14,129790,0.0-1.0-0.13,65ce22434359fb1c228c66ea,AWAITING REVIEW,2024-02-15T14:40:03.087000Z,2024-02-15T15:21:29.268000Z,,2024-02-15T15:21:29.978725Z,2487.0,CVPIIDEI,2529,35,Male,DATA_EXPIRED,Philippines,United States,United States,English,DATA_EXPIRED,DATA_EXPIRED,Not Applicable
6003ef9269c7814f0ca7b46a,<b>I would need to learn something utterly shocking about my party in order to change my political views.,Highly disagree,15/94,Somewhat disagree,2,1708009680605,1708009691349,\Somewhat disagree\,\Somewhat disagree\,\2\,1708009690767,1708009690767,10162,10162,10744,buq,qns-item-noham,15,140535,0.0-1.0-0.14,65ce22434359fb1c228c66ea,AWAITING REVIEW,2024-02-15T14:40:03.087000Z,2024-02-15T15:21:29.268000Z,,2024-02-15T15:21:29.978725Z,2487.0,CVPIIDEI,2529,35,Male,DATA_EXPIRED,Philippines,United States,United States,English,DATA_EXPIRED,DATA_EXPIRED,Not Applicable
6003ef9269c7814f0ca7b46a,"<b>When I have new experiences, I tend to think of them as unique.",Highly disagree,16/94,Highly agree,4,1708009691350,1708009699272,\Highly agree\,\Highly agree\,\4\,1708009698847,1708009698847,7497,7497,7922,buq,qns-item-noham,16,148458,0.0-1.0-0.15,65ce22434359fb1c228c66ea,AWAITING REVIEW,2024-02-15T14:40:03.087000Z,2024-02-15T15:21:29.268000Z,,2024-02-15T15:21:29.978725Z,2487.0,CVPIIDEI,2529,35,Male,DATA_EXPIRED,Philippines,United States,United States,English,DATA_EXPIRED,DATA_EXPIRED,Not Applicable
6003ef9269c7814f0ca7b46a,<b>I change my mind about specific policies pretty frequently.,Highly disagree,17/94,Highly disagree,1,1708009699273,1708009706236,\Highly disagree\,\Highly disagree\,\1\,1708009705873,1708009705873,6600,6600,6963,buq,qns-item-noham,17,155422,0.0-1.0-0.16,65ce22434359fb1c228c66ea,AWAITING REVIEW,2024-02-15T14:40:03.087000Z,2024-02-15T15:21:29.268000Z,,2024-02-15T15:21:29.978725Z,2487.0,CVPIIDEI,2529,35,Male,DATA_EXPIRED,Philippines,United States,United States,English,DATA_EXPIRED,DATA_EXPIRED,Not Applicable
6003ef9269c7814f0ca7b46a,"<b>If a politician in my political party supports something I disagree with, I give them the benefit of the doubt, as such issues often involve hidden complexities that aren?t obvious.   ",Highly disagree,18/94,Highly agree,4,1708009706237,1708009716108,\Highly agree\,\Highly agree\,\4\,1708009715761,1708009715761,9524,9524,9871,buq,qns-item-noham,18,165294,0.0-1.0-0.17,65ce22434359fb1c228c66ea,AWAITING REVIEW,2024-02-15T14:40:03.087000Z,2024-02-15T15:21:29.268000Z,,2024-02-15T15:21:29.978725Z,2487.0,CVPIIDEI,2529,35,Male,DATA_EXPIRED,Philippines,United States,United States,English,DATA_EXPIRED,DATA_EXPIRED,Not Applicable
6003ef9269c7814f0ca7b46a,<b>People?s bad politics are usually motivated by hatefulness.,Highly disagree,19/94,Highly agree,4,1708009716109,1708009722862,\Highly agree\,\Highly agree\,\4\,1708009722514,1708009722514,6405,6405,6753,buq,qns-item-noham,19,172048,0.0-1.0-0.18,65ce22434359fb1c228c66ea,AWAITING REVIEW,2024-02-15T14:40:03.087000Z,2024-02-15T15:21:29.268000Z,,2024-02-15T15:21:29.978725Z,2487.0,CVPIIDEI,2529,35,Male,DATA_EXPIRED,Philippines,United States,United States,English,DATA_EXPIRED,DATA_EXPIRED,Not Applicable
6003ef9269c7814f0ca7b46a,<b>I think a lot about how to reconcile my beliefs with one another.,Highly disagree,20/94,Somewhat agree,3,1708009722864,1708009727549,\Somewhat agree\,\Somewhat agree\,\3\,1708009727253,1708009727253,4389,4389,4685,buq,qns-item-noham,20,176735,0.0-1.0-0.19,65ce22434359fb1c228c66ea,AWAITING REVIEW,2024-02-15T14:40:03.087000Z,2024-02-15T15:21:29.268000Z,,2024-02-15T15:21:29.978725Z,2487.0,CVPIIDEI,2529,35,Male,DATA_EXPIRED,Philippines,United States,United States,English,DATA_EXPIRED,DATA_EXPIRED,Not Applicable
6003ef9269c7814f0ca7b46a,<b>I might have false beliefs about important topics.,Highly disagree,21/94,Somewhat agree,3,1708009727550,1708009734482,\Somewhat agree\,\Somewhat agree\,\3\,1708009733877,1708009733877,6327,6327,6932,buq,qns-item-noham,21,183668,0.0-1.0-0.20,65ce22434359fb1c228c66ea,AWAITING REVIEW,2024-02-15T14:40:03.087000Z,2024-02-15T15:21:29.268000Z,,2024-02-15T15:21:29.978725Z,2487.0,CVPIIDEI,2529,35,Male,DATA_EXPIRED,Philippines,United States,United States,English,DATA_EXPIRED,DATA_EXPIRED,Not Applicable
6003ef9269c7814f0ca7b46a,"<b>If a good friend of mine does something unexpected that upsets me, I feel like I don?t know them anymore.",Highly disagree,22/94,Somewhat disagree,2,1708009734483,1708009743590,\Somewhat disagree\,\Somewhat disagree\,\2\,1708009742266,1708009742266,7783,7783,9107,buq,qns-item-noham,22,192776,0.0-1.0-0.21,65ce22434359fb1c228c66ea,AWAITING REVIEW,2024-02-15T14:40:03.087000Z,2024-02-15T15:21:29.268000Z,,2024-02-15T15:21:29.978725Z,2487.0,CVPIIDEI,2529,35,Male,DATA_EXPIRED,Philippines,United States,United States,English,DATA_EXPIRED,DATA_EXPIRED,Not Applicable
6003ef9269c7814f0ca7b46a,<b>Other people?s beliefs are often incoherent.,Highly disagree,23/94,Highly disagree,1,1708009743591,1708009749716,\Highly disagree\,\Highly disagree\,\1\,1708009749085,1708009749085,5494,5494,6125,buq,qns-item-noham,23,198902,0.0-1.0-0.22,65ce22434359fb1c228c66ea,AWAITING REVIEW,2024-02-15T14:40:03.087000Z,2024-02-15T15:21:29.268000Z,,2024-02-15T15:21:29.978725Z,2487.0,CVPIIDEI,2529,35,Male,DATA_EXPIRED,Philippines,United States,United States,English,DATA_EXPIRED,DATA_EXPIRED,Not Applicable
6003ef9269c7814f0ca7b46a,"<b>Every now and then, a new experience will unsettle beliefs I?ve had for a while.",Highly disagree,24/94,Somewhat agree,3,1708009749717,1708009755612,\Somewhat agree\,\Somewhat agree\,\3\,1708009755277,1708009755277,5560,5560,5895,buq,qns-item-noham,24,204798,0.0-1.0-0.23,65ce22434359fb1c228c66ea,AWAITING REVIEW,2024-02-15T14:40:03.087000Z,2024-02-15T15:21:29.268000Z,,2024-02-15T15:21:29.978725Z,2487.0,CVPIIDEI,2529,35,Male,DATA_EXPIRED,Philippines,United States,United States,English,DATA_EXPIRED,DATA_EXPIRED,Not Applicable
6003ef9269c7814f0ca7b46a,<b>Some policies I agree with in principle are so bad I don?t support them. ,Highly disagree,25/94,Highly disagree,1,1708009755613,1708009766952,\Highly disagree\,\Highly disagree\,\1\,1708009766269,1708009766269,10656,10656,11339,buq,qns-item-noham,25,216138,0.0-1.0-0.24,65ce22434359fb1c228c66ea,AWAITING REVIEW,2024-02-15T14:40:03.087000Z,2024-02-15T15:21:29.268000Z,,2024-02-15T15:21:29.978725Z,2487.0,CVPIIDEI,2529,35,Male,DATA_EXPIRED,Philippines,United States,United States,English,DATA_EXPIRED,DATA_EXPIRED,Not Applicable
6003ef9269c7814f0ca7b46a,<b>I?m pretty sure I?ve accidentally spread false information.,Highly disagree,26/94,Somewhat agree,3,1708009766953,1708009773707,\Somewhat agree\,\Somewhat agree\,\3\,1708009773384,1708009773384,6431,6431,6754,buq,qns-item-noham,26,222893,0.0-1.0-0.25,65ce22434359fb1c228c66ea,AWAITING REVIEW,2024-02-15T14:40:03.087000Z,2024-02-15T15:21:29.268000Z,,2024-02-15T15:21:29.978725Z,2487.0,CVPIIDEI,2529,35,Male,DATA_EXPIRED,Philippines,United States,United States,English,DATA_EXPIRED,DATA_EXPIRED,Not Applicable
6003ef9269c7814f0ca7b46a,"<b>If I go to my favorite restaurant and the food is unexpectedly bad, then they have changed owners.",Highly disagree,27/94,Highly disagree,1,1708009773708,1708009781318,\Highly disagree\,\Highly disagree\,\1\,1708009780764,1708009780764,7056,7056,7610,buq,qns-item-noham,27,230504,0.0-1.0-0.26,65ce22434359fb1c228c66ea,AWAITING REVIEW,2024-02-15T14:40:03.087000Z,2024-02-15T15:21:29.268000Z,,2024-02-15T15:21:29.978725Z,2487.0,CVPIIDEI,2529,35,Male,DATA_EXPIRED,Philippines,United States,United States,English,DATA_EXPIRED,DATA_EXPIRED,Not Applicable
6003ef9269c7814f0ca7b46a,"<b>In politics, it?s important to trust your friends and family.",Highly disagree,28/94,Highly disagree,1,1708009781319,1708009786746,\Highly disagree\,\Highly disagree\,\1\,1708009786216,1708009786216,4897,4897,5427,buq,qns-item-noham,28,235932,0.0-1.0-0.27,65ce22434359fb1c228c66ea,AWAITING REVIEW,2024-02-15T14:40:03.087000Z,2024-02-15T15:21:29.268000Z,,2024-02-15T15:21:29.978725Z,2487.0,CVPIIDEI,2529,35,Male,DATA_EXPIRED,Philippines,United States,United States,English,DATA_EXPIRED,DATA_EXPIRED,Not Applicable
6003ef9269c7814f0ca7b46a,<b>It?s OK to have some conflicting beliefs.,Highly disagree,29/94,Somewhat agree,3,1708009786747,1708009789964,\Somewhat agree\,\Somewhat agree\,\3\,1708009789643,1708009789643,2896,2896,3217,buq,qns-item-noham,29,239151,0.0-1.0-0.28,65ce22434359fb1c228c66ea,AWAITING REVIEW,2024-02-15T14:40:03.087000Z,2024-02-15T15:21:29.268000Z,,2024-02-15T15:21:29.978725Z,2487.0,CVPIIDEI,2529,35,Male,DATA_EXPIRED,Philippines,United States,United States,English,DATA_EXPIRED,DATA_EXPIRED,Not Applicable
6003ef9269c7814f0ca7b46a,<b>Listening to people I disagree with makes my opinions better.,Highly disagree,30/94,Somewhat disagree,2,1708009789966,1708009797727,\Highly disagree\,\Somewhat disagree\,\1\,1708009796240,1708009797456,6274,7490,7761,buq,qns-item-noham,30,246913,0.0-1.0-0.29,65ce22434359fb1c228c66ea,AWAITING REVIEW,2024-02-15T14:40:03.087000Z,2024-02-15T15:21:29.268000Z,,2024-02-15T15:21:29.978725Z,2487.0,CVPIIDEI,2529,35,Male,DATA_EXPIRED,Philippines,United States,United States,English,DATA_EXPIRED,DATA_EXPIRED,Not Applicable
6003ef9269c7814f0ca7b46a,<b>My moral compass sometimes makes it harder to determine what?s true.,Highly disagree,31/94,Somewhat agree,3,1708009797728,1708009806093,\Somewhat agree\,\Somewhat agree\,\3\,1708009805770,1708009805770,8042,8042,8365,buq,qns-item-noham,31,255279,0.0-1.0-0.30,65ce22434359fb1c228c66ea,AWAITING REVIEW,2024-02-15T14:40:03.087000Z,2024-02-15T15:21:29.268000Z,,2024-02-15T15:21:29.978725Z,2487.0,CVPIIDEI,2529,35,Male,DATA_EXPIRED,Philippines,United States,United States,English,DATA_EXPIRED,DATA_EXPIRED,Not Applicable
6003ef9269c7814f0ca7b46a,<b>Evidence pointing in the wrong direction isn?t really evidence at all.,Highly disagree,32/94,Highly agree,4,1708009806094,1708009821687,\Highly agree\,\Highly agree\,\4\,1708009821299,1708009821299,15205,15205,15593,buq,qns-item-noham,32,270873,0.0-1.0-0.31,65ce22434359fb1c228c66ea,AWAITING REVIEW,2024-02-15T14:40:03.087000Z,2024-02-15T15:21:29.268000Z,,2024-02-15T15:21:29.978725Z,2487.0,CVPIIDEI,2529,35,Male,DATA_EXPIRED,Philippines,United States,United States,English,DATA_EXPIRED,DATA_EXPIRED,Not Applicable
6003ef9269c7814f0ca7b46a,"<b>If the political party I support messes up, it makes me think politics is rotten.",Highly disagree,33/94,Somewhat agree,3,1708009821688,1708009831493,\Somewhat agree\,\Somewhat agree\,\3\,1708009830914,1708009830914,9226,9226,9805,buq,qns-item-noham,33,280679,0.0-1.0-0.32,65ce22434359fb1c228c66ea,AWAITING REVIEW,2024-02-15T14:40:03.087000Z,2024-02-15T15:21:29.268000Z,,2024-02-15T15:21:29.978725Z,2487.0,CVPIIDEI,2529,35,Male,DATA_EXPIRED,Philippines,United States,United States,English,DATA_EXPIRED,DATA_EXPIRED,Not Applicable
6003ef9269c7814f0ca7b46a,<b>Lots of important topics can only really be understood by some groups of people.,Highly disagree,34/94,Highly disagree,1,1708009831495,1708009839495,\Highly disagree\,\Highly disagree\,\1\,1708009836729,1708009836729,5234,5234,8000,buq,qns-item-noham,34,288681,0.0-1.0-0.33,65ce22434359fb1c228c66ea,AWAITING REVIEW,2024-02-15T14:40:03.087000Z,2024-02-15T15:21:29.268000Z,,2024-02-15T15:21:29.978725Z,2487.0,CVPIIDEI,2529,35,Male,DATA_EXPIRED,Philippines,United States,United States,English,DATA_EXPIRED,DATA_EXPIRED,Not Applicable
6003ef9269c7814f0ca7b46a,<b>Having conflicting beliefs means you haven?t thought about them enough.,Highly disagree,35/94,Highly disagree,1,1708009839496,1708009846678,\Highly disagree\,\Highly disagree\,\1\,1708009846109,1708009846109,6613,6613,7182,buq,qns-item-noham,35,295864,0.0-1.0-0.34,65ce22434359fb1c228c66ea,AWAITING REVIEW,2024-02-15T14:40:03.087000Z,2024-02-15T15:21:29.268000Z,,2024-02-15T15:21:29.978725Z,2487.0,CVPIIDEI,2529,35,Male,DATA_EXPIRED,Philippines,United States,United States,English,DATA_EXPIRED,DATA_EXPIRED,Not Applicable
6003ef9269c7814f0ca7b46a,<b>I do not often change my political opinions.,Highly disagree,36/94,Somewhat disagree,2,1708009846680,1708009851375,\Somewhat disagree\,\Somewhat disagree\,\2\,1708009850835,1708009850835,4155,4155,4695,buq,qns-item-noham,36,300561,0.0-1.0-0.35,65ce22434359fb1c228c66ea,AWAITING REVIEW,2024-02-15T14:40:03.087000Z,2024-02-15T15:21:29.268000Z,,2024-02-15T15:21:29.978725Z,2487.0,CVPIIDEI,2529,35,Male,DATA_EXPIRED,Philippines,United States,United States,English,DATA_EXPIRED,DATA_EXPIRED,Not Applicable
6003ef9269c7814f0ca7b46a,<b>It?s difficult to not have at least some conflicting beliefs.,Highly disagree,37/94,Highly agree,4,1708009851376,1708009858428,\Highly agree\,\Highly agree\,\4\,1708009858015,1708009858015,6639,6639,7052,buq,qns-item-noham,37,307614,0.0-1.0-0.36,65ce22434359fb1c228c66ea,AWAITING REVIEW,2024-02-15T14:40:03.087000Z,2024-02-15T15:21:29.268000Z,,2024-02-15T15:21:29.978725Z,2487.0,CVPIIDEI,2529,35,Male,DATA_EXPIRED,Philippines,United States,United States,English,DATA_EXPIRED,DATA_EXPIRED,Not Applicable
6003ef9269c7814f0ca7b46a,<b>Wishful thinking causes a lot of problems.,Highly disagree,38/94,Somewhat agree,3,1708009858429,1708009864740,\Somewhat agree\,\Somewhat agree\,\3\,1708009864418,1708009864418,5989,5989,6311,buq,qns-item-noham,38,313926,0.0-1.0-0.37,65ce22434359fb1c228c66ea,AWAITING REVIEW,2024-02-15T14:40:03.087000Z,2024-02-15T15:21:29.268000Z,,2024-02-15T15:21:29.978725Z,2487.0,CVPIIDEI,2529,35,Male,DATA_EXPIRED,Philippines,United States,United States,English,DATA_EXPIRED,DATA_EXPIRED,Not Applicable
6003ef9269c7814f0ca7b46a,<b>I judge a food item only once I try it many times.,Highly disagree,39/94,Somewhat agree,3,1708009864741,1708009874169,\Somewhat agree\,\Somewhat agree\,\3\,1708009873655,1708009873655,8914,8914,9428,buq,qns-item-noham,39,323355,0.0-1.0-0.38,65ce22434359fb1c228c66ea,AWAITING REVIEW,2024-02-15T14:40:03.087000Z,2024-02-15T15:21:29.268000Z,,2024-02-15T15:21:29.978725Z,2487.0,CVPIIDEI,2529,35,Male,DATA_EXPIRED,Philippines,United States,United States,English,DATA_EXPIRED,DATA_EXPIRED,Not Applicable
6003ef9269c7814f0ca7b46a,"<b>When a person holds conflicting beliefs, they should really try to figure out what?s wrong.",Highly disagree,40/94,Somewhat disagree,2,1708009874170,1708009895825,\Highly agree\,\Somewhat disagree\,\4\,1708009881199,1708009895399,7029,21229,21655,buq,qns-item-noham,40,345011,0.0-1.0-0.39,65ce22434359fb1c228c66ea,AWAITING REVIEW,2024-02-15T14:40:03.087000Z,2024-02-15T15:21:29.268000Z,,2024-02-15T15:21:29.978725Z,2487.0,CVPIIDEI,2529,35,Male,DATA_EXPIRED,Philippines,United States,United States,English,DATA_EXPIRED,DATA_EXPIRED,Not Applicable
6003ef9269c7814f0ca7b46a,<b>Knowing what?s important in life is easy.,Highly disagree,41/94,Somewhat disagree,2,1708009895826,1708009900278,\Somewhat disagree\,\Somewhat disagree\,\2\,1708009899865,1708009899865,4039,4039,4452,buq,qns-item-noham,41,349464,0.0-1.0-0.40,65ce22434359fb1c228c66ea,AWAITING REVIEW,2024-02-15T14:40:03.087000Z,2024-02-15T15:21:29.268000Z,,2024-02-15T15:21:29.978725Z,2487.0,CVPIIDEI,2529,35,Male,DATA_EXPIRED,Philippines,United States,United States,English,DATA_EXPIRED,DATA_EXPIRED,Not Applicable
6003ef9269c7814f0ca7b46a,<b>I swim across the Atlantic Ocean to get to work every day.,Highly disagree,42/94,Highly disagree,1,1708009900279,1708009902859,\Highly disagree\,\Highly disagree\,\1\,1708009902290,1708009902290,2011,2011,2580,buq,qns-item-noham,42,352045,0.0-1.0-0.41,65ce22434359fb1c228c66ea,AWAITING REVIEW,2024-02-15T14:40:03.087000Z,2024-02-15T15:21:29.268000Z,,2024-02-15T15:21:29.978725Z,2487.0,CVPIIDEI,2529,35,Male,DATA_EXPIRED,Philippines,United States,United States,English,DATA_EXPIRED,DATA_EXPIRED,Not Applicable
6003ef9269c7814f0ca7b46a,"<b>Sometimes, you just have to ignore evidence that you know is wrong.",Highly disagree,43/94,Highly agree,4,1708009902861,1708009915255,\Highly agree\,\Highly agree\,\4\,1708009914699,1708009914699,11838,11838,12394,buq,qns-item-noham,43,364441,0.0-1.0-0.42,65ce22434359fb1c228c66ea,AWAITING REVIEW,2024-02-15T14:40:03.087000Z,2024-02-15T15:21:29.268000Z,,2024-02-15T15:21:29.978725Z,2487.0,CVPIIDEI,2529,35,Male,DATA_EXPIRED,Philippines,United States,United States,English,DATA_EXPIRED,DATA_EXPIRED,Not Applicable
6003ef9269c7814f0ca7b46a,<b>I have had some false beliefs.,Highly disagree,44/94,Somewhat agree,3,1708009915256,1708009921779,\Highly agree\,\Somewhat agree\,\4\,1708009918151,1708009920651,2895,5395,6523,buq,qns-item-noham,44,370965,0.0-1.0-0.43,65ce22434359fb1c228c66ea,AWAITING REVIEW,2024-02-15T14:40:03.087000Z,2024-02-15T15:21:29.268000Z,,2024-02-15T15:21:29.978725Z,2487.0,CVPIIDEI,2529,35,Male,DATA_EXPIRED,Philippines,United States,United States,English,DATA_EXPIRED,DATA_EXPIRED,Not Applicable
6003ef9269c7814f0ca7b46a,"<b>If one friend does something that upsets me, I sometimes start to distrust people in general.",Highly disagree,45/94,Somewhat agree,3,1708009921780,1708009928572,\Somewhat agree\,\Somewhat agree\,\3\,1708009928185,1708009928185,6405,6405,6792,buq,qns-item-noham,45,377758,0.0-1.0-0.44,65ce22434359fb1c228c66ea,AWAITING REVIEW,2024-02-15T14:40:03.087000Z,2024-02-15T15:21:29.268000Z,,2024-02-15T15:21:29.978725Z,2487.0,CVPIIDEI,2529,35,Male,DATA_EXPIRED,Philippines,United States,United States,English,DATA_EXPIRED,DATA_EXPIRED,Not Applicable
6003ef9269c7814f0ca7b46a,<b>The facts about most important matters are easy to find.,Highly disagree,46/94,Somewhat disagree,2,1708009928573,1708009964369,\Somewhat disagree\,\Somewhat disagree\,\2\,1708009963773,1708009963773,35200,35200,35796,buq,qns-item-noham,46,413555,0.0-1.0-0.45,65ce22434359fb1c228c66ea,AWAITING REVIEW,2024-02-15T14:40:03.087000Z,2024-02-15T15:21:29.268000Z,,2024-02-15T15:21:29.978725Z,2487.0,CVPIIDEI,2529,35,Male,DATA_EXPIRED,Philippines,United States,United States,English,DATA_EXPIRED,DATA_EXPIRED,Not Applicable
6003ef9269c7814f0ca7b46a,<b>It?s better to know what?s true than to know what?s moral.,Highly disagree,47/94,Highly agree,4,1708009964370,1708009976725,\Highly agree\,\Highly agree\,\4\,1708009976169,1708009976169,11799,11799,12355,buq,qns-item-noham,47,425911,0.0-1.0-0.46,65ce22434359fb1c228c66ea,AWAITING REVIEW,2024-02-15T14:40:03.087000Z,2024-02-15T15:21:29.268000Z,,2024-02-15T15:21:29.978725Z,2487.0,CVPIIDEI,2529,35,Male,DATA_EXPIRED,Philippines,United States,United States,English,DATA_EXPIRED,DATA_EXPIRED,Not Applicable
6003ef9269c7814f0ca7b46a,<b>I used to think the world was less complicated than I do now.,Highly disagree,48/94,Highly agree,4,1708009976726,1708009984896,\Highly agree\,\Highly agree\,\4\,1708009984444,1708009984444,7718,7718,8170,buq,qns-item-noham,48,434082,0.0-1.0-0.47,65ce22434359fb1c228c66ea,AWAITING REVIEW,2024-02-15T14:40:03.087000Z,2024-02-15T15:21:29.268000Z,,2024-02-15T15:21:29.978725Z,2487.0,CVPIIDEI,2529,35,Male,DATA_EXPIRED,Philippines,United States,United States,English,DATA_EXPIRED,DATA_EXPIRED,Not Applicable
6003ef9269c7814f0ca7b46a,<b>People are usually completely right or completely wrong.,Highly disagree,49/94,Highly disagree,1,1708009984897,1708009989388,\Highly disagree\,\Highly disagree\,\1\,1708009988169,1708009988169,3272,3272,4491,buq,qns-item-noham,49,438574,0.0-1.0-0.48,65ce22434359fb1c228c66ea,AWAITING REVIEW,2024-02-15T14:40:03.087000Z,2024-02-15T15:21:29.268000Z,,2024-02-15T15:21:29.978725Z,2487.0,CVPIIDEI,2529,35,Male,DATA_EXPIRED,Philippines,United States,United States,English,DATA_EXPIRED,DATA_EXPIRED,Not Applicable
6003ef9269c7814f0ca7b46a,<b>I spend a lot of time considering alternatives to my beliefs.,Highly disagree,50/94,Highly agree,4,1708009989389,1708009992489,\Highly agree\,\Highly agree\,\4\,1708009992024,1708009992024,2635,2635,3100,buq,qns-item-noham,50,441675,0.0-1.0-0.49,65ce22434359fb1c228c66ea,AWAITING REVIEW,2024-02-15T14:40:03.087000Z,2024-02-15T15:21:29.268000Z,,2024-02-15T15:21:29.978725Z,2487.0,CVPIIDEI,2529,35,Male,DATA_EXPIRED,Philippines,United States,United States,English,DATA_EXPIRED,DATA_EXPIRED,Not Applicable
6003ef9269c7814f0ca7b46a,"<b>Political enemies need to be defeated, not convinced.",Highly disagree,51/94,Highly disagree,1,1708009992491,1708009997605,\Highly disagree\,\Highly disagree\,\1\,1708009997062,1708009997062,4571,4571,5114,buq,qns-item-noham,51,446791,0.0-1.0-0.50,65ce22434359fb1c228c66ea,AWAITING REVIEW,2024-02-15T14:40:03.087000Z,2024-02-15T15:21:29.268000Z,,2024-02-15T15:21:29.978725Z,2487.0,CVPIIDEI,2529,35,Male,DATA_EXPIRED,Philippines,United States,United States,English,DATA_EXPIRED,DATA_EXPIRED,Not Applicable
6003ef9269c7814f0ca7b46a,<b>I form my political views only after meticulously gathering historical and present information about their policies.,Highly disagree,52/94,Somewhat agree,3,1708009997606,1708010003735,\Somewhat agree\,\Somewhat agree\,\3\,1708010003342,1708010003342,5736,5736,6129,buq,qns-item-noham,52,452921,0.0-1.0-0.51,65ce22434359fb1c228c66ea,AWAITING REVIEW,2024-02-15T14:40:03.087000Z,2024-02-15T15:21:29.268000Z,,2024-02-15T15:21:29.978725Z,2487.0,CVPIIDEI,2529,35,Male,DATA_EXPIRED,Philippines,United States,United States,English,DATA_EXPIRED,DATA_EXPIRED,Not Applicable
6003ef9269c7814f0ca7b46a,<b>It is difficult for me to remember the last time I was surprised by politics.,Highly disagree,53/94,Highly disagree,1,1708010003736,1708010010606,\Highly disagree\,\Highly disagree\,\1\,1708010009686,1708010009686,5950,5950,6870,buq,qns-item-noham,53,459792,0.0-1.0-0.52,65ce22434359fb1c228c66ea,AWAITING REVIEW,2024-02-15T14:40:03.087000Z,2024-02-15T15:21:29.268000Z,,2024-02-15T15:21:29.978725Z,2487.0,CVPIIDEI,2529,35,Male,DATA_EXPIRED,Philippines,United States,United States,English,DATA_EXPIRED,DATA_EXPIRED,Not Applicable
6003ef9269c7814f0ca7b46a,"<b>When I find out I?m wrong, I think a lot about my related beliefs.",Highly disagree,54/94,Highly agree,4,1708010010607,1708010016775,\Highly agree\,\Highly agree\,\4\,1708010015868,1708010015868,5261,5261,6168,buq,qns-item-noham,54,465961,0.0-1.0-0.53,65ce22434359fb1c228c66ea,AWAITING REVIEW,2024-02-15T14:40:03.087000Z,2024-02-15T15:21:29.268000Z,,2024-02-15T15:21:29.978725Z,2487.0,CVPIIDEI,2529,35,Male,DATA_EXPIRED,Philippines,United States,United States,English,DATA_EXPIRED,DATA_EXPIRED,Not Applicable
6003ef9269c7814f0ca7b46a,"<b>If the political party I support messes up, it makes me think you can?t trust anyone these days",Highly disagree,55/94,Somewhat agree,3,1708010016776,1708010024629,\Somewhat agree\,\Somewhat agree\,\3\,1708010024063,1708010024063,7287,7287,7853,buq,qns-item-noham,55,473815,0.0-1.0-0.54,65ce22434359fb1c228c66ea,AWAITING REVIEW,2024-02-15T14:40:03.087000Z,2024-02-15T15:21:29.268000Z,,2024-02-15T15:21:29.978725Z,2487.0,CVPIIDEI,2529,35,Male,DATA_EXPIRED,Philippines,United States,United States,English,DATA_EXPIRED,DATA_EXPIRED,Not Applicable
6003ef9269c7814f0ca7b46a,<b>People?s brains turn off when they talk about politics.,Highly disagree,56/94,Highly disagree,1,1708010024630,1708010035309,\Highly disagree\,\Highly disagree\,\1\,1708010034285,1708010034285,9655,9655,10679,buq,qns-item-noham,56,484495,0.0-1.0-0.55,65ce22434359fb1c228c66ea,AWAITING REVIEW,2024-02-15T14:40:03.087000Z,2024-02-15T15:21:29.268000Z,,2024-02-15T15:21:29.978725Z,2487.0,CVPIIDEI,2529,35,Male,DATA_EXPIRED,Philippines,United States,United States,English,DATA_EXPIRED,DATA_EXPIRED,Not Applicable
6003ef9269c7814f0ca7b46a,<b>People who are wrong are usually just ignoring the obvious.,Highly disagree,57/94,Highly agree,4,1708010035311,1708010044668,\Highly agree\,\Highly agree\,\4\,1708010043614,1708010043614,8303,8303,9357,buq,qns-item-noham,57,493854,0.0-1.0-0.56,65ce22434359fb1c228c66ea,AWAITING REVIEW,2024-02-15T14:40:03.087000Z,2024-02-15T15:21:29.268000Z,,2024-02-15T15:21:29.978725Z,2487.0,CVPIIDEI,2529,35,Male,DATA_EXPIRED,Philippines,United States,United States,English,DATA_EXPIRED,DATA_EXPIRED,Not Applicable
6003ef9269c7814f0ca7b46a,"<b>When forming my views on people, I rely more on what they are like now rather than rely on my past experience with them.",Highly disagree,58/94,Somewhat agree,3,1708010044670,1708010063174,\Somewhat agree\,\Somewhat agree\,\3\,1708010062813,1708010062813,18143,18143,18504,buq,qns-item-noham,58,512361,0.0-1.0-0.57,65ce22434359fb1c228c66ea,AWAITING REVIEW,2024-02-15T14:40:03.087000Z,2024-02-15T15:21:29.268000Z,,2024-02-15T15:21:29.978725Z,2487.0,CVPIIDEI,2529,35,Male,DATA_EXPIRED,Philippines,United States,United States,English,DATA_EXPIRED,DATA_EXPIRED,Not Applicable
6003ef9269c7814f0ca7b46a,"<b>When people contradict my beliefs, I usually know about their evidence already.",Highly disagree,59/94,Somewhat disagree,2,1708010063175,1708010072866,\Somewhat disagree\,\Somewhat disagree\,\2\,1708010072441,1708010072441,9266,9266,9691,buq,qns-item-noham,59,522052,0.0-1.0-0.58,65ce22434359fb1c228c66ea,AWAITING REVIEW,2024-02-15T14:40:03.087000Z,2024-02-15T15:21:29.268000Z,,2024-02-15T15:21:29.978725Z,2487.0,CVPIIDEI,2529,35,Male,DATA_EXPIRED,Philippines,United States,United States,English,DATA_EXPIRED,DATA_EXPIRED,Not Applicable
6003ef9269c7814f0ca7b46a,<b>Figuring out what?s true and what?s false mainly requires a strong moral compass.,Highly disagree,60/94,Somewhat disagree,2,1708010072867,1708010083663,\Somewhat disagree\,\Somewhat disagree\,\2\,1708010083081,1708010083081,10214,10214,10796,buq,qns-item-noham,60,532849,0.0-1.0-0.59,65ce22434359fb1c228c66ea,AWAITING REVIEW,2024-02-15T14:40:03.087000Z,2024-02-15T15:21:29.268000Z,,2024-02-15T15:21:29.978725Z,2487.0,CVPIIDEI,2529,35,Male,DATA_EXPIRED,Philippines,United States,United States,English,DATA_EXPIRED,DATA_EXPIRED,Not Applicable
6003ef9269c7814f0ca7b46a,"<b>Usually I?m wrong about simple things, not complicated ones.",Highly disagree,61/94,Somewhat disagree,2,1708010083665,1708010093154,\Somewhat disagree\,\Somewhat disagree\,\2\,1708010092494,1708010092494,8829,8829,9489,buq,qns-item-noham,61,542340,0.0-1.0-0.60,65ce22434359fb1c228c66ea,AWAITING REVIEW,2024-02-15T14:40:03.087000Z,2024-02-15T15:21:29.268000Z,,2024-02-15T15:21:29.978725Z,2487.0,CVPIIDEI,2529,35,Male,DATA_EXPIRED,Philippines,United States,United States,English,DATA_EXPIRED,DATA_EXPIRED,Not Applicable
6003ef9269c7814f0ca7b46a,<b>Getting all the information I want about important things is hard.,Highly disagree,62/94,Highly agree,4,1708010093155,1708010099752,\Highly agree\,\Highly agree\,\4\,1708010099092,1708010099092,5937,5937,6597,buq,qns-item-noham,62,548938,0.0-1.0-0.61,65ce22434359fb1c228c66ea,AWAITING REVIEW,2024-02-15T14:40:03.087000Z,2024-02-15T15:21:29.268000Z,,2024-02-15T15:21:29.978725Z,2487.0,CVPIIDEI,2529,35,Male,DATA_EXPIRED,Philippines,United States,United States,English,DATA_EXPIRED,DATA_EXPIRED,Not Applicable
6003ef9269c7814f0ca7b46a,<b>Most false beliefs spread because people try to deceive one another.,Highly disagree,63/94,Highly agree,4,1708010099753,1708010112122,\Highly agree\,\Highly agree\,\4\,1708010111475,1708010111475,11722,11722,12369,buq,qns-item-noham,63,561309,0.0-1.0-0.62,65ce22434359fb1c228c66ea,AWAITING REVIEW,2024-02-15T14:40:03.087000Z,2024-02-15T15:21:29.268000Z,,2024-02-15T15:21:29.978725Z,2487.0,CVPIIDEI,2529,35,Male,DATA_EXPIRED,Philippines,United States,United States,English,DATA_EXPIRED,DATA_EXPIRED,Not Applicable
6003ef9269c7814f0ca7b46a,<b>I can usually find something to agree with in most people?s beliefs.,Highly disagree,64/94,Highly agree,4,1708010112124,1708010118200,\Highly agree\,\Highly agree\,\4\,1708010117748,1708010117748,5624,5624,6076,buq,qns-item-noham,64,567386,0.0-1.0-0.63,65ce22434359fb1c228c66ea,AWAITING REVIEW,2024-02-15T14:40:03.087000Z,2024-02-15T15:21:29.268000Z,,2024-02-15T15:21:29.978725Z,2487.0,CVPIIDEI,2529,35,Male,DATA_EXPIRED,Philippines,United States,United States,English,DATA_EXPIRED,DATA_EXPIRED,Not Applicable
6003ef9269c7814f0ca7b46a,<b>I only form my views of people once I get to know them very well.,Highly disagree,65/94,Somewhat agree,3,1708010118201,1708010125848,\Somewhat agree\,\Somewhat agree\,\3\,1708010125295,1708010125295,7094,7094,7647,buq,qns-item-noham,65,575034,0.0-1.0-0.64,65ce22434359fb1c228c66ea,AWAITING REVIEW,2024-02-15T14:40:03.087000Z,2024-02-15T15:21:29.268000Z,,2024-02-15T15:21:29.978725Z,2487.0,CVPIIDEI,2529,35,Male,DATA_EXPIRED,Philippines,United States,United States,English,DATA_EXPIRED,DATA_EXPIRED,Not Applicable
6003ef9269c7814f0ca7b46a,"<b>When people tell me important things about the world, I usually believe them.",Highly disagree,66/94,Highly disagree,1,1708010125850,1708010135489,\Highly disagree\,\Highly disagree\,\1\,1708010135037,1708010135037,9187,9187,9639,buq,qns-item-noham,66,584675,0.0-1.0-0.65,65ce22434359fb1c228c66ea,AWAITING REVIEW,2024-02-15T14:40:03.087000Z,2024-02-15T15:21:29.268000Z,,2024-02-15T15:21:29.978725Z,2487.0,CVPIIDEI,2529,35,Male,DATA_EXPIRED,Philippines,United States,United States,English,DATA_EXPIRED,DATA_EXPIRED,Not Applicable
6003ef9269c7814f0ca7b46a,"<b>If a friend does something that upsets me, it reminds me what an unpredictable place the world is.",Highly disagree,67/94,Somewhat agree,3,1708010135490,1708010141189,\Somewhat agree\,\Somewhat agree\,\3\,1708010139567,1708010139567,4077,4077,5699,buq,qns-item-noham,67,590376,0.0-1.0-0.66,65ce22434359fb1c228c66ea,AWAITING REVIEW,2024-02-15T14:40:03.087000Z,2024-02-15T15:21:29.268000Z,,2024-02-15T15:21:29.978725Z,2487.0,CVPIIDEI,2529,35,Male,DATA_EXPIRED,Philippines,United States,United States,English,DATA_EXPIRED,DATA_EXPIRED,Not Applicable
6003ef9269c7814f0ca7b46a,<b>People tend to believe whatever is good for their friends.,Highly disagree,68/94,Highly agree,4,1708010141191,1708010150516,\Somewhat agree\,\Highly agree\,\3\,1708010148830,1708010150140,7639,8949,9325,buq,qns-item-noham,68,599702,0.0-1.0-0.67,65ce22434359fb1c228c66ea,AWAITING REVIEW,2024-02-15T14:40:03.087000Z,2024-02-15T15:21:29.268000Z,,2024-02-15T15:21:29.978725Z,2487.0,CVPIIDEI,2529,35,Male,DATA_EXPIRED,Philippines,United States,United States,English,DATA_EXPIRED,DATA_EXPIRED,Not Applicable
6003ef9269c7814f0ca7b46a,<b>I used to be more certain my beliefs were true.,Highly disagree,69/94,Somewhat agree,3,1708010150517,1708010158036,\Somewhat agree\,\Somewhat agree\,\3\,1708010157349,1708010157349,6832,6832,7519,buq,qns-item-noham,69,607222,0.0-1.0-0.68,65ce22434359fb1c228c66ea,AWAITING REVIEW,2024-02-15T14:40:03.087000Z,2024-02-15T15:21:29.268000Z,,2024-02-15T15:21:29.978725Z,2487.0,CVPIIDEI,2529,35,Male,DATA_EXPIRED,Philippines,United States,United States,English,DATA_EXPIRED,DATA_EXPIRED,Not Applicable
6003ef9269c7814f0ca7b46a,<b>It?s often pretty easy to figure out whether something is true based on who said it.,Highly disagree,70/94,Somewhat disagree,2,1708010158037,1708010165345,\Somewhat disagree\,\Somewhat disagree\,\2\,1708010164637,1708010164637,6600,6600,7308,buq,qns-item-noham,70,614531,0.0-1.0-0.69,65ce22434359fb1c228c66ea,AWAITING REVIEW,2024-02-15T14:40:03.087000Z,2024-02-15T15:21:29.268000Z,,2024-02-15T15:21:29.978725Z,2487.0,CVPIIDEI,2529,35,Male,DATA_EXPIRED,Philippines,United States,United States,English,DATA_EXPIRED,DATA_EXPIRED,Not Applicable
6003ef9269c7814f0ca7b46a,<b>I transform into a hummingbird every day.,Highly disagree,71/94,Highly disagree,1,1708010165346,1708010167641,\Highly disagree\,\Highly disagree\,\1\,1708010166993,1708010166993,1647,1647,2295,buq,qns-item-noham,71,616827,0.0-1.0-0.70,65ce22434359fb1c228c66ea,AWAITING REVIEW,2024-02-15T14:40:03.087000Z,2024-02-15T15:21:29.268000Z,,2024-02-15T15:21:29.978725Z,2487.0,CVPIIDEI,2529,35,Male,DATA_EXPIRED,Philippines,United States,United States,English,DATA_EXPIRED,DATA_EXPIRED,Not Applicable
6003ef9269c7814f0ca7b46a,<b>I think a lot about arguments against my views.,Highly disagree,72/94,Highly agree,4,1708010167642,1708010175444,\Highly agree\,\Highly agree\,\4\,1708010174737,1708010174954,7095,7312,7802,buq,qns-item-noham,72,624631,0.0-1.0-0.71,65ce22434359fb1c228c66ea,AWAITING REVIEW,2024-02-15T14:40:03.087000Z,2024-02-15T15:21:29.268000Z,,2024-02-15T15:21:29.978725Z,2487.0,CVPIIDEI,2529,35,Male,DATA_EXPIRED,Philippines,United States,United States,English,DATA_EXPIRED,DATA_EXPIRED,Not Applicable
6003ef9269c7814f0ca7b46a,<b>Personal experience is usually more important than facts and figures.,Highly disagree,73/94,Highly disagree,1,1708010175446,1708010182081,\Highly disagree\,\Highly disagree\,\1\,1708010181486,1708010181486,6040,6040,6635,buq,qns-item-noham,73,631267,0.0-1.0-0.72,65ce22434359fb1c228c66ea,AWAITING REVIEW,2024-02-15T14:40:03.087000Z,2024-02-15T15:21:29.268000Z,,2024-02-15T15:21:29.978725Z,2487.0,CVPIIDEI,2529,35,Male,DATA_EXPIRED,Philippines,United States,United States,English,DATA_EXPIRED,DATA_EXPIRED,Not Applicable
6003ef9269c7814f0ca7b46a,<b>I?ve been tricked before about important matters.,Highly disagree,74/94,Somewhat agree,3,1708010182082,1708010186431,\Somewhat agree\,\Somewhat agree\,\3\,1708010185926,1708010185926,3844,3844,4349,buq,qns-item-noham,74,635617,0.0-1.0-0.73,65ce22434359fb1c228c66ea,AWAITING REVIEW,2024-02-15T14:40:03.087000Z,2024-02-15T15:21:29.268000Z,,2024-02-15T15:21:29.978725Z,2487.0,CVPIIDEI,2529,35,Male,DATA_EXPIRED,Philippines,United States,United States,English,DATA_EXPIRED,DATA_EXPIRED,Not Applicable
6003ef9269c7814f0ca7b46a,<b>I would need to be totally wowed if I were to change my opinion of a restaurant I don?t like.,Highly disagree,75/94,Highly disagree,1,1708010186432,1708010196474,\Highly disagree\,\Highly disagree\,\1\,1708010194760,1708010194760,8328,8328,10042,buq,qns-item-noham,75,645660,0.0-1.0-0.74,65ce22434359fb1c228c66ea,AWAITING REVIEW,2024-02-15T14:40:03.087000Z,2024-02-15T15:21:29.268000Z,,2024-02-15T15:21:29.978725Z,2487.0,CVPIIDEI,2529,35,Male,DATA_EXPIRED,Philippines,United States,United States,English,DATA_EXPIRED,DATA_EXPIRED,Not Applicable
6003ef9269c7814f0ca7b46a,<b>I care a lot about politics.,Highly disagree,76/94,Somewhat agree,3,1708010196475,1708010198886,\Somewhat agree\,\Somewhat agree\,\3\,1708010198420,1708010198420,1945,1945,2411,buq,qns-item-noham,76,648072,0.0-1.0-0.75,65ce22434359fb1c228c66ea,AWAITING REVIEW,2024-02-15T14:40:03.087000Z,2024-02-15T15:21:29.268000Z,,2024-02-15T15:21:29.978725Z,2487.0,CVPIIDEI,2529,35,Male,DATA_EXPIRED,Philippines,United States,United States,English,DATA_EXPIRED,DATA_EXPIRED,Not Applicable
6003ef9269c7814f0ca7b46a,<b>There are some topics I?ve been really wrong about.,Highly disagree,77/94,Highly agree,4,1708010198887,1708010204392,\Highly agree\,\Highly agree\,\4\,1708010203927,1708010203927,5040,5040,5505,buq,qns-item-noham,77,653578,0.0-1.0-0.76,65ce22434359fb1c228c66ea,AWAITING REVIEW,2024-02-15T14:40:03.087000Z,2024-02-15T15:21:29.268000Z,,2024-02-15T15:21:29.978725Z,2487.0,CVPIIDEI,2529,35,Male,DATA_EXPIRED,Philippines,United States,United States,English,DATA_EXPIRED,DATA_EXPIRED,Not Applicable
6003ef9269c7814f0ca7b46a,<b>Most beliefs can be supported with at least some evidence.,Highly disagree,78/94,Somewhat disagree,2,1708010204393,1708010212110,\Somewhat disagree\,\Somewhat disagree\,\2\,1708010211645,1708010211645,7252,7252,7717,buq,qns-item-noham,78,661296,0.0-1.0-0.77,65ce22434359fb1c228c66ea,AWAITING REVIEW,2024-02-15T14:40:03.087000Z,2024-02-15T15:21:29.268000Z,,2024-02-15T15:21:29.978725Z,2487.0,CVPIIDEI,2529,35,Male,DATA_EXPIRED,Philippines,United States,United States,English,DATA_EXPIRED,DATA_EXPIRED,Not Applicable
6003ef9269c7814f0ca7b46a,<b>Other people make life out to be more complicated than it really is.,Highly disagree,79/94,Somewhat agree,3,1708010212111,1708010237921,\Somewhat agree\,\Somewhat agree\,\3\,1708010237508,1708010237508,25397,25397,25810,buq,qns-item-noham,79,687107,0.0-1.0-0.78,65ce22434359fb1c228c66ea,AWAITING REVIEW,2024-02-15T14:40:03.087000Z,2024-02-15T15:21:29.268000Z,,2024-02-15T15:21:29.978725Z,2487.0,CVPIIDEI,2529,35,Male,DATA_EXPIRED,Philippines,United States,United States,English,DATA_EXPIRED,DATA_EXPIRED,Not Applicable
6003ef9269c7814f0ca7b46a,"<b>Policy details don?t matter much, just the big picture.",Highly disagree,80/94,Highly disagree,1,1708010237922,1708010242283,\Highly disagree\,\Highly disagree\,\1\,1708010241935,1708010241935,4013,4013,4361,buq,qns-item-noham,80,691469,0.0-1.0-0.79,65ce22434359fb1c228c66ea,AWAITING REVIEW,2024-02-15T14:40:03.087000Z,2024-02-15T15:21:29.268000Z,,2024-02-15T15:21:29.978725Z,2487.0,CVPIIDEI,2529,35,Male,DATA_EXPIRED,Philippines,United States,United States,English,DATA_EXPIRED,DATA_EXPIRED,Not Applicable
6003ef9269c7814f0ca7b46a,<b>I know my friends so well they can hardly ever surprise me.,Highly disagree,81/94,Highly disagree,1,1708010242284,1708010247399,\Highly disagree\,\Highly disagree\,\1\,1708010246882,1708010246882,4598,4598,5115,buq,qns-item-noham,81,696585,0.0-1.0-0.80,65ce22434359fb1c228c66ea,AWAITING REVIEW,2024-02-15T14:40:03.087000Z,2024-02-15T15:21:29.268000Z,,2024-02-15T15:21:29.978725Z,2487.0,CVPIIDEI,2529,35,Male,DATA_EXPIRED,Philippines,United States,United States,English,DATA_EXPIRED,DATA_EXPIRED,Not Applicable
6003ef9269c7814f0ca7b46a,<b>I do not often change my views on people.,Highly disagree,82/94,Somewhat disagree,2,1708010247400,1708010260623,\Highly disagree\,\Somewhat disagree\,\1\,1708010251400,1708010256481,4000,9081,13223,buq,qns-item-noham,82,709809,0.0-1.0-0.81,65ce22434359fb1c228c66ea,AWAITING REVIEW,2024-02-15T14:40:03.087000Z,2024-02-15T15:21:29.268000Z,,2024-02-15T15:21:29.978725Z,2487.0,CVPIIDEI,2529,35,Male,DATA_EXPIRED,Philippines,United States,United States,English,DATA_EXPIRED,DATA_EXPIRED,Not Applicable
6003ef9269c7814f0ca7b46a,<b>I?m more certain about my beliefs than I used to be.,Highly disagree,83/94,Somewhat disagree,2,1708010260624,1708010264622,\Somewhat disagree\,\Somewhat disagree\,\2\,1708010264014,1708010264014,3390,3390,3998,buq,qns-item-noham,83,713809,0.0-1.0-0.82,65ce22434359fb1c228c66ea,AWAITING REVIEW,2024-02-15T14:40:03.087000Z,2024-02-15T15:21:29.268000Z,,2024-02-15T15:21:29.978725Z,2487.0,CVPIIDEI,2529,35,Male,DATA_EXPIRED,Philippines,United States,United States,English,DATA_EXPIRED,DATA_EXPIRED,Not Applicable
6003ef9269c7814f0ca7b46a,<b>People often tell falsehoods unintentionally.,Highly disagree,84/94,Somewhat agree,3,1708010264623,1708010273470,\Somewhat agree\,\Somewhat agree\,\3\,1708010271262,1708010271262,6639,6639,8847,buq,qns-item-noham,84,722656,0.0-1.0-0.83,65ce22434359fb1c228c66ea,AWAITING REVIEW,2024-02-15T14:40:03.087000Z,2024-02-15T15:21:29.268000Z,,2024-02-15T15:21:29.978725Z,2487.0,CVPIIDEI,2529,35,Male,DATA_EXPIRED,Philippines,United States,United States,English,DATA_EXPIRED,DATA_EXPIRED,Not Applicable
6003ef9269c7814f0ca7b46a,<b>Most people don?t know much about most things.,Highly disagree,85/94,Somewhat agree,3,1708010273471,1708010278780,\Somewhat agree\,\Somewhat agree\,\3\,1708010278341,1708010278341,4870,4870,5309,buq,qns-item-noham,85,727966,0.0-1.0-0.84,65ce22434359fb1c228c66ea,AWAITING REVIEW,2024-02-15T14:40:03.087000Z,2024-02-15T15:21:29.268000Z,,2024-02-15T15:21:29.978725Z,2487.0,CVPIIDEI,2529,35,Male,DATA_EXPIRED,Philippines,United States,United States,English,DATA_EXPIRED,DATA_EXPIRED,Not Applicable
6003ef9269c7814f0ca7b46a,"<b>If I find out something new about someone, I easily change my views about them.",Highly disagree,86/94,Somewhat agree,3,1708010278781,1708010303981,\Somewhat agree\,\Somewhat agree\,\3\,1708010303477,1708010303477,24696,24696,25200,buq,qns-item-noham,86,753167,0.0-1.0-0.85,65ce22434359fb1c228c66ea,AWAITING REVIEW,2024-02-15T14:40:03.087000Z,2024-02-15T15:21:29.268000Z,,2024-02-15T15:21:29.978725Z,2487.0,CVPIIDEI,2529,35,Male,DATA_EXPIRED,Philippines,United States,United States,English,DATA_EXPIRED,DATA_EXPIRED,Not Applicable
6003ef9269c7814f0ca7b46a,<b>Having true beliefs is difficult.,Highly disagree,87/94,Highly disagree,1,1708010303983,1708010313839,\Somewhat disagree\,\Highly disagree\,\2\,1708010310452,1708010310787,6469,6804,9856,buq,qns-item-noham,87,763025,0.0-1.0-0.86,65ce22434359fb1c228c66ea,AWAITING REVIEW,2024-02-15T14:40:03.087000Z,2024-02-15T15:21:29.268000Z,,2024-02-15T15:21:29.978725Z,2487.0,CVPIIDEI,2529,35,Male,DATA_EXPIRED,Philippines,United States,United States,English,DATA_EXPIRED,DATA_EXPIRED,Not Applicable
6003ef9269c7814f0ca7b46a,<b>I don?t try new foods since I know I won?t like them.,Highly disagree,88/94,Highly disagree,1,1708010313840,1708010318162,\Highly disagree\,\Highly disagree\,\1\,1708010317606,1708010317606,3766,3766,4322,buq,qns-item-noham,88,767348,0.0-1.0-0.87,65ce22434359fb1c228c66ea,AWAITING REVIEW,2024-02-15T14:40:03.087000Z,2024-02-15T15:21:29.268000Z,,2024-02-15T15:21:29.978725Z,2487.0,CVPIIDEI,2529,35,Male,DATA_EXPIRED,Philippines,United States,United States,English,DATA_EXPIRED,DATA_EXPIRED,Not Applicable
6003ef9269c7814f0ca7b46a,<b>Other people trick each other a lot.,Highly disagree,89/94,Somewhat disagree,2,1708010318163,1708010323486,\Somewhat disagree\,\Somewhat disagree\,\2\,1708010322917,1708010322917,4754,4754,5323,buq,qns-item-noham,89,772672,0.0-1.0-0.88,65ce22434359fb1c228c66ea,AWAITING REVIEW,2024-02-15T14:40:03.087000Z,2024-02-15T15:21:29.268000Z,,2024-02-15T15:21:29.978725Z,2487.0,CVPIIDEI,2529,35,Male,DATA_EXPIRED,Philippines,United States,United States,English,DATA_EXPIRED,DATA_EXPIRED,Not Applicable
6003ef9269c7814f0ca7b46a,<b>I would need to learn a lot about a person for my opinion of them to be swayed.,Highly disagree,90/94,Somewhat disagree,2,1708010323487,1708010329486,\Somewhat disagree\,\Somewhat disagree\,\2\,1708010328566,1708010328566,5079,5079,5999,buq,qns-item-noham,90,778672,0.0-1.0-0.89,65ce22434359fb1c228c66ea,AWAITING REVIEW,2024-02-15T14:40:03.087000Z,2024-02-15T15:21:29.268000Z,,2024-02-15T15:21:29.978725Z,2487.0,CVPIIDEI,2529,35,Male,DATA_EXPIRED,Philippines,United States,United States,English,DATA_EXPIRED,DATA_EXPIRED,Not Applicable
6003ef9269c7814f0ca7b46a,<b>People can?t usually trick me when it comes to topics I care about.,Highly disagree,91/94,Somewhat agree,3,1708010329488,1708010334966,\Somewhat agree\,\Somewhat agree\,\3\,1708010334436,1708010334436,4948,4948,5478,buq,qns-item-noham,91,784152,0.0-1.0-0.90,65ce22434359fb1c228c66ea,AWAITING REVIEW,2024-02-15T14:40:03.087000Z,2024-02-15T15:21:29.268000Z,,2024-02-15T15:21:29.978725Z,2487.0,CVPIIDEI,2529,35,Male,DATA_EXPIRED,Philippines,United States,United States,English,DATA_EXPIRED,DATA_EXPIRED,Not Applicable
6003ef9269c7814f0ca7b46a,<b>I do not often change my views on food.,Highly disagree,92/94,Highly disagree,1,1708010334967,1708010340096,\Highly disagree\,\Highly disagree\,\1\,1708010339734,1708010339734,4767,4767,5129,buq,qns-item-noham,92,789282,0.0-1.0-0.91,65ce22434359fb1c228c66ea,AWAITING REVIEW,2024-02-15T14:40:03.087000Z,2024-02-15T15:21:29.268000Z,,2024-02-15T15:21:29.978725Z,2487.0,CVPIIDEI,2529,35,Male,DATA_EXPIRED,Philippines,United States,United States,English,DATA_EXPIRED,DATA_EXPIRED,Not Applicable
6003ef9269c7814f0ca7b46a,<b>Specific policies are often very important to me.,Highly disagree,93/94,Somewhat disagree,2,1708010340097,1708010349410,\Somewhat disagree\,\Somewhat disagree\,\2\,1708010348053,1708010348053,7956,7956,9313,buq,qns-item-noham,93,798596,0.0-1.0-0.92,65ce22434359fb1c228c66ea,AWAITING REVIEW,2024-02-15T14:40:03.087000Z,2024-02-15T15:21:29.268000Z,,2024-02-15T15:21:29.978725Z,2487.0,CVPIIDEI,2529,35,Male,DATA_EXPIRED,Philippines,United States,United States,English,DATA_EXPIRED,DATA_EXPIRED,Not Applicable
6003ef9269c7814f0ca7b46a,<b>Most people are woefully under-informed.,Highly disagree,94/94,Highly agree,4,1708010349411,1708010352810,\Highly agree\,\Highly agree\,\4\,1708010352255,1708010352255,2844,2844,3399,buq,qns-item-noham,94,801996,0.0-1.0-0.93,65ce22434359fb1c228c66ea,AWAITING REVIEW,2024-02-15T14:40:03.087000Z,2024-02-15T15:21:29.268000Z,,2024-02-15T15:21:29.978725Z,2487.0,CVPIIDEI,2529,35,Male,DATA_EXPIRED,Philippines,United States,United States,English,DATA_EXPIRED,DATA_EXPIRED,Not Applicable
6003ef9269c7814f0ca7b46a,,,,,,,,,,,,,,,,,,,,,65ce22434359fb1c228c66ea,AWAITING REVIEW,2024-02-15T14:40:03.087000Z,2024-02-15T15:21:29.268000Z,,2024-02-15T15:21:29.978725Z,2487.0,CVPIIDEI,2529,35,Male,DATA_EXPIRED,Philippines,United States,United States,English,DATA_EXPIRED,DATA_EXPIRED,Not Applicable
