PROLIFIC_PID,Question,qns_options,quest_num,answer,answer_num,question_load_timestamp,next_btn_timestamp,text_selected,final_text_selected,option_num_selected,preview_timestamps,final_text_selected_time_stamp,rt_first_option_click,rt_final_option_click,rt_submit_click,questionnaire,trial_type,trial_index,time_elapsed,internal_node_id,Demographic_Submission id,Demographic_Status,Demographic_Started at,Demographic_Completed at,Demographic_Reviewed at,Demographic_Archived at,Demographic_Time taken,Demographic_Completion code,Demographic_Total approvals,Demographic_Age,Demographic_Sex,Demographic_Ethnicity simplified,Demographic_Country of birth,Demographic_Country of residence,Demographic_Nationality,Demographic_Language,Demographic_Student status,Demographic_Employment status,Demographic_Custom study tncs accepted at
6599312cf5e647dbf119f679,<b>Knowing what?s true and knowing what to do about it are usually basically the same.,Highly disagree,1/94,Somewhat agree,3,1708009798777,1708009803926,\Somewhat agree\,\Somewhat agree\,\3\,1708009801518,1708009801518,2741,2741,5149,buq,qns-item-noham,1,11405,0.0-1.0-0.0,65ce22690fa6c2d702eb8d1a,AWAITING REVIEW,2024-02-15T14:40:54.400000Z,2024-02-15T15:13:59.956000Z,,2024-02-15T15:14:00.659233Z,1986.0,CVPIIDEI,253,36,Male,Black,Nigeria,United States,United States,English,Yes,Full-Time,Not Applicable
6599312cf5e647dbf119f679,<b>Most people just believe whatever is convenient for them.,Highly disagree,2/94,Somewhat agree,3,1708009803929,1708009807194,\Somewhat agree\,\Somewhat agree\,\3\,1708009805975,1708009805975,2046,2046,3265,buq,qns-item-noham,2,14673,0.0-1.0-0.1,65ce22690fa6c2d702eb8d1a,AWAITING REVIEW,2024-02-15T14:40:54.400000Z,2024-02-15T15:13:59.956000Z,,2024-02-15T15:14:00.659233Z,1986.0,CVPIIDEI,253,36,Male,Black,Nigeria,United States,United States,English,Yes,Full-Time,Not Applicable
6599312cf5e647dbf119f679,<b>Having some big beliefs helps me sort out minor ones.,Highly disagree,3/94,Somewhat disagree,2,1708009807196,1708009809593,\Somewhat disagree\,\Somewhat disagree\,\2\,1708009808364,1708009808364,1168,1168,2397,buq,qns-item-noham,3,17072,0.0-1.0-0.2,65ce22690fa6c2d702eb8d1a,AWAITING REVIEW,2024-02-15T14:40:54.400000Z,2024-02-15T15:13:59.956000Z,,2024-02-15T15:14:00.659233Z,1986.0,CVPIIDEI,253,36,Male,Black,Nigeria,United States,United States,English,Yes,Full-Time,Not Applicable
6599312cf5e647dbf119f679,<b>Political questions are usually pretty complicated.,Highly disagree,4/94,Somewhat disagree,2,1708009809596,1708009812482,\Somewhat disagree\,\Somewhat disagree\,\2\,1708009810972,1708009810972,1376,1376,2886,buq,qns-item-noham,4,19961,0.0-1.0-0.3,65ce22690fa6c2d702eb8d1a,AWAITING REVIEW,2024-02-15T14:40:54.400000Z,2024-02-15T15:13:59.956000Z,,2024-02-15T15:14:00.659233Z,1986.0,CVPIIDEI,253,36,Male,Black,Nigeria,United States,United States,English,Yes,Full-Time,Not Applicable
6599312cf5e647dbf119f679,<b>Figuring out what?s important in life requires learning a lot of facts.,Highly disagree,5/94,Somewhat disagree,2,1708009812484,1708009815329,\Somewhat disagree\,\Somewhat disagree\,\2\,1708009813991,1708009813991,1507,1507,2845,buq,qns-item-noham,5,22808,0.0-1.0-0.4,65ce22690fa6c2d702eb8d1a,AWAITING REVIEW,2024-02-15T14:40:54.400000Z,2024-02-15T15:13:59.956000Z,,2024-02-15T15:14:00.659233Z,1986.0,CVPIIDEI,253,36,Male,Black,Nigeria,United States,United States,English,Yes,Full-Time,Not Applicable
6599312cf5e647dbf119f679,<b>It is difficult for me to remember the last time I was surprised by politics.,Highly disagree,6/94,Somewhat agree,3,1708009815332,1708009817689,\Somewhat agree\,\Somewhat agree\,\3\,1708009816509,1708009816509,1177,1177,2357,buq,qns-item-noham,6,25168,0.0-1.0-0.5,65ce22690fa6c2d702eb8d1a,AWAITING REVIEW,2024-02-15T14:40:54.400000Z,2024-02-15T15:13:59.956000Z,,2024-02-15T15:14:00.659233Z,1986.0,CVPIIDEI,253,36,Male,Black,Nigeria,United States,United States,English,Yes,Full-Time,Not Applicable
6599312cf5e647dbf119f679,<b>People?s false beliefs are understandable.,Highly disagree,7/94,Somewhat disagree,2,1708009817692,1708009820945,\Somewhat disagree\,\Somewhat disagree\,\2\,1708009818948,1708009819958,1256,2266,3253,buq,qns-item-noham,7,28424,0.0-1.0-0.6,65ce22690fa6c2d702eb8d1a,AWAITING REVIEW,2024-02-15T14:40:54.400000Z,2024-02-15T15:13:59.956000Z,,2024-02-15T15:14:00.659233Z,1986.0,CVPIIDEI,253,36,Male,Black,Nigeria,United States,United States,English,Yes,Full-Time,Not Applicable
6599312cf5e647dbf119f679,<b>I spend a lot of time trying to be informed about politics.,Highly disagree,8/94,Somewhat agree,3,1708009820948,1708009826682,\Somewhat agree\,\Somewhat agree\,\3\,1708009824993,1708009824993,4045,4045,5734,buq,qns-item-noham,8,34161,0.0-1.0-0.7,65ce22690fa6c2d702eb8d1a,AWAITING REVIEW,2024-02-15T14:40:54.400000Z,2024-02-15T15:13:59.956000Z,,2024-02-15T15:14:00.659233Z,1986.0,CVPIIDEI,253,36,Male,Black,Nigeria,United States,United States,English,Yes,Full-Time,Not Applicable
6599312cf5e647dbf119f679,<b>I think a lot about whether my beliefs are right.,Highly disagree,9/94,Somewhat disagree,2,1708009826685,1708009829511,\Somewhat disagree\,\Somewhat disagree\,\2\,1708009827982,1708009827982,1297,1297,2826,buq,qns-item-noham,9,36990,0.0-1.0-0.8,65ce22690fa6c2d702eb8d1a,AWAITING REVIEW,2024-02-15T14:40:54.400000Z,2024-02-15T15:13:59.956000Z,,2024-02-15T15:14:00.659233Z,1986.0,CVPIIDEI,253,36,Male,Black,Nigeria,United States,United States,English,Yes,Full-Time,Not Applicable
6599312cf5e647dbf119f679,<b>Statistics can be pretty misleading sometimes.,Highly disagree,10/94,Somewhat agree,3,1708009829512,1708009832660,\Somewhat agree\,\Somewhat agree\,\3\,1708009831129,1708009831129,1617,1617,3148,buq,qns-item-noham,10,40139,0.0-1.0-0.9,65ce22690fa6c2d702eb8d1a,AWAITING REVIEW,2024-02-15T14:40:54.400000Z,2024-02-15T15:13:59.956000Z,,2024-02-15T15:14:00.659233Z,1986.0,CVPIIDEI,253,36,Male,Black,Nigeria,United States,United States,English,Yes,Full-Time,Not Applicable
6599312cf5e647dbf119f679,<b>I have lots of beliefs that I?m only sort of sure about.,Highly disagree,11/94,Somewhat disagree,2,1708009832664,1708009834896,\Somewhat disagree\,\Somewhat disagree\,\2\,1708009833788,1708009833788,1124,1124,2232,buq,qns-item-noham,11,42376,0.0-1.0-0.10,65ce22690fa6c2d702eb8d1a,AWAITING REVIEW,2024-02-15T14:40:54.400000Z,2024-02-15T15:13:59.956000Z,,2024-02-15T15:14:00.659233Z,1986.0,CVPIIDEI,253,36,Male,Black,Nigeria,United States,United States,English,Yes,Full-Time,Not Applicable
6599312cf5e647dbf119f679,"<b>If I go to my favorite restaurant and the food is surprisingly bad, it reminds me there are many disappointments in life.",Highly disagree,12/94,Somewhat agree,3,1708009834899,1708009837296,\Somewhat agree\,\Somewhat agree\,\3\,1708009836335,1708009836335,1436,1436,2397,buq,qns-item-noham,12,44775,0.0-1.0-0.11,65ce22690fa6c2d702eb8d1a,AWAITING REVIEW,2024-02-15T14:40:54.400000Z,2024-02-15T15:13:59.956000Z,,2024-02-15T15:14:00.659233Z,1986.0,CVPIIDEI,253,36,Male,Black,Nigeria,United States,United States,English,Yes,Full-Time,Not Applicable
6599312cf5e647dbf119f679,"<b>If you are paying attention, please select ?Somewhat agree?",Highly disagree,13/94,Somewhat agree,3,1708009837298,1708009844510,\Somewhat agree\,\Somewhat agree\,\3\,1708009843151,1708009843151,5853,5853,7212,buq,qns-item-noham,13,51989,0.0-1.0-0.12,65ce22690fa6c2d702eb8d1a,AWAITING REVIEW,2024-02-15T14:40:54.400000Z,2024-02-15T15:13:59.956000Z,,2024-02-15T15:14:00.659233Z,1986.0,CVPIIDEI,253,36,Male,Black,Nigeria,United States,United States,English,Yes,Full-Time,Not Applicable
6599312cf5e647dbf119f679,"<b>When I talk to others, I often worry I?ll convince them of something I didn?t mean to.",Highly disagree,14/94,Somewhat agree,3,1708009844512,1708009847318,\Somewhat agree\,\Somewhat agree\,\3\,1708009845970,1708009845970,1458,1458,2806,buq,qns-item-noham,14,54797,0.0-1.0-0.13,65ce22690fa6c2d702eb8d1a,AWAITING REVIEW,2024-02-15T14:40:54.400000Z,2024-02-15T15:13:59.956000Z,,2024-02-15T15:14:00.659233Z,1986.0,CVPIIDEI,253,36,Male,Black,Nigeria,United States,United States,English,Yes,Full-Time,Not Applicable
6599312cf5e647dbf119f679,<b>I would need to learn something utterly shocking about my party in order to change my political views.,Highly disagree,15/94,Somewhat disagree,2,1708009847321,1708009850026,\Somewhat disagree\,\Somewhat disagree\,\2\,1708009848718,1708009848718,1397,1397,2705,buq,qns-item-noham,15,57505,0.0-1.0-0.14,65ce22690fa6c2d702eb8d1a,AWAITING REVIEW,2024-02-15T14:40:54.400000Z,2024-02-15T15:13:59.956000Z,,2024-02-15T15:14:00.659233Z,1986.0,CVPIIDEI,253,36,Male,Black,Nigeria,United States,United States,English,Yes,Full-Time,Not Applicable
6599312cf5e647dbf119f679,"<b>When I have new experiences, I tend to think of them as unique.",Highly disagree,16/94,Somewhat agree,3,1708009850029,1708009852534,\Somewhat agree\,\Somewhat agree\,\3\,1708009851585,1708009851585,1556,1556,2505,buq,qns-item-noham,16,60013,0.0-1.0-0.15,65ce22690fa6c2d702eb8d1a,AWAITING REVIEW,2024-02-15T14:40:54.400000Z,2024-02-15T15:13:59.956000Z,,2024-02-15T15:14:00.659233Z,1986.0,CVPIIDEI,253,36,Male,Black,Nigeria,United States,United States,English,Yes,Full-Time,Not Applicable
6599312cf5e647dbf119f679,<b>I change my mind about specific policies pretty frequently.,Highly disagree,17/94,Somewhat disagree,2,1708009852538,1708009854933,\Somewhat disagree\,\Somewhat disagree\,\2\,1708009853793,1708009853793,1255,1255,2395,buq,qns-item-noham,17,62413,0.0-1.0-0.16,65ce22690fa6c2d702eb8d1a,AWAITING REVIEW,2024-02-15T14:40:54.400000Z,2024-02-15T15:13:59.956000Z,,2024-02-15T15:14:00.659233Z,1986.0,CVPIIDEI,253,36,Male,Black,Nigeria,United States,United States,English,Yes,Full-Time,Not Applicable
6599312cf5e647dbf119f679,"<b>If a politician in my political party supports something I disagree with, I give them the benefit of the doubt, as such issues often involve hidden complexities that aren?t obvious.   ",Highly disagree,18/94,Somewhat agree,3,1708009854942,1708009858640,\Somewhat agree\,\Somewhat agree\,\3\,1708009856371,1708009856371,1429,1429,3698,buq,qns-item-noham,18,66120,0.0-1.0-0.17,65ce22690fa6c2d702eb8d1a,AWAITING REVIEW,2024-02-15T14:40:54.400000Z,2024-02-15T15:13:59.956000Z,,2024-02-15T15:14:00.659233Z,1986.0,CVPIIDEI,253,36,Male,Black,Nigeria,United States,United States,English,Yes,Full-Time,Not Applicable
6599312cf5e647dbf119f679,<b>People?s bad politics are usually motivated by hatefulness.,Highly disagree,19/94,Somewhat disagree,2,1708009858646,1708009861008,\Somewhat disagree\,\Somewhat disagree\,\2\,1708009859879,1708009859879,1233,1233,2362,buq,qns-item-noham,19,68487,0.0-1.0-0.18,65ce22690fa6c2d702eb8d1a,AWAITING REVIEW,2024-02-15T14:40:54.400000Z,2024-02-15T15:13:59.956000Z,,2024-02-15T15:14:00.659233Z,1986.0,CVPIIDEI,253,36,Male,Black,Nigeria,United States,United States,English,Yes,Full-Time,Not Applicable
6599312cf5e647dbf119f679,<b>I think a lot about how to reconcile my beliefs with one another.,Highly disagree,20/94,Somewhat agree,3,1708009861011,1708009863686,\Somewhat agree\,\Somewhat agree\,\3\,1708009862407,1708009862407,1396,1396,2675,buq,qns-item-noham,20,71166,0.0-1.0-0.19,65ce22690fa6c2d702eb8d1a,AWAITING REVIEW,2024-02-15T14:40:54.400000Z,2024-02-15T15:13:59.956000Z,,2024-02-15T15:14:00.659233Z,1986.0,CVPIIDEI,253,36,Male,Black,Nigeria,United States,United States,English,Yes,Full-Time,Not Applicable
6599312cf5e647dbf119f679,<b>I might have false beliefs about important topics.,Highly disagree,21/94,Somewhat agree,3,1708009863689,1708009866913,\Somewhat agree\,\Somewhat agree\,\3\,1708009864915,1708009864915,1226,1226,3224,buq,qns-item-noham,21,74392,0.0-1.0-0.20,65ce22690fa6c2d702eb8d1a,AWAITING REVIEW,2024-02-15T14:40:54.400000Z,2024-02-15T15:13:59.956000Z,,2024-02-15T15:14:00.659233Z,1986.0,CVPIIDEI,253,36,Male,Black,Nigeria,United States,United States,English,Yes,Full-Time,Not Applicable
6599312cf5e647dbf119f679,"<b>If a good friend of mine does something unexpected that upsets me, I feel like I don?t know them anymore.",Highly disagree,22/94,Somewhat agree,3,1708009866917,1708009869461,\Somewhat agree\,\Somewhat agree\,\3\,1708009868262,1708009868262,1345,1345,2544,buq,qns-item-noham,22,76940,0.0-1.0-0.21,65ce22690fa6c2d702eb8d1a,AWAITING REVIEW,2024-02-15T14:40:54.400000Z,2024-02-15T15:13:59.956000Z,,2024-02-15T15:14:00.659233Z,1986.0,CVPIIDEI,253,36,Male,Black,Nigeria,United States,United States,English,Yes,Full-Time,Not Applicable
6599312cf5e647dbf119f679,<b>Other people?s beliefs are often incoherent.,Highly disagree,23/94,Somewhat agree,3,1708009869463,1708009872059,\Somewhat agree\,\Somewhat agree\,\3\,1708009870761,1708009870761,1298,1298,2596,buq,qns-item-noham,23,79538,0.0-1.0-0.22,65ce22690fa6c2d702eb8d1a,AWAITING REVIEW,2024-02-15T14:40:54.400000Z,2024-02-15T15:13:59.956000Z,,2024-02-15T15:14:00.659233Z,1986.0,CVPIIDEI,253,36,Male,Black,Nigeria,United States,United States,English,Yes,Full-Time,Not Applicable
6599312cf5e647dbf119f679,"<b>Every now and then, a new experience will unsettle beliefs I?ve had for a while.",Highly disagree,24/94,Somewhat disagree,2,1708009872062,1708009874448,\Somewhat disagree\,\Somewhat disagree\,\2\,1708009873218,1708009873218,1156,1156,2386,buq,qns-item-noham,24,81927,0.0-1.0-0.23,65ce22690fa6c2d702eb8d1a,AWAITING REVIEW,2024-02-15T14:40:54.400000Z,2024-02-15T15:13:59.956000Z,,2024-02-15T15:14:00.659233Z,1986.0,CVPIIDEI,253,36,Male,Black,Nigeria,United States,United States,English,Yes,Full-Time,Not Applicable
6599312cf5e647dbf119f679,<b>Some policies I agree with in principle are so bad I don?t support them. ,Highly disagree,25/94,Somewhat disagree,2,1708009874450,1708009876408,\Somewhat disagree\,\Somewhat disagree\,\2\,1708009875468,1708009875468,1018,1018,1958,buq,qns-item-noham,25,83887,0.0-1.0-0.24,65ce22690fa6c2d702eb8d1a,AWAITING REVIEW,2024-02-15T14:40:54.400000Z,2024-02-15T15:13:59.956000Z,,2024-02-15T15:14:00.659233Z,1986.0,CVPIIDEI,253,36,Male,Black,Nigeria,United States,United States,English,Yes,Full-Time,Not Applicable
6599312cf5e647dbf119f679,<b>I?m pretty sure I?ve accidentally spread false information.,Highly disagree,26/94,Somewhat agree,3,1708009876411,1708009877595,\Somewhat agree\,\Somewhat agree\,\3\,1708009876978,1708009876978,567,567,1184,buq,qns-item-noham,26,85074,0.0-1.0-0.25,65ce22690fa6c2d702eb8d1a,AWAITING REVIEW,2024-02-15T14:40:54.400000Z,2024-02-15T15:13:59.956000Z,,2024-02-15T15:14:00.659233Z,1986.0,CVPIIDEI,253,36,Male,Black,Nigeria,United States,United States,English,Yes,Full-Time,Not Applicable
6599312cf5e647dbf119f679,"<b>If I go to my favorite restaurant and the food is unexpectedly bad, then they have changed owners.",Highly disagree,27/94,Somewhat agree,3,1708009877598,1708009878871,\Somewhat agree\,\Somewhat agree\,\3\,1708009878253,1708009878253,655,655,1273,buq,qns-item-noham,27,86350,0.0-1.0-0.26,65ce22690fa6c2d702eb8d1a,AWAITING REVIEW,2024-02-15T14:40:54.400000Z,2024-02-15T15:13:59.956000Z,,2024-02-15T15:14:00.659233Z,1986.0,CVPIIDEI,253,36,Male,Black,Nigeria,United States,United States,English,Yes,Full-Time,Not Applicable
6599312cf5e647dbf119f679,"<b>In politics, it?s important to trust your friends and family.",Highly disagree,28/94,Somewhat disagree,2,1708009878876,1708009880109,\Somewhat disagree\,\Somewhat disagree\,\2\,1708009879422,1708009879422,546,546,1233,buq,qns-item-noham,28,87588,0.0-1.0-0.27,65ce22690fa6c2d702eb8d1a,AWAITING REVIEW,2024-02-15T14:40:54.400000Z,2024-02-15T15:13:59.956000Z,,2024-02-15T15:14:00.659233Z,1986.0,CVPIIDEI,253,36,Male,Black,Nigeria,United States,United States,English,Yes,Full-Time,Not Applicable
6599312cf5e647dbf119f679,<b>It?s OK to have some conflicting beliefs.,Highly disagree,29/94,Somewhat agree,3,1708009880112,1708009881190,\Somewhat agree\,\Somewhat agree\,\3\,1708009880607,1708009880607,495,495,1078,buq,qns-item-noham,29,88669,0.0-1.0-0.28,65ce22690fa6c2d702eb8d1a,AWAITING REVIEW,2024-02-15T14:40:54.400000Z,2024-02-15T15:13:59.956000Z,,2024-02-15T15:14:00.659233Z,1986.0,CVPIIDEI,253,36,Male,Black,Nigeria,United States,United States,English,Yes,Full-Time,Not Applicable
6599312cf5e647dbf119f679,<b>Listening to people I disagree with makes my opinions better.,Highly disagree,30/94,Somewhat agree,3,1708009881192,1708009882252,\Somewhat agree\,\Somewhat agree\,\3\,1708009881762,1708009881762,570,570,1060,buq,qns-item-noham,30,89731,0.0-1.0-0.29,65ce22690fa6c2d702eb8d1a,AWAITING REVIEW,2024-02-15T14:40:54.400000Z,2024-02-15T15:13:59.956000Z,,2024-02-15T15:14:00.659233Z,1986.0,CVPIIDEI,253,36,Male,Black,Nigeria,United States,United States,English,Yes,Full-Time,Not Applicable
6599312cf5e647dbf119f679,<b>My moral compass sometimes makes it harder to determine what?s true.,Highly disagree,31/94,Somewhat agree,3,1708009882255,1708009886867,\Somewhat agree\,\Somewhat agree\,\3\,1708009886284,1708009886284,4029,4029,4612,buq,qns-item-noham,31,94346,0.0-1.0-0.30,65ce22690fa6c2d702eb8d1a,AWAITING REVIEW,2024-02-15T14:40:54.400000Z,2024-02-15T15:13:59.956000Z,,2024-02-15T15:14:00.659233Z,1986.0,CVPIIDEI,253,36,Male,Black,Nigeria,United States,United States,English,Yes,Full-Time,Not Applicable
6599312cf5e647dbf119f679,<b>Evidence pointing in the wrong direction isn?t really evidence at all.,Highly disagree,32/94,Somewhat agree,3,1708009886871,1708009888525,\Somewhat agree\,\Somewhat agree\,\3\,1708009887897,1708009887897,1026,1026,1654,buq,qns-item-noham,32,96004,0.0-1.0-0.31,65ce22690fa6c2d702eb8d1a,AWAITING REVIEW,2024-02-15T14:40:54.400000Z,2024-02-15T15:13:59.956000Z,,2024-02-15T15:14:00.659233Z,1986.0,CVPIIDEI,253,36,Male,Black,Nigeria,United States,United States,English,Yes,Full-Time,Not Applicable
6599312cf5e647dbf119f679,"<b>If the political party I support messes up, it makes me think politics is rotten.",Highly disagree,33/94,Somewhat agree,3,1708009888528,1708009890038,\Somewhat agree\,\Somewhat agree\,\3\,1708009889322,1708009889322,794,794,1510,buq,qns-item-noham,33,97518,0.0-1.0-0.32,65ce22690fa6c2d702eb8d1a,AWAITING REVIEW,2024-02-15T14:40:54.400000Z,2024-02-15T15:13:59.956000Z,,2024-02-15T15:14:00.659233Z,1986.0,CVPIIDEI,253,36,Male,Black,Nigeria,United States,United States,English,Yes,Full-Time,Not Applicable
6599312cf5e647dbf119f679,<b>Lots of important topics can only really be understood by some groups of people.,Highly disagree,34/94,Somewhat disagree,2,1708009890042,1708009891295,\Somewhat disagree\,\Somewhat disagree\,\2\,1708009890716,1708009890716,674,674,1253,buq,qns-item-noham,34,98774,0.0-1.0-0.33,65ce22690fa6c2d702eb8d1a,AWAITING REVIEW,2024-02-15T14:40:54.400000Z,2024-02-15T15:13:59.956000Z,,2024-02-15T15:14:00.659233Z,1986.0,CVPIIDEI,253,36,Male,Black,Nigeria,United States,United States,English,Yes,Full-Time,Not Applicable
6599312cf5e647dbf119f679,<b>Having conflicting beliefs means you haven?t thought about them enough.,Highly disagree,35/94,Somewhat disagree,2,1708009891298,1708009892626,\Somewhat disagree\,\Somewhat disagree\,\2\,1708009891991,1708009891991,693,693,1328,buq,qns-item-noham,35,100105,0.0-1.0-0.34,65ce22690fa6c2d702eb8d1a,AWAITING REVIEW,2024-02-15T14:40:54.400000Z,2024-02-15T15:13:59.956000Z,,2024-02-15T15:14:00.659233Z,1986.0,CVPIIDEI,253,36,Male,Black,Nigeria,United States,United States,English,Yes,Full-Time,Not Applicable
6599312cf5e647dbf119f679,<b>I do not often change my political opinions.,Highly disagree,36/94,Somewhat agree,3,1708009892630,1708009893939,\Somewhat agree\,\Somewhat agree\,\3\,1708009893342,1708009893342,712,712,1309,buq,qns-item-noham,36,101418,0.0-1.0-0.35,65ce22690fa6c2d702eb8d1a,AWAITING REVIEW,2024-02-15T14:40:54.400000Z,2024-02-15T15:13:59.956000Z,,2024-02-15T15:14:00.659233Z,1986.0,CVPIIDEI,253,36,Male,Black,Nigeria,United States,United States,English,Yes,Full-Time,Not Applicable
6599312cf5e647dbf119f679,<b>It?s difficult to not have at least some conflicting beliefs.,Highly disagree,37/94,Somewhat agree,3,1708009893941,1708009895230,\Somewhat agree\,\Somewhat agree\,\3\,1708009894561,1708009894561,620,620,1289,buq,qns-item-noham,37,102709,0.0-1.0-0.36,65ce22690fa6c2d702eb8d1a,AWAITING REVIEW,2024-02-15T14:40:54.400000Z,2024-02-15T15:13:59.956000Z,,2024-02-15T15:14:00.659233Z,1986.0,CVPIIDEI,253,36,Male,Black,Nigeria,United States,United States,English,Yes,Full-Time,Not Applicable
6599312cf5e647dbf119f679,<b>Wishful thinking causes a lot of problems.,Highly disagree,38/94,Somewhat agree,3,1708009895234,1708009896513,\Somewhat agree\,\Somewhat agree\,\3\,1708009895922,1708009895922,688,688,1279,buq,qns-item-noham,38,103992,0.0-1.0-0.37,65ce22690fa6c2d702eb8d1a,AWAITING REVIEW,2024-02-15T14:40:54.400000Z,2024-02-15T15:13:59.956000Z,,2024-02-15T15:14:00.659233Z,1986.0,CVPIIDEI,253,36,Male,Black,Nigeria,United States,United States,English,Yes,Full-Time,Not Applicable
6599312cf5e647dbf119f679,<b>I judge a food item only once I try it many times.,Highly disagree,39/94,Somewhat agree,3,1708009896517,1708009897772,\Somewhat agree\,\Somewhat agree\,\3\,1708009897139,1708009897139,622,622,1255,buq,qns-item-noham,39,105251,0.0-1.0-0.38,65ce22690fa6c2d702eb8d1a,AWAITING REVIEW,2024-02-15T14:40:54.400000Z,2024-02-15T15:13:59.956000Z,,2024-02-15T15:14:00.659233Z,1986.0,CVPIIDEI,253,36,Male,Black,Nigeria,United States,United States,English,Yes,Full-Time,Not Applicable
6599312cf5e647dbf119f679,"<b>When a person holds conflicting beliefs, they should really try to figure out what?s wrong.",Highly disagree,40/94,Somewhat disagree,2,1708009897775,1708009899493,\Somewhat disagree\,\Somewhat disagree\,\2\,1708009898420,1708009898420,645,645,1718,buq,qns-item-noham,40,106972,0.0-1.0-0.39,65ce22690fa6c2d702eb8d1a,AWAITING REVIEW,2024-02-15T14:40:54.400000Z,2024-02-15T15:13:59.956000Z,,2024-02-15T15:14:00.659233Z,1986.0,CVPIIDEI,253,36,Male,Black,Nigeria,United States,United States,English,Yes,Full-Time,Not Applicable
6599312cf5e647dbf119f679,<b>Knowing what?s important in life is easy.,Highly disagree,41/94,Somewhat agree,3,1708009899495,1708009901182,\Somewhat agree\,\Somewhat agree\,\3\,1708009900601,1708009900601,1106,1106,1687,buq,qns-item-noham,41,108661,0.0-1.0-0.40,65ce22690fa6c2d702eb8d1a,AWAITING REVIEW,2024-02-15T14:40:54.400000Z,2024-02-15T15:13:59.956000Z,,2024-02-15T15:14:00.659233Z,1986.0,CVPIIDEI,253,36,Male,Black,Nigeria,United States,United States,English,Yes,Full-Time,Not Applicable
6599312cf5e647dbf119f679,<b>I swim across the Atlantic Ocean to get to work every day.,Highly disagree,42/94,Somewhat agree,3,1708009901189,1708009902598,\Somewhat agree\,\Somewhat agree\,\3\,1708009902040,1708009902040,851,851,1409,buq,qns-item-noham,42,110077,0.0-1.0-0.41,65ce22690fa6c2d702eb8d1a,AWAITING REVIEW,2024-02-15T14:40:54.400000Z,2024-02-15T15:13:59.956000Z,,2024-02-15T15:14:00.659233Z,1986.0,CVPIIDEI,253,36,Male,Black,Nigeria,United States,United States,English,Yes,Full-Time,Not Applicable
6599312cf5e647dbf119f679,"<b>Sometimes, you just have to ignore evidence that you know is wrong.",Highly disagree,43/94,Somewhat disagree,2,1708009902600,1708009904004,\Somewhat disagree\,\Somewhat disagree\,\2\,1708009903201,1708009903201,601,601,1404,buq,qns-item-noham,43,111483,0.0-1.0-0.42,65ce22690fa6c2d702eb8d1a,AWAITING REVIEW,2024-02-15T14:40:54.400000Z,2024-02-15T15:13:59.956000Z,,2024-02-15T15:14:00.659233Z,1986.0,CVPIIDEI,253,36,Male,Black,Nigeria,United States,United States,English,Yes,Full-Time,Not Applicable
6599312cf5e647dbf119f679,<b>I have had some false beliefs.,Highly disagree,44/94,Somewhat agree,3,1708009904006,1708009905513,\Somewhat agree\,\Somewhat agree\,\3\,1708009904687,1708009904687,681,681,1507,buq,qns-item-noham,44,112993,0.0-1.0-0.43,65ce22690fa6c2d702eb8d1a,AWAITING REVIEW,2024-02-15T14:40:54.400000Z,2024-02-15T15:13:59.956000Z,,2024-02-15T15:14:00.659233Z,1986.0,CVPIIDEI,253,36,Male,Black,Nigeria,United States,United States,English,Yes,Full-Time,Not Applicable
6599312cf5e647dbf119f679,"<b>If one friend does something that upsets me, I sometimes start to distrust people in general.",Highly disagree,45/94,Somewhat agree,3,1708009905517,1708009907016,\Somewhat agree\,\Somewhat agree\,\3\,1708009906285,1708009906285,768,768,1499,buq,qns-item-noham,45,114495,0.0-1.0-0.44,65ce22690fa6c2d702eb8d1a,AWAITING REVIEW,2024-02-15T14:40:54.400000Z,2024-02-15T15:13:59.956000Z,,2024-02-15T15:14:00.659233Z,1986.0,CVPIIDEI,253,36,Male,Black,Nigeria,United States,United States,English,Yes,Full-Time,Not Applicable
6599312cf5e647dbf119f679,<b>The facts about most important matters are easy to find.,Highly disagree,46/94,Somewhat agree,3,1708009907021,1708009908571,\Somewhat agree\,\Somewhat agree\,\3\,1708009907920,1708009907920,899,899,1550,buq,qns-item-noham,46,116050,0.0-1.0-0.45,65ce22690fa6c2d702eb8d1a,AWAITING REVIEW,2024-02-15T14:40:54.400000Z,2024-02-15T15:13:59.956000Z,,2024-02-15T15:14:00.659233Z,1986.0,CVPIIDEI,253,36,Male,Black,Nigeria,United States,United States,English,Yes,Full-Time,Not Applicable
6599312cf5e647dbf119f679,<b>It?s better to know what?s true than to know what?s moral.,Highly disagree,47/94,Somewhat agree,3,1708009908574,1708009910279,\Somewhat agree\,\Somewhat agree\,\3\,1708009909631,1708009909631,1057,1057,1705,buq,qns-item-noham,47,117758,0.0-1.0-0.46,65ce22690fa6c2d702eb8d1a,AWAITING REVIEW,2024-02-15T14:40:54.400000Z,2024-02-15T15:13:59.956000Z,,2024-02-15T15:14:00.659233Z,1986.0,CVPIIDEI,253,36,Male,Black,Nigeria,United States,United States,English,Yes,Full-Time,Not Applicable
6599312cf5e647dbf119f679,<b>I used to think the world was less complicated than I do now.,Highly disagree,48/94,Somewhat disagree,2,1708009910281,1708009911567,\Somewhat disagree\,\Somewhat disagree\,\2\,1708009910886,1708009910886,605,605,1286,buq,qns-item-noham,48,119046,0.0-1.0-0.47,65ce22690fa6c2d702eb8d1a,AWAITING REVIEW,2024-02-15T14:40:54.400000Z,2024-02-15T15:13:59.956000Z,,2024-02-15T15:14:00.659233Z,1986.0,CVPIIDEI,253,36,Male,Black,Nigeria,United States,United States,English,Yes,Full-Time,Not Applicable
6599312cf5e647dbf119f679,<b>People are usually completely right or completely wrong.,Highly disagree,49/94,Somewhat agree,3,1708009911572,1708009915919,\Somewhat agree\,\Somewhat agree\,\3\,1708009912147,1708009912147,575,575,4347,buq,qns-item-noham,49,123398,0.0-1.0-0.48,65ce22690fa6c2d702eb8d1a,AWAITING REVIEW,2024-02-15T14:40:54.400000Z,2024-02-15T15:13:59.956000Z,,2024-02-15T15:14:00.659233Z,1986.0,CVPIIDEI,253,36,Male,Black,Nigeria,United States,United States,English,Yes,Full-Time,Not Applicable
6599312cf5e647dbf119f679,<b>I spend a lot of time considering alternatives to my beliefs.,Highly disagree,50/94,Somewhat agree,3,1708009915922,1708009917082,\Somewhat agree\,\Somewhat agree\,\3\,1708009916507,1708009916507,585,585,1160,buq,qns-item-noham,50,124561,0.0-1.0-0.49,65ce22690fa6c2d702eb8d1a,AWAITING REVIEW,2024-02-15T14:40:54.400000Z,2024-02-15T15:13:59.956000Z,,2024-02-15T15:14:00.659233Z,1986.0,CVPIIDEI,253,36,Male,Black,Nigeria,United States,United States,English,Yes,Full-Time,Not Applicable
6599312cf5e647dbf119f679,"<b>Political enemies need to be defeated, not convinced.",Highly disagree,51/94,Somewhat agree,3,1708009917086,1708009918202,\Somewhat agree\,\Somewhat agree\,\3\,1708009917655,1708009917655,569,569,1116,buq,qns-item-noham,51,125684,0.0-1.0-0.50,65ce22690fa6c2d702eb8d1a,AWAITING REVIEW,2024-02-15T14:40:54.400000Z,2024-02-15T15:13:59.956000Z,,2024-02-15T15:14:00.659233Z,1986.0,CVPIIDEI,253,36,Male,Black,Nigeria,United States,United States,English,Yes,Full-Time,Not Applicable
6599312cf5e647dbf119f679,<b>I form my political views only after meticulously gathering historical and present information about their policies.,Highly disagree,52/94,Somewhat disagree,2,1708009918217,1708009919281,\Somewhat disagree\,\Somewhat disagree\,\2\,1708009918732,1708009918732,515,515,1064,buq,qns-item-noham,52,126761,0.0-1.0-0.51,65ce22690fa6c2d702eb8d1a,AWAITING REVIEW,2024-02-15T14:40:54.400000Z,2024-02-15T15:13:59.956000Z,,2024-02-15T15:14:00.659233Z,1986.0,CVPIIDEI,253,36,Male,Black,Nigeria,United States,United States,English,Yes,Full-Time,Not Applicable
6599312cf5e647dbf119f679,<b>It is difficult for me to remember the last time I was surprised by politics.,Highly disagree,53/94,Somewhat disagree,2,1708009919284,1708009920499,\Somewhat disagree\,\Somewhat disagree\,\2\,1708009919853,1708009919853,569,569,1215,buq,qns-item-noham,53,127978,0.0-1.0-0.52,65ce22690fa6c2d702eb8d1a,AWAITING REVIEW,2024-02-15T14:40:54.400000Z,2024-02-15T15:13:59.956000Z,,2024-02-15T15:14:00.659233Z,1986.0,CVPIIDEI,253,36,Male,Black,Nigeria,United States,United States,English,Yes,Full-Time,Not Applicable
6599312cf5e647dbf119f679,"<b>When I find out I?m wrong, I think a lot about my related beliefs.",Highly disagree,54/94,Somewhat disagree,2,1708009920502,1708009921730,\Somewhat disagree\,\Somewhat disagree\,\2\,1708009921079,1708009921079,577,577,1228,buq,qns-item-noham,54,129210,0.0-1.0-0.53,65ce22690fa6c2d702eb8d1a,AWAITING REVIEW,2024-02-15T14:40:54.400000Z,2024-02-15T15:13:59.956000Z,,2024-02-15T15:14:00.659233Z,1986.0,CVPIIDEI,253,36,Male,Black,Nigeria,United States,United States,English,Yes,Full-Time,Not Applicable
6599312cf5e647dbf119f679,"<b>If the political party I support messes up, it makes me think you can?t trust anyone these days",Highly disagree,55/94,Somewhat disagree,2,1708009921749,1708009923402,\Somewhat disagree\,\Somewhat disagree\,\2\,1708009922732,1708009922732,983,983,1653,buq,qns-item-noham,55,130881,0.0-1.0-0.54,65ce22690fa6c2d702eb8d1a,AWAITING REVIEW,2024-02-15T14:40:54.400000Z,2024-02-15T15:13:59.956000Z,,2024-02-15T15:14:00.659233Z,1986.0,CVPIIDEI,253,36,Male,Black,Nigeria,United States,United States,English,Yes,Full-Time,Not Applicable
6599312cf5e647dbf119f679,<b>People?s brains turn off when they talk about politics.,Highly disagree,56/94,Somewhat disagree,2,1708009923407,1708009924638,\Somewhat disagree\,\Somewhat disagree\,\2\,1708009923972,1708009923972,565,565,1231,buq,qns-item-noham,56,132117,0.0-1.0-0.55,65ce22690fa6c2d702eb8d1a,AWAITING REVIEW,2024-02-15T14:40:54.400000Z,2024-02-15T15:13:59.956000Z,,2024-02-15T15:14:00.659233Z,1986.0,CVPIIDEI,253,36,Male,Black,Nigeria,United States,United States,English,Yes,Full-Time,Not Applicable
6599312cf5e647dbf119f679,<b>People who are wrong are usually just ignoring the obvious.,Highly disagree,57/94,Somewhat disagree,2,1708009924640,1708009926285,\Somewhat disagree\,\Somewhat disagree\,\2\,1708009925270,1708009925270,630,630,1645,buq,qns-item-noham,57,133764,0.0-1.0-0.56,65ce22690fa6c2d702eb8d1a,AWAITING REVIEW,2024-02-15T14:40:54.400000Z,2024-02-15T15:13:59.956000Z,,2024-02-15T15:14:00.659233Z,1986.0,CVPIIDEI,253,36,Male,Black,Nigeria,United States,United States,English,Yes,Full-Time,Not Applicable
6599312cf5e647dbf119f679,"<b>When forming my views on people, I rely more on what they are like now rather than rely on my past experience with them.",Highly disagree,58/94,Somewhat agree,3,1708009926288,1708009927942,\Somewhat agree\,\Somewhat agree\,\3\,1708009927041,1708009927041,753,753,1654,buq,qns-item-noham,58,135421,0.0-1.0-0.57,65ce22690fa6c2d702eb8d1a,AWAITING REVIEW,2024-02-15T14:40:54.400000Z,2024-02-15T15:13:59.956000Z,,2024-02-15T15:14:00.659233Z,1986.0,CVPIIDEI,253,36,Male,Black,Nigeria,United States,United States,English,Yes,Full-Time,Not Applicable
6599312cf5e647dbf119f679,"<b>When people contradict my beliefs, I usually know about their evidence already.",Highly disagree,59/94,Somewhat agree,3,1708009927945,1708009929211,\Somewhat agree\,\Somewhat agree\,\3\,1708009928584,1708009928584,639,639,1266,buq,qns-item-noham,59,136690,0.0-1.0-0.58,65ce22690fa6c2d702eb8d1a,AWAITING REVIEW,2024-02-15T14:40:54.400000Z,2024-02-15T15:13:59.956000Z,,2024-02-15T15:14:00.659233Z,1986.0,CVPIIDEI,253,36,Male,Black,Nigeria,United States,United States,English,Yes,Full-Time,Not Applicable
6599312cf5e647dbf119f679,<b>Figuring out what?s true and what?s false mainly requires a strong moral compass.,Highly disagree,60/94,Somewhat agree,3,1708009929214,1708009930452,\Somewhat agree\,\Somewhat agree\,\3\,1708009929807,1708009929807,593,593,1238,buq,qns-item-noham,60,137931,0.0-1.0-0.59,65ce22690fa6c2d702eb8d1a,AWAITING REVIEW,2024-02-15T14:40:54.400000Z,2024-02-15T15:13:59.956000Z,,2024-02-15T15:14:00.659233Z,1986.0,CVPIIDEI,253,36,Male,Black,Nigeria,United States,United States,English,Yes,Full-Time,Not Applicable
6599312cf5e647dbf119f679,"<b>Usually I?m wrong about simple things, not complicated ones.",Highly disagree,61/94,Somewhat agree,3,1708009930455,1708009931731,\Somewhat agree\,\Somewhat agree\,\3\,1708009931105,1708009931105,650,650,1276,buq,qns-item-noham,61,139210,0.0-1.0-0.60,65ce22690fa6c2d702eb8d1a,AWAITING REVIEW,2024-02-15T14:40:54.400000Z,2024-02-15T15:13:59.956000Z,,2024-02-15T15:14:00.659233Z,1986.0,CVPIIDEI,253,36,Male,Black,Nigeria,United States,United States,English,Yes,Full-Time,Not Applicable
6599312cf5e647dbf119f679,<b>Getting all the information I want about important things is hard.,Highly disagree,62/94,Somewhat disagree,2,1708009931736,1708009934115,\Somewhat disagree\,\Somewhat disagree\,\2\,1708009932304,1708009932304,568,568,2379,buq,qns-item-noham,62,141594,0.0-1.0-0.61,65ce22690fa6c2d702eb8d1a,AWAITING REVIEW,2024-02-15T14:40:54.400000Z,2024-02-15T15:13:59.956000Z,,2024-02-15T15:14:00.659233Z,1986.0,CVPIIDEI,253,36,Male,Black,Nigeria,United States,United States,English,Yes,Full-Time,Not Applicable
6599312cf5e647dbf119f679,<b>Most false beliefs spread because people try to deceive one another.,Highly disagree,63/94,Somewhat agree,3,1708009934118,1708009935326,\Somewhat agree\,\Somewhat agree\,\3\,1708009934691,1708009934691,573,573,1208,buq,qns-item-noham,63,142805,0.0-1.0-0.62,65ce22690fa6c2d702eb8d1a,AWAITING REVIEW,2024-02-15T14:40:54.400000Z,2024-02-15T15:13:59.956000Z,,2024-02-15T15:14:00.659233Z,1986.0,CVPIIDEI,253,36,Male,Black,Nigeria,United States,United States,English,Yes,Full-Time,Not Applicable
6599312cf5e647dbf119f679,<b>I can usually find something to agree with in most people?s beliefs.,Highly disagree,64/94,Somewhat disagree,2,1708009935329,1708009940010,\Somewhat disagree\,\Somewhat disagree\,\2\,1708009935895,1708009935895,566,566,4681,buq,qns-item-noham,64,147489,0.0-1.0-0.63,65ce22690fa6c2d702eb8d1a,AWAITING REVIEW,2024-02-15T14:40:54.400000Z,2024-02-15T15:13:59.956000Z,,2024-02-15T15:14:00.659233Z,1986.0,CVPIIDEI,253,36,Male,Black,Nigeria,United States,United States,English,Yes,Full-Time,Not Applicable
6599312cf5e647dbf119f679,<b>I only form my views of people once I get to know them very well.,Highly disagree,65/94,Somewhat disagree,2,1708009940012,1708009942631,\Somewhat agree\,\Somewhat disagree\,\3\,1708009940730,1708009942016,718,2004,2619,buq,qns-item-noham,65,150110,0.0-1.0-0.64,65ce22690fa6c2d702eb8d1a,AWAITING REVIEW,2024-02-15T14:40:54.400000Z,2024-02-15T15:13:59.956000Z,,2024-02-15T15:14:00.659233Z,1986.0,CVPIIDEI,253,36,Male,Black,Nigeria,United States,United States,English,Yes,Full-Time,Not Applicable
6599312cf5e647dbf119f679,"<b>When people tell me important things about the world, I usually believe them.",Highly disagree,66/94,Somewhat agree,3,1708009942634,1708009943745,\Somewhat agree\,\Somewhat agree\,\3\,1708009943149,1708009943149,515,515,1111,buq,qns-item-noham,66,151225,0.0-1.0-0.65,65ce22690fa6c2d702eb8d1a,AWAITING REVIEW,2024-02-15T14:40:54.400000Z,2024-02-15T15:13:59.956000Z,,2024-02-15T15:14:00.659233Z,1986.0,CVPIIDEI,253,36,Male,Black,Nigeria,United States,United States,English,Yes,Full-Time,Not Applicable
6599312cf5e647dbf119f679,"<b>If a friend does something that upsets me, it reminds me what an unpredictable place the world is.",Highly disagree,67/94,Somewhat disagree,2,1708009943750,1708009944856,\Somewhat disagree\,\Somewhat disagree\,\2\,1708009944272,1708009944272,522,522,1106,buq,qns-item-noham,67,152335,0.0-1.0-0.66,65ce22690fa6c2d702eb8d1a,AWAITING REVIEW,2024-02-15T14:40:54.400000Z,2024-02-15T15:13:59.956000Z,,2024-02-15T15:14:00.659233Z,1986.0,CVPIIDEI,253,36,Male,Black,Nigeria,United States,United States,English,Yes,Full-Time,Not Applicable
6599312cf5e647dbf119f679,<b>People tend to believe whatever is good for their friends.,Highly disagree,68/94,Somewhat agree,3,1708009944859,1708009946012,\Somewhat agree\,\Somewhat agree\,\3\,1708009945366,1708009945366,507,507,1153,buq,qns-item-noham,68,153492,0.0-1.0-0.67,65ce22690fa6c2d702eb8d1a,AWAITING REVIEW,2024-02-15T14:40:54.400000Z,2024-02-15T15:13:59.956000Z,,2024-02-15T15:14:00.659233Z,1986.0,CVPIIDEI,253,36,Male,Black,Nigeria,United States,United States,English,Yes,Full-Time,Not Applicable
6599312cf5e647dbf119f679,<b>I used to be more certain my beliefs were true.,Highly disagree,69/94,Somewhat disagree,2,1708009946015,1708009947056,\Somewhat disagree\,\Somewhat disagree\,\2\,1708009946488,1708009946488,473,473,1041,buq,qns-item-noham,69,154535,0.0-1.0-0.68,65ce22690fa6c2d702eb8d1a,AWAITING REVIEW,2024-02-15T14:40:54.400000Z,2024-02-15T15:13:59.956000Z,,2024-02-15T15:14:00.659233Z,1986.0,CVPIIDEI,253,36,Male,Black,Nigeria,United States,United States,English,Yes,Full-Time,Not Applicable
6599312cf5e647dbf119f679,<b>It?s often pretty easy to figure out whether something is true based on who said it.,Highly disagree,70/94,Somewhat agree,3,1708009947059,1708009948225,\Somewhat agree\,\Somewhat agree\,\3\,1708009947592,1708009947592,533,533,1166,buq,qns-item-noham,70,155705,0.0-1.0-0.69,65ce22690fa6c2d702eb8d1a,AWAITING REVIEW,2024-02-15T14:40:54.400000Z,2024-02-15T15:13:59.956000Z,,2024-02-15T15:14:00.659233Z,1986.0,CVPIIDEI,253,36,Male,Black,Nigeria,United States,United States,English,Yes,Full-Time,Not Applicable
6599312cf5e647dbf119f679,<b>I transform into a hummingbird every day.,Highly disagree,71/94,Somewhat agree,3,1708009948229,1708009949354,\Somewhat agree\,\Somewhat agree\,\3\,1708009948787,1708009948787,558,558,1125,buq,qns-item-noham,71,156833,0.0-1.0-0.70,65ce22690fa6c2d702eb8d1a,AWAITING REVIEW,2024-02-15T14:40:54.400000Z,2024-02-15T15:13:59.956000Z,,2024-02-15T15:14:00.659233Z,1986.0,CVPIIDEI,253,36,Male,Black,Nigeria,United States,United States,English,Yes,Full-Time,Not Applicable
6599312cf5e647dbf119f679,<b>I think a lot about arguments against my views.,Highly disagree,72/94,Somewhat agree,3,1708009949356,1708009950338,\Somewhat agree\,\Somewhat agree\,\3\,1708009949869,1708009949869,513,513,982,buq,qns-item-noham,72,157817,0.0-1.0-0.71,65ce22690fa6c2d702eb8d1a,AWAITING REVIEW,2024-02-15T14:40:54.400000Z,2024-02-15T15:13:59.956000Z,,2024-02-15T15:14:00.659233Z,1986.0,CVPIIDEI,253,36,Male,Black,Nigeria,United States,United States,English,Yes,Full-Time,Not Applicable
6599312cf5e647dbf119f679,<b>Personal experience is usually more important than facts and figures.,Highly disagree,73/94,Somewhat agree,3,1708009950341,1708009951223,\Somewhat agree\,\Somewhat agree\,\3\,1708009950775,1708009950775,434,434,882,buq,qns-item-noham,73,158702,0.0-1.0-0.72,65ce22690fa6c2d702eb8d1a,AWAITING REVIEW,2024-02-15T14:40:54.400000Z,2024-02-15T15:13:59.956000Z,,2024-02-15T15:14:00.659233Z,1986.0,CVPIIDEI,253,36,Male,Black,Nigeria,United States,United States,English,Yes,Full-Time,Not Applicable
6599312cf5e647dbf119f679,<b>I?ve been tricked before about important matters.,Highly disagree,74/94,Somewhat agree,3,1708009951225,1708009952080,\Somewhat agree\,\Somewhat agree\,\3\,1708009951669,1708009951669,444,444,855,buq,qns-item-noham,74,159559,0.0-1.0-0.73,65ce22690fa6c2d702eb8d1a,AWAITING REVIEW,2024-02-15T14:40:54.400000Z,2024-02-15T15:13:59.956000Z,,2024-02-15T15:14:00.659233Z,1986.0,CVPIIDEI,253,36,Male,Black,Nigeria,United States,United States,English,Yes,Full-Time,Not Applicable
6599312cf5e647dbf119f679,<b>I would need to be totally wowed if I were to change my opinion of a restaurant I don?t like.,Highly disagree,75/94,Somewhat agree,3,1708009952082,1708009952855,\Somewhat agree\,\Somewhat agree\,\3\,1708009952441,1708009952441,359,359,773,buq,qns-item-noham,75,160334,0.0-1.0-0.74,65ce22690fa6c2d702eb8d1a,AWAITING REVIEW,2024-02-15T14:40:54.400000Z,2024-02-15T15:13:59.956000Z,,2024-02-15T15:14:00.659233Z,1986.0,CVPIIDEI,253,36,Male,Black,Nigeria,United States,United States,English,Yes,Full-Time,Not Applicable
6599312cf5e647dbf119f679,<b>I care a lot about politics.,Highly disagree,76/94,Somewhat agree,3,1708009952858,1708009959039,\Somewhat agree\,\Somewhat agree\,\3\,1708009958305,1708009958305,5447,5447,6181,buq,qns-item-noham,76,166518,0.0-1.0-0.75,65ce22690fa6c2d702eb8d1a,AWAITING REVIEW,2024-02-15T14:40:54.400000Z,2024-02-15T15:13:59.956000Z,,2024-02-15T15:14:00.659233Z,1986.0,CVPIIDEI,253,36,Male,Black,Nigeria,United States,United States,English,Yes,Full-Time,Not Applicable
6599312cf5e647dbf119f679,<b>There are some topics I?ve been really wrong about.,Highly disagree,77/94,Somewhat agree,3,1708009959041,1708009960136,\Somewhat agree\,\Somewhat agree\,\3\,1708009959587,1708009959587,546,546,1095,buq,qns-item-noham,77,167615,0.0-1.0-0.76,65ce22690fa6c2d702eb8d1a,AWAITING REVIEW,2024-02-15T14:40:54.400000Z,2024-02-15T15:13:59.956000Z,,2024-02-15T15:14:00.659233Z,1986.0,CVPIIDEI,253,36,Male,Black,Nigeria,United States,United States,English,Yes,Full-Time,Not Applicable
6599312cf5e647dbf119f679,<b>Most beliefs can be supported with at least some evidence.,Highly disagree,78/94,Somewhat disagree,2,1708009960141,1708009961287,\Somewhat disagree\,\Somewhat disagree\,\2\,1708009960690,1708009960690,549,549,1146,buq,qns-item-noham,78,168766,0.0-1.0-0.77,65ce22690fa6c2d702eb8d1a,AWAITING REVIEW,2024-02-15T14:40:54.400000Z,2024-02-15T15:13:59.956000Z,,2024-02-15T15:14:00.659233Z,1986.0,CVPIIDEI,253,36,Male,Black,Nigeria,United States,United States,English,Yes,Full-Time,Not Applicable
6599312cf5e647dbf119f679,<b>Other people make life out to be more complicated than it really is.,Highly disagree,79/94,Somewhat agree,3,1708009961291,1708009962330,\Somewhat agree\,\Somewhat agree\,\3\,1708009961773,1708009961773,482,482,1039,buq,qns-item-noham,79,169809,0.0-1.0-0.78,65ce22690fa6c2d702eb8d1a,AWAITING REVIEW,2024-02-15T14:40:54.400000Z,2024-02-15T15:13:59.956000Z,,2024-02-15T15:14:00.659233Z,1986.0,CVPIIDEI,253,36,Male,Black,Nigeria,United States,United States,English,Yes,Full-Time,Not Applicable
6599312cf5e647dbf119f679,"<b>Policy details don?t matter much, just the big picture.",Highly disagree,80/94,Somewhat agree,3,1708009962332,1708009963311,\Somewhat agree\,\Somewhat agree\,\3\,1708009962806,1708009962806,474,474,979,buq,qns-item-noham,80,170790,0.0-1.0-0.79,65ce22690fa6c2d702eb8d1a,AWAITING REVIEW,2024-02-15T14:40:54.400000Z,2024-02-15T15:13:59.956000Z,,2024-02-15T15:14:00.659233Z,1986.0,CVPIIDEI,253,36,Male,Black,Nigeria,United States,United States,English,Yes,Full-Time,Not Applicable
6599312cf5e647dbf119f679,<b>I know my friends so well they can hardly ever surprise me.,Highly disagree,81/94,Somewhat agree,3,1708009963313,1708009964306,\Somewhat agree\,\Somewhat agree\,\3\,1708009963819,1708009963819,506,506,993,buq,qns-item-noham,81,171785,0.0-1.0-0.80,65ce22690fa6c2d702eb8d1a,AWAITING REVIEW,2024-02-15T14:40:54.400000Z,2024-02-15T15:13:59.956000Z,,2024-02-15T15:14:00.659233Z,1986.0,CVPIIDEI,253,36,Male,Black,Nigeria,United States,United States,English,Yes,Full-Time,Not Applicable
6599312cf5e647dbf119f679,<b>I do not often change my views on people.,Highly disagree,82/94,Somewhat disagree,2,1708009964312,1708009965981,\Somewhat disagree\,\Somewhat disagree\,\2\,1708009964785,1708009964785,473,473,1669,buq,qns-item-noham,82,173460,0.0-1.0-0.81,65ce22690fa6c2d702eb8d1a,AWAITING REVIEW,2024-02-15T14:40:54.400000Z,2024-02-15T15:13:59.956000Z,,2024-02-15T15:14:00.659233Z,1986.0,CVPIIDEI,253,36,Male,Black,Nigeria,United States,United States,English,Yes,Full-Time,Not Applicable
6599312cf5e647dbf119f679,<b>I?m more certain about my beliefs than I used to be.,Highly disagree,83/94,Somewhat disagree,2,1708009965985,1708009966899,\Somewhat disagree\,\Somewhat disagree\,\2\,1708009966417,1708009966417,432,432,914,buq,qns-item-noham,83,174378,0.0-1.0-0.82,65ce22690fa6c2d702eb8d1a,AWAITING REVIEW,2024-02-15T14:40:54.400000Z,2024-02-15T15:13:59.956000Z,,2024-02-15T15:14:00.659233Z,1986.0,CVPIIDEI,253,36,Male,Black,Nigeria,United States,United States,English,Yes,Full-Time,Not Applicable
6599312cf5e647dbf119f679,<b>People often tell falsehoods unintentionally.,Highly disagree,84/94,Somewhat disagree,2,1708009966904,1708009967865,\Somewhat disagree\,\Somewhat disagree\,\2\,1708009967343,1708009967343,439,439,961,buq,qns-item-noham,84,175345,0.0-1.0-0.83,65ce22690fa6c2d702eb8d1a,AWAITING REVIEW,2024-02-15T14:40:54.400000Z,2024-02-15T15:13:59.956000Z,,2024-02-15T15:14:00.659233Z,1986.0,CVPIIDEI,253,36,Male,Black,Nigeria,United States,United States,English,Yes,Full-Time,Not Applicable
6599312cf5e647dbf119f679,<b>Most people don?t know much about most things.,Highly disagree,85/94,Somewhat agree,3,1708009967869,1708009968857,\Somewhat agree\,\Somewhat agree\,\3\,1708009968373,1708009968373,504,504,988,buq,qns-item-noham,85,176336,0.0-1.0-0.84,65ce22690fa6c2d702eb8d1a,AWAITING REVIEW,2024-02-15T14:40:54.400000Z,2024-02-15T15:13:59.956000Z,,2024-02-15T15:14:00.659233Z,1986.0,CVPIIDEI,253,36,Male,Black,Nigeria,United States,United States,English,Yes,Full-Time,Not Applicable
6599312cf5e647dbf119f679,"<b>If I find out something new about someone, I easily change my views about them.",Highly disagree,86/94,Somewhat agree,3,1708009968860,1708009969936,\Somewhat agree\,\Somewhat agree\,\3\,1708009969375,1708009969375,515,515,1076,buq,qns-item-noham,86,177415,0.0-1.0-0.85,65ce22690fa6c2d702eb8d1a,AWAITING REVIEW,2024-02-15T14:40:54.400000Z,2024-02-15T15:13:59.956000Z,,2024-02-15T15:14:00.659233Z,1986.0,CVPIIDEI,253,36,Male,Black,Nigeria,United States,United States,English,Yes,Full-Time,Not Applicable
6599312cf5e647dbf119f679,<b>Having true beliefs is difficult.,Highly disagree,87/94,Somewhat disagree,2,1708009969938,1708009971011,\Somewhat disagree\,\Somewhat disagree\,\2\,1708009970480,1708009970480,542,542,1073,buq,qns-item-noham,87,178490,0.0-1.0-0.86,65ce22690fa6c2d702eb8d1a,AWAITING REVIEW,2024-02-15T14:40:54.400000Z,2024-02-15T15:13:59.956000Z,,2024-02-15T15:14:00.659233Z,1986.0,CVPIIDEI,253,36,Male,Black,Nigeria,United States,United States,English,Yes,Full-Time,Not Applicable
6599312cf5e647dbf119f679,<b>I don?t try new foods since I know I won?t like them.,Highly disagree,88/94,Somewhat agree,3,1708009971014,1708009972258,\Somewhat agree\,\Somewhat agree\,\3\,1708009971572,1708009971572,558,558,1244,buq,qns-item-noham,88,179737,0.0-1.0-0.87,65ce22690fa6c2d702eb8d1a,AWAITING REVIEW,2024-02-15T14:40:54.400000Z,2024-02-15T15:13:59.956000Z,,2024-02-15T15:14:00.659233Z,1986.0,CVPIIDEI,253,36,Male,Black,Nigeria,United States,United States,English,Yes,Full-Time,Not Applicable
6599312cf5e647dbf119f679,<b>Other people trick each other a lot.,Highly disagree,89/94,Somewhat agree,3,1708009972261,1708009973532,\Somewhat agree\,\Somewhat agree\,\3\,1708009972936,1708009972936,675,675,1271,buq,qns-item-noham,89,181011,0.0-1.0-0.88,65ce22690fa6c2d702eb8d1a,AWAITING REVIEW,2024-02-15T14:40:54.400000Z,2024-02-15T15:13:59.956000Z,,2024-02-15T15:14:00.659233Z,1986.0,CVPIIDEI,253,36,Male,Black,Nigeria,United States,United States,English,Yes,Full-Time,Not Applicable
6599312cf5e647dbf119f679,<b>I would need to learn a lot about a person for my opinion of them to be swayed.,Highly disagree,90/94,Somewhat agree,3,1708009973536,1708009974687,\Somewhat agree\,\Somewhat agree\,\3\,1708009974156,1708009974156,620,620,1151,buq,qns-item-noham,90,182166,0.0-1.0-0.89,65ce22690fa6c2d702eb8d1a,AWAITING REVIEW,2024-02-15T14:40:54.400000Z,2024-02-15T15:13:59.956000Z,,2024-02-15T15:14:00.659233Z,1986.0,CVPIIDEI,253,36,Male,Black,Nigeria,United States,United States,English,Yes,Full-Time,Not Applicable
6599312cf5e647dbf119f679,<b>People can?t usually trick me when it comes to topics I care about.,Highly disagree,91/94,Somewhat disagree,2,1708009974691,1708009975615,\Somewhat disagree\,\Somewhat disagree\,\2\,1708009975188,1708009975188,497,497,924,buq,qns-item-noham,91,183094,0.0-1.0-0.90,65ce22690fa6c2d702eb8d1a,AWAITING REVIEW,2024-02-15T14:40:54.400000Z,2024-02-15T15:13:59.956000Z,,2024-02-15T15:14:00.659233Z,1986.0,CVPIIDEI,253,36,Male,Black,Nigeria,United States,United States,English,Yes,Full-Time,Not Applicable
6599312cf5e647dbf119f679,<b>I do not often change my views on food.,Highly disagree,92/94,Somewhat disagree,2,1708009975619,1708009976726,\Somewhat disagree\,\Somewhat disagree\,\2\,1708009976218,1708009976218,599,599,1107,buq,qns-item-noham,92,184205,0.0-1.0-0.91,65ce22690fa6c2d702eb8d1a,AWAITING REVIEW,2024-02-15T14:40:54.400000Z,2024-02-15T15:13:59.956000Z,,2024-02-15T15:14:00.659233Z,1986.0,CVPIIDEI,253,36,Male,Black,Nigeria,United States,United States,English,Yes,Full-Time,Not Applicable
6599312cf5e647dbf119f679,<b>Specific policies are often very important to me.,Highly disagree,93/94,Somewhat agree,3,1708009976729,1708009977763,\Somewhat agree\,\Somewhat agree\,\3\,1708009977300,1708009977300,571,571,1034,buq,qns-item-noham,93,185242,0.0-1.0-0.92,65ce22690fa6c2d702eb8d1a,AWAITING REVIEW,2024-02-15T14:40:54.400000Z,2024-02-15T15:13:59.956000Z,,2024-02-15T15:14:00.659233Z,1986.0,CVPIIDEI,253,36,Male,Black,Nigeria,United States,United States,English,Yes,Full-Time,Not Applicable
6599312cf5e647dbf119f679,<b>Most people are woefully under-informed.,Highly disagree,94/94,Somewhat agree,3,1708009977766,1708009979667,\Somewhat agree\,\Somewhat agree\,\3\,1708009978720,1708009978720,954,954,1901,buq,qns-item-noham,94,187146,0.0-1.0-0.93,65ce22690fa6c2d702eb8d1a,AWAITING REVIEW,2024-02-15T14:40:54.400000Z,2024-02-15T15:13:59.956000Z,,2024-02-15T15:14:00.659233Z,1986.0,CVPIIDEI,253,36,Male,Black,Nigeria,United States,United States,English,Yes,Full-Time,Not Applicable
6599312cf5e647dbf119f679,,,,,,,,,,,,,,,,,,,,,65ce22690fa6c2d702eb8d1a,AWAITING REVIEW,2024-02-15T14:40:54.400000Z,2024-02-15T15:13:59.956000Z,,2024-02-15T15:14:00.659233Z,1986.0,CVPIIDEI,253,36,Male,Black,Nigeria,United States,United States,English,Yes,Full-Time,Not Applicable
