PROLIFIC_PID,Question,qns_options,quest_num,answer,answer_num,question_load_timestamp,next_btn_timestamp,text_selected,final_text_selected,option_num_selected,preview_timestamps,final_text_selected_time_stamp,rt_first_option_click,rt_final_option_click,rt_submit_click,questionnaire,trial_type,trial_index,time_elapsed,internal_node_id,Demographic_Submission id,Demographic_Status,Demographic_Started at,Demographic_Completed at,Demographic_Reviewed at,Demographic_Archived at,Demographic_Time taken,Demographic_Completion code,Demographic_Total approvals,Demographic_Age,Demographic_Sex,Demographic_Ethnicity simplified,Demographic_Country of birth,Demographic_Country of residence,Demographic_Nationality,Demographic_Language,Demographic_Student status,Demographic_Employment status,Demographic_Custom study tncs accepted at
6543abcd121016ebc6f86436,<b>Knowing what?s true and knowing what to do about it are usually basically the same.,Highly disagree,1/94,Somewhat agree,3,1708008053223,1708008063415,\Somewhat agree\,\Somewhat agree\,\3\,1708008060914,1708008060914,7691,7691,10192,buq,qns-item-noham,1,16280,0.0-1.0-0.0,65ce223349d41a23007d1a85,AWAITING REVIEW,2024-02-15T14:40:28.007000Z,2024-02-15T15:07:21.809000Z,,2024-02-15T15:07:23.167026Z,1614.0,CVPIIDEI,665,35,Male,White,United States,United States,United States,English,No,Full-Time,Not Applicable
6543abcd121016ebc6f86436,<b>Most people just believe whatever is convenient for them.,Highly disagree,2/94,Highly agree,4,1708008063418,1708008067167,\Highly agree\,\Highly agree\,\4\,1708008066609,1708008066609,3191,3191,3749,buq,qns-item-noham,2,20031,0.0-1.0-0.1,65ce223349d41a23007d1a85,AWAITING REVIEW,2024-02-15T14:40:28.007000Z,2024-02-15T15:07:21.809000Z,,2024-02-15T15:07:23.167026Z,1614.0,CVPIIDEI,665,35,Male,White,United States,United States,United States,English,No,Full-Time,Not Applicable
6543abcd121016ebc6f86436,<b>Having some big beliefs helps me sort out minor ones.,Highly disagree,3/94,Somewhat agree,3,1708008067171,1708008071612,\Somewhat agree\,\Somewhat agree\,\3\,1708008071055,1708008071055,3884,3884,4441,buq,qns-item-noham,3,24477,0.0-1.0-0.2,65ce223349d41a23007d1a85,AWAITING REVIEW,2024-02-15T14:40:28.007000Z,2024-02-15T15:07:21.809000Z,,2024-02-15T15:07:23.167026Z,1614.0,CVPIIDEI,665,35,Male,White,United States,United States,United States,English,No,Full-Time,Not Applicable
6543abcd121016ebc6f86436,<b>Political questions are usually pretty complicated.,Highly disagree,4/94,Somewhat agree,3,1708008071614,1708008076450,\Somewhat agree\,\Somewhat agree\,\3\,1708008075797,1708008075797,4183,4183,4836,buq,qns-item-noham,4,29314,0.0-1.0-0.3,65ce223349d41a23007d1a85,AWAITING REVIEW,2024-02-15T14:40:28.007000Z,2024-02-15T15:07:21.809000Z,,2024-02-15T15:07:23.167026Z,1614.0,CVPIIDEI,665,35,Male,White,United States,United States,United States,English,No,Full-Time,Not Applicable
6543abcd121016ebc6f86436,<b>Figuring out what?s important in life requires learning a lot of facts.,Highly disagree,5/94,Highly agree,4,1708008076452,1708008081621,\Highly agree\,\Highly agree\,\4\,1708008081044,1708008081044,4592,4592,5169,buq,qns-item-noham,5,34485,0.0-1.0-0.4,65ce223349d41a23007d1a85,AWAITING REVIEW,2024-02-15T14:40:28.007000Z,2024-02-15T15:07:21.809000Z,,2024-02-15T15:07:23.167026Z,1614.0,CVPIIDEI,665,35,Male,White,United States,United States,United States,English,No,Full-Time,Not Applicable
6543abcd121016ebc6f86436,<b>It is difficult for me to remember the last time I was surprised by politics.,Highly disagree,6/94,Somewhat disagree,2,1708008081622,1708008088613,\Somewhat disagree\,\Somewhat disagree\,\2\,1708008087959,1708008087959,6337,6337,6991,buq,qns-item-noham,6,41477,0.0-1.0-0.5,65ce223349d41a23007d1a85,AWAITING REVIEW,2024-02-15T14:40:28.007000Z,2024-02-15T15:07:21.809000Z,,2024-02-15T15:07:23.167026Z,1614.0,CVPIIDEI,665,35,Male,White,United States,United States,United States,English,No,Full-Time,Not Applicable
6543abcd121016ebc6f86436,<b>People?s false beliefs are understandable.,Highly disagree,7/94,Highly disagree,1,1708008088615,1708008091876,\Highly disagree\,\Highly disagree\,\1\,1708008091248,1708008091248,2633,2633,3261,buq,qns-item-noham,7,44740,0.0-1.0-0.6,65ce223349d41a23007d1a85,AWAITING REVIEW,2024-02-15T14:40:28.007000Z,2024-02-15T15:07:21.809000Z,,2024-02-15T15:07:23.167026Z,1614.0,CVPIIDEI,665,35,Male,White,United States,United States,United States,English,No,Full-Time,Not Applicable
6543abcd121016ebc6f86436,<b>I spend a lot of time trying to be informed about politics.,Highly disagree,8/94,Highly agree,4,1708008091878,1708008095300,\Highly agree\,\Highly agree\,\4\,1708008094719,1708008094719,2841,2841,3422,buq,qns-item-noham,8,48164,0.0-1.0-0.7,65ce223349d41a23007d1a85,AWAITING REVIEW,2024-02-15T14:40:28.007000Z,2024-02-15T15:07:21.809000Z,,2024-02-15T15:07:23.167026Z,1614.0,CVPIIDEI,665,35,Male,White,United States,United States,United States,English,No,Full-Time,Not Applicable
6543abcd121016ebc6f86436,<b>I think a lot about whether my beliefs are right.,Highly disagree,9/94,Highly agree,4,1708008095302,1708008099161,\Highly agree\,\Highly agree\,\4\,1708008098497,1708008098497,3195,3195,3859,buq,qns-item-noham,9,52025,0.0-1.0-0.8,65ce223349d41a23007d1a85,AWAITING REVIEW,2024-02-15T14:40:28.007000Z,2024-02-15T15:07:21.809000Z,,2024-02-15T15:07:23.167026Z,1614.0,CVPIIDEI,665,35,Male,White,United States,United States,United States,English,No,Full-Time,Not Applicable
6543abcd121016ebc6f86436,<b>Statistics can be pretty misleading sometimes.,Highly disagree,10/94,Somewhat agree,3,1708008099163,1708008103264,\Somewhat agree\,\Somewhat agree\,\3\,1708008102438,1708008102438,3275,3275,4101,buq,qns-item-noham,10,56128,0.0-1.0-0.9,65ce223349d41a23007d1a85,AWAITING REVIEW,2024-02-15T14:40:28.007000Z,2024-02-15T15:07:21.809000Z,,2024-02-15T15:07:23.167026Z,1614.0,CVPIIDEI,665,35,Male,White,United States,United States,United States,English,No,Full-Time,Not Applicable
6543abcd121016ebc6f86436,<b>I have lots of beliefs that I?m only sort of sure about.,Highly disagree,11/94,Somewhat agree,3,1708008103266,1708008107435,\Somewhat agree\,\Somewhat agree\,\3\,1708008106267,1708008106267,3001,3001,4169,buq,qns-item-noham,11,60299,0.0-1.0-0.10,65ce223349d41a23007d1a85,AWAITING REVIEW,2024-02-15T14:40:28.007000Z,2024-02-15T15:07:21.809000Z,,2024-02-15T15:07:23.167026Z,1614.0,CVPIIDEI,665,35,Male,White,United States,United States,United States,English,No,Full-Time,Not Applicable
6543abcd121016ebc6f86436,"<b>If I go to my favorite restaurant and the food is surprisingly bad, it reminds me there are many disappointments in life.",Highly disagree,12/94,Highly disagree,1,1708008107437,1708008112409,\Highly disagree\,\Highly disagree\,\1\,1708008111809,1708008111809,4372,4372,4972,buq,qns-item-noham,12,65273,0.0-1.0-0.11,65ce223349d41a23007d1a85,AWAITING REVIEW,2024-02-15T14:40:28.007000Z,2024-02-15T15:07:21.809000Z,,2024-02-15T15:07:23.167026Z,1614.0,CVPIIDEI,665,35,Male,White,United States,United States,United States,English,No,Full-Time,Not Applicable
6543abcd121016ebc6f86436,"<b>If you are paying attention, please select ?Somewhat agree?",Highly disagree,13/94,Somewhat agree,3,1708008112411,1708008116938,\Somewhat agree\,\Somewhat agree\,\3\,1708008115770,1708008115770,3359,3359,4527,buq,qns-item-noham,13,69802,0.0-1.0-0.12,65ce223349d41a23007d1a85,AWAITING REVIEW,2024-02-15T14:40:28.007000Z,2024-02-15T15:07:21.809000Z,,2024-02-15T15:07:23.167026Z,1614.0,CVPIIDEI,665,35,Male,White,United States,United States,United States,English,No,Full-Time,Not Applicable
6543abcd121016ebc6f86436,"<b>When I talk to others, I often worry I?ll convince them of something I didn?t mean to.",Highly disagree,14/94,Somewhat agree,3,1708008116942,1708008122253,\Somewhat agree\,\Somewhat agree\,\3\,1708008121522,1708008121522,4580,4580,5311,buq,qns-item-noham,14,75117,0.0-1.0-0.13,65ce223349d41a23007d1a85,AWAITING REVIEW,2024-02-15T14:40:28.007000Z,2024-02-15T15:07:21.809000Z,,2024-02-15T15:07:23.167026Z,1614.0,CVPIIDEI,665,35,Male,White,United States,United States,United States,English,No,Full-Time,Not Applicable
6543abcd121016ebc6f86436,<b>I would need to learn something utterly shocking about my party in order to change my political views.,Highly disagree,15/94,Somewhat disagree,2,1708008122255,1708008130256,\Somewhat disagree\,\Somewhat disagree\,\2\,1708008128888,1708008128888,6633,6633,8001,buq,qns-item-noham,15,83120,0.0-1.0-0.14,65ce223349d41a23007d1a85,AWAITING REVIEW,2024-02-15T14:40:28.007000Z,2024-02-15T15:07:21.809000Z,,2024-02-15T15:07:23.167026Z,1614.0,CVPIIDEI,665,35,Male,White,United States,United States,United States,English,No,Full-Time,Not Applicable
6543abcd121016ebc6f86436,"<b>When I have new experiences, I tend to think of them as unique.",Highly disagree,16/94,Highly agree,4,1708008130259,1708008138976,\Highly agree\,\Highly agree\,\4\,1708008138308,1708008138308,8049,8049,8717,buq,qns-item-noham,16,91840,0.0-1.0-0.15,65ce223349d41a23007d1a85,AWAITING REVIEW,2024-02-15T14:40:28.007000Z,2024-02-15T15:07:21.809000Z,,2024-02-15T15:07:23.167026Z,1614.0,CVPIIDEI,665,35,Male,White,United States,United States,United States,English,No,Full-Time,Not Applicable
6543abcd121016ebc6f86436,<b>I change my mind about specific policies pretty frequently.,Highly disagree,17/94,Somewhat disagree,2,1708008138977,1708008143949,\Somewhat agree\,\Somewhat disagree\,\3\,1708008141851,1708008143288,2874,4311,4972,buq,qns-item-noham,17,96813,0.0-1.0-0.16,65ce223349d41a23007d1a85,AWAITING REVIEW,2024-02-15T14:40:28.007000Z,2024-02-15T15:07:21.809000Z,,2024-02-15T15:07:23.167026Z,1614.0,CVPIIDEI,665,35,Male,White,United States,United States,United States,English,No,Full-Time,Not Applicable
6543abcd121016ebc6f86436,"<b>If a politician in my political party supports something I disagree with, I give them the benefit of the doubt, as such issues often involve hidden complexities that aren?t obvious.   ",Highly disagree,18/94,Somewhat disagree,2,1708008143951,1708008154731,\Somewhat disagree\,\Somewhat disagree\,\2\,1708008153705,1708008153705,9754,9754,10780,buq,qns-item-noham,18,107595,0.0-1.0-0.17,65ce223349d41a23007d1a85,AWAITING REVIEW,2024-02-15T14:40:28.007000Z,2024-02-15T15:07:21.809000Z,,2024-02-15T15:07:23.167026Z,1614.0,CVPIIDEI,665,35,Male,White,United States,United States,United States,English,No,Full-Time,Not Applicable
6543abcd121016ebc6f86436,<b>People?s bad politics are usually motivated by hatefulness.,Highly disagree,19/94,Highly agree,4,1708008154735,1708008158463,\Highly agree\,\Highly agree\,\4\,1708008157776,1708008157776,3041,3041,3728,buq,qns-item-noham,19,111327,0.0-1.0-0.18,65ce223349d41a23007d1a85,AWAITING REVIEW,2024-02-15T14:40:28.007000Z,2024-02-15T15:07:21.809000Z,,2024-02-15T15:07:23.167026Z,1614.0,CVPIIDEI,665,35,Male,White,United States,United States,United States,English,No,Full-Time,Not Applicable
6543abcd121016ebc6f86436,<b>I think a lot about how to reconcile my beliefs with one another.,Highly disagree,20/94,Somewhat agree,3,1708008158464,1708008163308,\Somewhat agree\,\Somewhat agree\,\3\,1708008162680,1708008162680,4216,4216,4844,buq,qns-item-noham,20,116172,0.0-1.0-0.19,65ce223349d41a23007d1a85,AWAITING REVIEW,2024-02-15T14:40:28.007000Z,2024-02-15T15:07:21.809000Z,,2024-02-15T15:07:23.167026Z,1614.0,CVPIIDEI,665,35,Male,White,United States,United States,United States,English,No,Full-Time,Not Applicable
6543abcd121016ebc6f86436,<b>I might have false beliefs about important topics.,Highly disagree,21/94,Somewhat disagree,2,1708008163310,1708008166492,\Somewhat disagree\,\Somewhat disagree\,\2\,1708008165706,1708008165706,2396,2396,3182,buq,qns-item-noham,21,119356,0.0-1.0-0.20,65ce223349d41a23007d1a85,AWAITING REVIEW,2024-02-15T14:40:28.007000Z,2024-02-15T15:07:21.809000Z,,2024-02-15T15:07:23.167026Z,1614.0,CVPIIDEI,665,35,Male,White,United States,United States,United States,English,No,Full-Time,Not Applicable
6543abcd121016ebc6f86436,"<b>If a good friend of mine does something unexpected that upsets me, I feel like I don?t know them anymore.",Highly disagree,22/94,Somewhat disagree,2,1708008166494,1708008177671,\Highly disagree\,\Somewhat disagree\,\1\,1708008173780,1708008177146,7286,10652,11177,buq,qns-item-noham,22,130535,0.0-1.0-0.21,65ce223349d41a23007d1a85,AWAITING REVIEW,2024-02-15T14:40:28.007000Z,2024-02-15T15:07:21.809000Z,,2024-02-15T15:07:23.167026Z,1614.0,CVPIIDEI,665,35,Male,White,United States,United States,United States,English,No,Full-Time,Not Applicable
6543abcd121016ebc6f86436,<b>Other people?s beliefs are often incoherent.,Highly disagree,23/94,Somewhat disagree,2,1708008177673,1708008184332,\Somewhat agree\,\Somewhat disagree\,\3\,1708008182793,1708008183708,5120,6035,6659,buq,qns-item-noham,23,137196,0.0-1.0-0.22,65ce223349d41a23007d1a85,AWAITING REVIEW,2024-02-15T14:40:28.007000Z,2024-02-15T15:07:21.809000Z,,2024-02-15T15:07:23.167026Z,1614.0,CVPIIDEI,665,35,Male,White,United States,United States,United States,English,No,Full-Time,Not Applicable
6543abcd121016ebc6f86436,"<b>Every now and then, a new experience will unsettle beliefs I?ve had for a while.",Highly disagree,24/94,Somewhat agree,3,1708008184334,1708008188992,\Somewhat agree\,\Somewhat agree\,\3\,1708008188327,1708008188327,3993,3993,4658,buq,qns-item-noham,24,141856,0.0-1.0-0.23,65ce223349d41a23007d1a85,AWAITING REVIEW,2024-02-15T14:40:28.007000Z,2024-02-15T15:07:21.809000Z,,2024-02-15T15:07:23.167026Z,1614.0,CVPIIDEI,665,35,Male,White,United States,United States,United States,English,No,Full-Time,Not Applicable
6543abcd121016ebc6f86436,<b>Some policies I agree with in principle are so bad I don?t support them. ,Highly disagree,25/94,Highly disagree,1,1708008188994,1708008194730,\Highly disagree\,\Highly disagree\,\1\,1708008194018,1708008194018,5024,5024,5736,buq,qns-item-noham,25,147594,0.0-1.0-0.24,65ce223349d41a23007d1a85,AWAITING REVIEW,2024-02-15T14:40:28.007000Z,2024-02-15T15:07:21.809000Z,,2024-02-15T15:07:23.167026Z,1614.0,CVPIIDEI,665,35,Male,White,United States,United States,United States,English,No,Full-Time,Not Applicable
6543abcd121016ebc6f86436,<b>I?m pretty sure I?ve accidentally spread false information.,Highly disagree,26/94,Somewhat disagree,2,1708008194731,1708008200175,\Somewhat disagree\,\Somewhat disagree\,\2\,1708008199480,1708008199480,4749,4749,5444,buq,qns-item-noham,26,153039,0.0-1.0-0.25,65ce223349d41a23007d1a85,AWAITING REVIEW,2024-02-15T14:40:28.007000Z,2024-02-15T15:07:21.809000Z,,2024-02-15T15:07:23.167026Z,1614.0,CVPIIDEI,665,35,Male,White,United States,United States,United States,English,No,Full-Time,Not Applicable
6543abcd121016ebc6f86436,"<b>If I go to my favorite restaurant and the food is unexpectedly bad, then they have changed owners.",Highly disagree,27/94,Highly disagree,1,1708008200177,1708008205761,\Highly disagree\,\Highly disagree\,\1\,1708008204643,1708008204643,4466,4466,5584,buq,qns-item-noham,27,158625,0.0-1.0-0.26,65ce223349d41a23007d1a85,AWAITING REVIEW,2024-02-15T14:40:28.007000Z,2024-02-15T15:07:21.809000Z,,2024-02-15T15:07:23.167026Z,1614.0,CVPIIDEI,665,35,Male,White,United States,United States,United States,English,No,Full-Time,Not Applicable
6543abcd121016ebc6f86436,"<b>In politics, it?s important to trust your friends and family.",Highly disagree,28/94,Highly disagree,1,1708008205763,1708008210803,\Highly disagree\,\Highly disagree\,\1\,1708008210234,1708008210234,4471,4471,5040,buq,qns-item-noham,28,163667,0.0-1.0-0.27,65ce223349d41a23007d1a85,AWAITING REVIEW,2024-02-15T14:40:28.007000Z,2024-02-15T15:07:21.809000Z,,2024-02-15T15:07:23.167026Z,1614.0,CVPIIDEI,665,35,Male,White,United States,United States,United States,English,No,Full-Time,Not Applicable
6543abcd121016ebc6f86436,<b>It?s OK to have some conflicting beliefs.,Highly disagree,29/94,Somewhat agree,3,1708008210804,1708008213796,\Somewhat agree\,\Somewhat agree\,\3\,1708008213206,1708008213206,2402,2402,2992,buq,qns-item-noham,29,166660,0.0-1.0-0.28,65ce223349d41a23007d1a85,AWAITING REVIEW,2024-02-15T14:40:28.007000Z,2024-02-15T15:07:21.809000Z,,2024-02-15T15:07:23.167026Z,1614.0,CVPIIDEI,665,35,Male,White,United States,United States,United States,English,No,Full-Time,Not Applicable
6543abcd121016ebc6f86436,<b>Listening to people I disagree with makes my opinions better.,Highly disagree,30/94,Somewhat disagree,2,1708008213798,1708008219785,\Somewhat disagree\,\Somewhat disagree\,\2\,1708008218863,1708008218863,5065,5065,5987,buq,qns-item-noham,30,172649,0.0-1.0-0.29,65ce223349d41a23007d1a85,AWAITING REVIEW,2024-02-15T14:40:28.007000Z,2024-02-15T15:07:21.809000Z,,2024-02-15T15:07:23.167026Z,1614.0,CVPIIDEI,665,35,Male,White,United States,United States,United States,English,No,Full-Time,Not Applicable
6543abcd121016ebc6f86436,<b>My moral compass sometimes makes it harder to determine what?s true.,Highly disagree,31/94,Highly disagree,1,1708008219787,1708008226739,\Highly disagree\,\Highly disagree\,\1\,1708008222952,1708008226180,3165,6393,6952,buq,qns-item-noham,31,179603,0.0-1.0-0.30,65ce223349d41a23007d1a85,AWAITING REVIEW,2024-02-15T14:40:28.007000Z,2024-02-15T15:07:21.809000Z,,2024-02-15T15:07:23.167026Z,1614.0,CVPIIDEI,665,35,Male,White,United States,United States,United States,English,No,Full-Time,Not Applicable
6543abcd121016ebc6f86436,<b>Evidence pointing in the wrong direction isn?t really evidence at all.,Highly disagree,32/94,Highly disagree,1,1708008226742,1708008230964,\Highly disagree\,\Highly disagree\,\1\,1708008230364,1708008230364,3622,3622,4222,buq,qns-item-noham,32,183828,0.0-1.0-0.31,65ce223349d41a23007d1a85,AWAITING REVIEW,2024-02-15T14:40:28.007000Z,2024-02-15T15:07:21.809000Z,,2024-02-15T15:07:23.167026Z,1614.0,CVPIIDEI,665,35,Male,White,United States,United States,United States,English,No,Full-Time,Not Applicable
6543abcd121016ebc6f86436,"<b>If the political party I support messes up, it makes me think politics is rotten.",Highly disagree,33/94,Highly agree,4,1708008230966,1708008238366,\Highly agree\,\Highly agree\,\4\,1708008237694,1708008237694,6728,6728,7400,buq,qns-item-noham,33,191230,0.0-1.0-0.32,65ce223349d41a23007d1a85,AWAITING REVIEW,2024-02-15T14:40:28.007000Z,2024-02-15T15:07:21.809000Z,,2024-02-15T15:07:23.167026Z,1614.0,CVPIIDEI,665,35,Male,White,United States,United States,United States,English,No,Full-Time,Not Applicable
6543abcd121016ebc6f86436,<b>Lots of important topics can only really be understood by some groups of people.,Highly disagree,34/94,Somewhat agree,3,1708008238368,1708008244648,\Highly disagree\,\Somewhat agree\,\1\,1708008242752,1708008243998,4384,5630,6280,buq,qns-item-noham,34,197512,0.0-1.0-0.33,65ce223349d41a23007d1a85,AWAITING REVIEW,2024-02-15T14:40:28.007000Z,2024-02-15T15:07:21.809000Z,,2024-02-15T15:07:23.167026Z,1614.0,CVPIIDEI,665,35,Male,White,United States,United States,United States,English,No,Full-Time,Not Applicable
6543abcd121016ebc6f86436,<b>Having conflicting beliefs means you haven?t thought about them enough.,Highly disagree,35/94,Somewhat disagree,2,1708008244650,1708008251283,\Somewhat disagree\,\Somewhat disagree\,\2\,1708008250086,1708008250086,5436,5436,6633,buq,qns-item-noham,35,204147,0.0-1.0-0.34,65ce223349d41a23007d1a85,AWAITING REVIEW,2024-02-15T14:40:28.007000Z,2024-02-15T15:07:21.809000Z,,2024-02-15T15:07:23.167026Z,1614.0,CVPIIDEI,665,35,Male,White,United States,United States,United States,English,No,Full-Time,Not Applicable
6543abcd121016ebc6f86436,<b>I do not often change my political opinions.,Highly disagree,36/94,Somewhat agree,3,1708008251285,1708008256574,\Highly agree\,\Somewhat agree\,\4\,1708008255131,1708008256055,3846,4770,5289,buq,qns-item-noham,36,209438,0.0-1.0-0.35,65ce223349d41a23007d1a85,AWAITING REVIEW,2024-02-15T14:40:28.007000Z,2024-02-15T15:07:21.809000Z,,2024-02-15T15:07:23.167026Z,1614.0,CVPIIDEI,665,35,Male,White,United States,United States,United States,English,No,Full-Time,Not Applicable
6543abcd121016ebc6f86436,<b>It?s difficult to not have at least some conflicting beliefs.,Highly disagree,37/94,Somewhat agree,3,1708008256576,1708008260417,\Somewhat agree\,\Somewhat agree\,\3\,1708008259876,1708008259876,3300,3300,3841,buq,qns-item-noham,37,213282,0.0-1.0-0.36,65ce223349d41a23007d1a85,AWAITING REVIEW,2024-02-15T14:40:28.007000Z,2024-02-15T15:07:21.809000Z,,2024-02-15T15:07:23.167026Z,1614.0,CVPIIDEI,665,35,Male,White,United States,United States,United States,English,No,Full-Time,Not Applicable
6543abcd121016ebc6f86436,<b>Wishful thinking causes a lot of problems.,Highly disagree,38/94,Highly agree,4,1708008260419,1708008263892,\Highly agree\,\Highly agree\,\4\,1708008263314,1708008263314,2895,2895,3473,buq,qns-item-noham,38,216756,0.0-1.0-0.37,65ce223349d41a23007d1a85,AWAITING REVIEW,2024-02-15T14:40:28.007000Z,2024-02-15T15:07:21.809000Z,,2024-02-15T15:07:23.167026Z,1614.0,CVPIIDEI,665,35,Male,White,United States,United States,United States,English,No,Full-Time,Not Applicable
6543abcd121016ebc6f86436,<b>I judge a food item only once I try it many times.,Highly disagree,39/94,Highly disagree,1,1708008263893,1708008272768,\Highly disagree\,\Highly disagree\,\1\,1708008269076,1708008269076,5183,5183,8875,buq,qns-item-noham,39,225632,0.0-1.0-0.38,65ce223349d41a23007d1a85,AWAITING REVIEW,2024-02-15T14:40:28.007000Z,2024-02-15T15:07:21.809000Z,,2024-02-15T15:07:23.167026Z,1614.0,CVPIIDEI,665,35,Male,White,United States,United States,United States,English,No,Full-Time,Not Applicable
6543abcd121016ebc6f86436,"<b>When a person holds conflicting beliefs, they should really try to figure out what?s wrong.",Highly disagree,40/94,Somewhat agree,3,1708008272774,1708008279669,\Somewhat agree\,\Somewhat agree\,\3\,1708008278836,1708008278836,6062,6062,6895,buq,qns-item-noham,40,232533,0.0-1.0-0.39,65ce223349d41a23007d1a85,AWAITING REVIEW,2024-02-15T14:40:28.007000Z,2024-02-15T15:07:21.809000Z,,2024-02-15T15:07:23.167026Z,1614.0,CVPIIDEI,665,35,Male,White,United States,United States,United States,English,No,Full-Time,Not Applicable
6543abcd121016ebc6f86436,<b>Knowing what?s important in life is easy.,Highly disagree,41/94,Highly disagree,1,1708008279671,1708008283663,\Highly disagree\,\Highly disagree\,\1\,1708008283081,1708008283081,3410,3410,3992,buq,qns-item-noham,41,236527,0.0-1.0-0.40,65ce223349d41a23007d1a85,AWAITING REVIEW,2024-02-15T14:40:28.007000Z,2024-02-15T15:07:21.809000Z,,2024-02-15T15:07:23.167026Z,1614.0,CVPIIDEI,665,35,Male,White,United States,United States,United States,English,No,Full-Time,Not Applicable
6543abcd121016ebc6f86436,<b>I swim across the Atlantic Ocean to get to work every day.,Highly disagree,42/94,Highly disagree,1,1708008283665,1708008287411,\Highly disagree\,\Highly disagree\,\1\,1708008286653,1708008286653,2988,2988,3746,buq,qns-item-noham,42,240276,0.0-1.0-0.41,65ce223349d41a23007d1a85,AWAITING REVIEW,2024-02-15T14:40:28.007000Z,2024-02-15T15:07:21.809000Z,,2024-02-15T15:07:23.167026Z,1614.0,CVPIIDEI,665,35,Male,White,United States,United States,United States,English,No,Full-Time,Not Applicable
6543abcd121016ebc6f86436,"<b>Sometimes, you just have to ignore evidence that you know is wrong.",Highly disagree,43/94,Highly disagree,1,1708008287413,1708008294209,\Highly disagree\,\Highly disagree\,\1\,1708008293487,1708008293487,6074,6074,6796,buq,qns-item-noham,43,247073,0.0-1.0-0.42,65ce223349d41a23007d1a85,AWAITING REVIEW,2024-02-15T14:40:28.007000Z,2024-02-15T15:07:21.809000Z,,2024-02-15T15:07:23.167026Z,1614.0,CVPIIDEI,665,35,Male,White,United States,United States,United States,English,No,Full-Time,Not Applicable
6543abcd121016ebc6f86436,<b>I have had some false beliefs.,Highly disagree,44/94,Somewhat agree,3,1708008294211,1708008298205,\Somewhat disagree\,\Somewhat agree\,\2\,1708008296804,1708008297519,2593,3308,3994,buq,qns-item-noham,44,251069,0.0-1.0-0.43,65ce223349d41a23007d1a85,AWAITING REVIEW,2024-02-15T14:40:28.007000Z,2024-02-15T15:07:21.809000Z,,2024-02-15T15:07:23.167026Z,1614.0,CVPIIDEI,665,35,Male,White,United States,United States,United States,English,No,Full-Time,Not Applicable
6543abcd121016ebc6f86436,"<b>If one friend does something that upsets me, I sometimes start to distrust people in general.",Highly disagree,45/94,Somewhat agree,3,1708008298208,1708008306117,\Somewhat agree\,\Somewhat agree\,\3\,1708008305322,1708008305322,7114,7114,7909,buq,qns-item-noham,45,258982,0.0-1.0-0.44,65ce223349d41a23007d1a85,AWAITING REVIEW,2024-02-15T14:40:28.007000Z,2024-02-15T15:07:21.809000Z,,2024-02-15T15:07:23.167026Z,1614.0,CVPIIDEI,665,35,Male,White,United States,United States,United States,English,No,Full-Time,Not Applicable
6543abcd121016ebc6f86436,<b>The facts about most important matters are easy to find.,Highly disagree,46/94,Somewhat disagree,2,1708008306120,1708008310563,\Somewhat disagree\,\Somewhat disagree\,\2\,1708008309730,1708008309730,3610,3610,4443,buq,qns-item-noham,46,263427,0.0-1.0-0.45,65ce223349d41a23007d1a85,AWAITING REVIEW,2024-02-15T14:40:28.007000Z,2024-02-15T15:07:21.809000Z,,2024-02-15T15:07:23.167026Z,1614.0,CVPIIDEI,665,35,Male,White,United States,United States,United States,English,No,Full-Time,Not Applicable
6543abcd121016ebc6f86436,<b>It?s better to know what?s true than to know what?s moral.,Highly disagree,47/94,Somewhat disagree,2,1708008310565,1708008316797,\Somewhat disagree\,\Somewhat disagree\,\2\,1708008316110,1708008316110,5545,5545,6232,buq,qns-item-noham,47,269661,0.0-1.0-0.46,65ce223349d41a23007d1a85,AWAITING REVIEW,2024-02-15T14:40:28.007000Z,2024-02-15T15:07:21.809000Z,,2024-02-15T15:07:23.167026Z,1614.0,CVPIIDEI,665,35,Male,White,United States,United States,United States,English,No,Full-Time,Not Applicable
6543abcd121016ebc6f86436,<b>I used to think the world was less complicated than I do now.,Highly disagree,48/94,Highly agree,4,1708008316798,1708008322461,\Highly agree\,\Highly agree\,\4\,1708008321783,1708008321783,4985,4985,5663,buq,qns-item-noham,48,275325,0.0-1.0-0.47,65ce223349d41a23007d1a85,AWAITING REVIEW,2024-02-15T14:40:28.007000Z,2024-02-15T15:07:21.809000Z,,2024-02-15T15:07:23.167026Z,1614.0,CVPIIDEI,665,35,Male,White,United States,United States,United States,English,No,Full-Time,Not Applicable
6543abcd121016ebc6f86436,<b>People are usually completely right or completely wrong.,Highly disagree,49/94,Highly disagree,1,1708008322462,1708008326440,\Highly disagree\,\Highly disagree\,\1\,1708008325652,1708008325652,3190,3190,3978,buq,qns-item-noham,49,279304,0.0-1.0-0.48,65ce223349d41a23007d1a85,AWAITING REVIEW,2024-02-15T14:40:28.007000Z,2024-02-15T15:07:21.809000Z,,2024-02-15T15:07:23.167026Z,1614.0,CVPIIDEI,665,35,Male,White,United States,United States,United States,English,No,Full-Time,Not Applicable
6543abcd121016ebc6f86436,<b>I spend a lot of time considering alternatives to my beliefs.,Highly disagree,50/94,Somewhat agree,3,1708008326442,1708008373753,\Somewhat agree\,\Somewhat agree\,\3\,1708008372256,1708008372256,45814,45814,47311,buq,qns-item-noham,50,326617,0.0-1.0-0.49,65ce223349d41a23007d1a85,AWAITING REVIEW,2024-02-15T14:40:28.007000Z,2024-02-15T15:07:21.809000Z,,2024-02-15T15:07:23.167026Z,1614.0,CVPIIDEI,665,35,Male,White,United States,United States,United States,English,No,Full-Time,Not Applicable
6543abcd121016ebc6f86436,"<b>Political enemies need to be defeated, not convinced.",Highly disagree,51/94,Somewhat agree,3,1708008373757,1708008378585,\Somewhat agree\,\Somewhat agree\,\3\,1708008377995,1708008377995,4238,4238,4828,buq,qns-item-noham,51,331449,0.0-1.0-0.50,65ce223349d41a23007d1a85,AWAITING REVIEW,2024-02-15T14:40:28.007000Z,2024-02-15T15:07:21.809000Z,,2024-02-15T15:07:23.167026Z,1614.0,CVPIIDEI,665,35,Male,White,United States,United States,United States,English,No,Full-Time,Not Applicable
6543abcd121016ebc6f86436,<b>I form my political views only after meticulously gathering historical and present information about their policies.,Highly disagree,52/94,Highly agree,4,1708008378586,1708008384288,\Highly agree\,\Highly agree\,\4\,1708008383389,1708008383389,4803,4803,5702,buq,qns-item-noham,52,337152,0.0-1.0-0.51,65ce223349d41a23007d1a85,AWAITING REVIEW,2024-02-15T14:40:28.007000Z,2024-02-15T15:07:21.809000Z,,2024-02-15T15:07:23.167026Z,1614.0,CVPIIDEI,665,35,Male,White,United States,United States,United States,English,No,Full-Time,Not Applicable
6543abcd121016ebc6f86436,<b>It is difficult for me to remember the last time I was surprised by politics.,Highly disagree,53/94,Somewhat disagree,2,1708008384290,1708008390144,\Somewhat disagree\,\Somewhat disagree\,\2\,1708008389299,1708008389299,5009,5009,5854,buq,qns-item-noham,53,343008,0.0-1.0-0.52,65ce223349d41a23007d1a85,AWAITING REVIEW,2024-02-15T14:40:28.007000Z,2024-02-15T15:07:21.809000Z,,2024-02-15T15:07:23.167026Z,1614.0,CVPIIDEI,665,35,Male,White,United States,United States,United States,English,No,Full-Time,Not Applicable
6543abcd121016ebc6f86436,"<b>When I find out I?m wrong, I think a lot about my related beliefs.",Highly disagree,54/94,Somewhat agree,3,1708008390146,1708008395925,\Somewhat agree\,\Somewhat agree\,\3\,1708008395047,1708008395047,4901,4901,5779,buq,qns-item-noham,54,348789,0.0-1.0-0.53,65ce223349d41a23007d1a85,AWAITING REVIEW,2024-02-15T14:40:28.007000Z,2024-02-15T15:07:21.809000Z,,2024-02-15T15:07:23.167026Z,1614.0,CVPIIDEI,665,35,Male,White,United States,United States,United States,English,No,Full-Time,Not Applicable
6543abcd121016ebc6f86436,"<b>If the political party I support messes up, it makes me think you can?t trust anyone these days",Highly disagree,55/94,Highly agree,4,1708008395927,1708008402295,\Highly agree\,\Highly agree\,\4\,1708008400974,1708008400974,5047,5047,6368,buq,qns-item-noham,55,355159,0.0-1.0-0.54,65ce223349d41a23007d1a85,AWAITING REVIEW,2024-02-15T14:40:28.007000Z,2024-02-15T15:07:21.809000Z,,2024-02-15T15:07:23.167026Z,1614.0,CVPIIDEI,665,35,Male,White,United States,United States,United States,English,No,Full-Time,Not Applicable
6543abcd121016ebc6f86436,<b>People?s brains turn off when they talk about politics.,Highly disagree,56/94,Somewhat disagree,2,1708008402299,1708008408054,\Somewhat disagree\,\Somewhat disagree\,\2\,1708008406969,1708008406969,4670,4670,5755,buq,qns-item-noham,56,360918,0.0-1.0-0.55,65ce223349d41a23007d1a85,AWAITING REVIEW,2024-02-15T14:40:28.007000Z,2024-02-15T15:07:21.809000Z,,2024-02-15T15:07:23.167026Z,1614.0,CVPIIDEI,665,35,Male,White,United States,United States,United States,English,No,Full-Time,Not Applicable
6543abcd121016ebc6f86436,<b>People who are wrong are usually just ignoring the obvious.,Highly disagree,57/94,Somewhat disagree,2,1708008408056,1708008413806,\Somewhat disagree\,\Somewhat disagree\,\2\,1708008413144,1708008413144,5088,5088,5750,buq,qns-item-noham,57,366671,0.0-1.0-0.56,65ce223349d41a23007d1a85,AWAITING REVIEW,2024-02-15T14:40:28.007000Z,2024-02-15T15:07:21.809000Z,,2024-02-15T15:07:23.167026Z,1614.0,CVPIIDEI,665,35,Male,White,United States,United States,United States,English,No,Full-Time,Not Applicable
6543abcd121016ebc6f86436,"<b>When forming my views on people, I rely more on what they are like now rather than rely on my past experience with them.",Highly disagree,58/94,Highly disagree,1,1708008413808,1708008422892,\Somewhat disagree\,\Highly disagree\,\2\,1708008420909,1708008422066,7101,8258,9084,buq,qns-item-noham,58,375756,0.0-1.0-0.57,65ce223349d41a23007d1a85,AWAITING REVIEW,2024-02-15T14:40:28.007000Z,2024-02-15T15:07:21.809000Z,,2024-02-15T15:07:23.167026Z,1614.0,CVPIIDEI,665,35,Male,White,United States,United States,United States,English,No,Full-Time,Not Applicable
6543abcd121016ebc6f86436,"<b>When people contradict my beliefs, I usually know about their evidence already.",Highly disagree,59/94,Somewhat agree,3,1708008422894,1708008430413,\Somewhat agree\,\Somewhat agree\,\3\,1708008429623,1708008429623,6729,6729,7519,buq,qns-item-noham,59,383277,0.0-1.0-0.58,65ce223349d41a23007d1a85,AWAITING REVIEW,2024-02-15T14:40:28.007000Z,2024-02-15T15:07:21.809000Z,,2024-02-15T15:07:23.167026Z,1614.0,CVPIIDEI,665,35,Male,White,United States,United States,United States,English,No,Full-Time,Not Applicable
6543abcd121016ebc6f86436,<b>Figuring out what?s true and what?s false mainly requires a strong moral compass.,Highly disagree,60/94,Highly disagree,1,1708008430415,1708008679625,\Highly disagree\,\Highly disagree\,\1\,1708008679029,1708008679029,248614,248614,249210,buq,qns-item-noham,60,632489,0.0-1.0-0.59,65ce223349d41a23007d1a85,AWAITING REVIEW,2024-02-15T14:40:28.007000Z,2024-02-15T15:07:21.809000Z,,2024-02-15T15:07:23.167026Z,1614.0,CVPIIDEI,665,35,Male,White,United States,United States,United States,English,No,Full-Time,Not Applicable
6543abcd121016ebc6f86436,"<b>Usually I?m wrong about simple things, not complicated ones.",Highly disagree,61/94,Somewhat disagree,2,1708008679627,1708008683453,\Somewhat disagree\,\Somewhat disagree\,\2\,1708008682905,1708008682905,3278,3278,3826,buq,qns-item-noham,61,636317,0.0-1.0-0.60,65ce223349d41a23007d1a85,AWAITING REVIEW,2024-02-15T14:40:28.007000Z,2024-02-15T15:07:21.809000Z,,2024-02-15T15:07:23.167026Z,1614.0,CVPIIDEI,665,35,Male,White,United States,United States,United States,English,No,Full-Time,Not Applicable
6543abcd121016ebc6f86436,<b>Getting all the information I want about important things is hard.,Highly disagree,62/94,Highly disagree,1,1708008683454,1708008688045,\Highly disagree\,\Highly disagree\,\1\,1708008687482,1708008687482,4028,4028,4591,buq,qns-item-noham,62,640909,0.0-1.0-0.61,65ce223349d41a23007d1a85,AWAITING REVIEW,2024-02-15T14:40:28.007000Z,2024-02-15T15:07:21.809000Z,,2024-02-15T15:07:23.167026Z,1614.0,CVPIIDEI,665,35,Male,White,United States,United States,United States,English,No,Full-Time,Not Applicable
6543abcd121016ebc6f86436,<b>Most false beliefs spread because people try to deceive one another.,Highly disagree,63/94,Highly agree,4,1708008688047,1708008692392,\Highly agree\,\Highly agree\,\4\,1708008691782,1708008691782,3735,3735,4345,buq,qns-item-noham,63,645256,0.0-1.0-0.62,65ce223349d41a23007d1a85,AWAITING REVIEW,2024-02-15T14:40:28.007000Z,2024-02-15T15:07:21.809000Z,,2024-02-15T15:07:23.167026Z,1614.0,CVPIIDEI,665,35,Male,White,United States,United States,United States,English,No,Full-Time,Not Applicable
6543abcd121016ebc6f86436,<b>I can usually find something to agree with in most people?s beliefs.,Highly disagree,64/94,Somewhat agree,3,1708008692394,1708008697986,\Somewhat agree\,\Somewhat agree\,\3\,1708008697437,1708008697437,5043,5043,5592,buq,qns-item-noham,64,650851,0.0-1.0-0.63,65ce223349d41a23007d1a85,AWAITING REVIEW,2024-02-15T14:40:28.007000Z,2024-02-15T15:07:21.809000Z,,2024-02-15T15:07:23.167026Z,1614.0,CVPIIDEI,665,35,Male,White,United States,United States,United States,English,No,Full-Time,Not Applicable
6543abcd121016ebc6f86436,<b>I only form my views of people once I get to know them very well.,Highly disagree,65/94,Somewhat agree,3,1708008697988,1708009237273,\Somewhat agree\,\Somewhat agree\,\3\,1708009236586,1708009236586,538598,538598,539285,buq,qns-item-noham,65,1190137,0.0-1.0-0.64,65ce223349d41a23007d1a85,AWAITING REVIEW,2024-02-15T14:40:28.007000Z,2024-02-15T15:07:21.809000Z,,2024-02-15T15:07:23.167026Z,1614.0,CVPIIDEI,665,35,Male,White,United States,United States,United States,English,No,Full-Time,Not Applicable
6543abcd121016ebc6f86436,"<b>When people tell me important things about the world, I usually believe them.",Highly disagree,66/94,Somewhat disagree,2,1708009237274,1708009242085,\Somewhat disagree\,\Somewhat disagree\,\2\,1708009241439,1708009241439,4165,4165,4811,buq,qns-item-noham,66,1194949,0.0-1.0-0.65,65ce223349d41a23007d1a85,AWAITING REVIEW,2024-02-15T14:40:28.007000Z,2024-02-15T15:07:21.809000Z,,2024-02-15T15:07:23.167026Z,1614.0,CVPIIDEI,665,35,Male,White,United States,United States,United States,English,No,Full-Time,Not Applicable
6543abcd121016ebc6f86436,"<b>If a friend does something that upsets me, it reminds me what an unpredictable place the world is.",Highly disagree,67/94,Somewhat agree,3,1708009242086,1708009247496,\Somewhat agree\,\Somewhat agree\,\3\,1708009246830,1708009246830,4744,4744,5410,buq,qns-item-noham,67,1200360,0.0-1.0-0.66,65ce223349d41a23007d1a85,AWAITING REVIEW,2024-02-15T14:40:28.007000Z,2024-02-15T15:07:21.809000Z,,2024-02-15T15:07:23.167026Z,1614.0,CVPIIDEI,665,35,Male,White,United States,United States,United States,English,No,Full-Time,Not Applicable
6543abcd121016ebc6f86436,<b>People tend to believe whatever is good for their friends.,Highly disagree,68/94,Somewhat disagree,2,1708009247498,1708009252759,\Somewhat disagree\,\Somewhat disagree\,\2\,1708009252173,1708009252173,4675,4675,5261,buq,qns-item-noham,68,1205623,0.0-1.0-0.67,65ce223349d41a23007d1a85,AWAITING REVIEW,2024-02-15T14:40:28.007000Z,2024-02-15T15:07:21.809000Z,,2024-02-15T15:07:23.167026Z,1614.0,CVPIIDEI,665,35,Male,White,United States,United States,United States,English,No,Full-Time,Not Applicable
6543abcd121016ebc6f86436,<b>I used to be more certain my beliefs were true.,Highly disagree,69/94,Highly disagree,1,1708009252760,1708009257204,\Highly disagree\,\Highly disagree\,\1\,1708009256510,1708009256510,3750,3750,4444,buq,qns-item-noham,69,1210068,0.0-1.0-0.68,65ce223349d41a23007d1a85,AWAITING REVIEW,2024-02-15T14:40:28.007000Z,2024-02-15T15:07:21.809000Z,,2024-02-15T15:07:23.167026Z,1614.0,CVPIIDEI,665,35,Male,White,United States,United States,United States,English,No,Full-Time,Not Applicable
6543abcd121016ebc6f86436,<b>It?s often pretty easy to figure out whether something is true based on who said it.,Highly disagree,70/94,Highly disagree,1,1708009257206,1708009262075,\Highly disagree\,\Highly disagree\,\1\,1708009261468,1708009261468,4262,4262,4869,buq,qns-item-noham,70,1214939,0.0-1.0-0.69,65ce223349d41a23007d1a85,AWAITING REVIEW,2024-02-15T14:40:28.007000Z,2024-02-15T15:07:21.809000Z,,2024-02-15T15:07:23.167026Z,1614.0,CVPIIDEI,665,35,Male,White,United States,United States,United States,English,No,Full-Time,Not Applicable
6543abcd121016ebc6f86436,<b>I transform into a hummingbird every day.,Highly disagree,71/94,Highly disagree,1,1708009262077,1708009264770,\Highly disagree\,\Highly disagree\,\1\,1708009264117,1708009264117,2040,2040,2693,buq,qns-item-noham,71,1217634,0.0-1.0-0.70,65ce223349d41a23007d1a85,AWAITING REVIEW,2024-02-15T14:40:28.007000Z,2024-02-15T15:07:21.809000Z,,2024-02-15T15:07:23.167026Z,1614.0,CVPIIDEI,665,35,Male,White,United States,United States,United States,English,No,Full-Time,Not Applicable
6543abcd121016ebc6f86436,<b>I think a lot about arguments against my views.,Highly disagree,72/94,Highly agree,4,1708009264771,1708009376414,\Highly agree\,\Highly agree\,\4\,1708009375823,1708009375823,111052,111052,111643,buq,qns-item-noham,72,1329278,0.0-1.0-0.71,65ce223349d41a23007d1a85,AWAITING REVIEW,2024-02-15T14:40:28.007000Z,2024-02-15T15:07:21.809000Z,,2024-02-15T15:07:23.167026Z,1614.0,CVPIIDEI,665,35,Male,White,United States,United States,United States,English,No,Full-Time,Not Applicable
6543abcd121016ebc6f86436,<b>Personal experience is usually more important than facts and figures.,Highly disagree,73/94,Somewhat agree,3,1708009376416,1708009382564,\Somewhat agree\,\Somewhat agree\,\3\,1708009380319,1708009381936,3903,5520,6148,buq,qns-item-noham,73,1335428,0.0-1.0-0.72,65ce223349d41a23007d1a85,AWAITING REVIEW,2024-02-15T14:40:28.007000Z,2024-02-15T15:07:21.809000Z,,2024-02-15T15:07:23.167026Z,1614.0,CVPIIDEI,665,35,Male,White,United States,United States,United States,English,No,Full-Time,Not Applicable
6543abcd121016ebc6f86436,<b>I?ve been tricked before about important matters.,Highly disagree,74/94,Highly agree,4,1708009382566,1708009385846,\Somewhat agree\,\Highly agree\,\3\,1708009384485,1708009385270,1919,2704,3280,buq,qns-item-noham,74,1338710,0.0-1.0-0.73,65ce223349d41a23007d1a85,AWAITING REVIEW,2024-02-15T14:40:28.007000Z,2024-02-15T15:07:21.809000Z,,2024-02-15T15:07:23.167026Z,1614.0,CVPIIDEI,665,35,Male,White,United States,United States,United States,English,No,Full-Time,Not Applicable
6543abcd121016ebc6f86436,<b>I would need to be totally wowed if I were to change my opinion of a restaurant I don?t like.,Highly disagree,75/94,Highly disagree,1,1708009385848,1708009515144,\Highly disagree\,\Highly disagree\,\1\,1708009514504,1708009514504,128656,128656,129296,buq,qns-item-noham,75,1468008,0.0-1.0-0.74,65ce223349d41a23007d1a85,AWAITING REVIEW,2024-02-15T14:40:28.007000Z,2024-02-15T15:07:21.809000Z,,2024-02-15T15:07:23.167026Z,1614.0,CVPIIDEI,665,35,Male,White,United States,United States,United States,English,No,Full-Time,Not Applicable
6543abcd121016ebc6f86436,<b>I care a lot about politics.,Highly disagree,76/94,Highly agree,4,1708009515146,1708009518365,\Highly agree\,\Highly agree\,\4\,1708009517750,1708009517750,2604,2604,3219,buq,qns-item-noham,76,1471229,0.0-1.0-0.75,65ce223349d41a23007d1a85,AWAITING REVIEW,2024-02-15T14:40:28.007000Z,2024-02-15T15:07:21.809000Z,,2024-02-15T15:07:23.167026Z,1614.0,CVPIIDEI,665,35,Male,White,United States,United States,United States,English,No,Full-Time,Not Applicable
6543abcd121016ebc6f86436,<b>There are some topics I?ve been really wrong about.,Highly disagree,77/94,Highly agree,4,1708009518366,1708009521126,\Highly agree\,\Highly agree\,\4\,1708009520369,1708009520369,2003,2003,2760,buq,qns-item-noham,77,1473990,0.0-1.0-0.76,65ce223349d41a23007d1a85,AWAITING REVIEW,2024-02-15T14:40:28.007000Z,2024-02-15T15:07:21.809000Z,,2024-02-15T15:07:23.167026Z,1614.0,CVPIIDEI,665,35,Male,White,United States,United States,United States,English,No,Full-Time,Not Applicable
6543abcd121016ebc6f86436,<b>Most beliefs can be supported with at least some evidence.,Highly disagree,78/94,Highly agree,4,1708009521127,1708009525682,\Highly agree\,\Highly agree\,\4\,1708009524952,1708009524952,3825,3825,4555,buq,qns-item-noham,78,1478546,0.0-1.0-0.77,65ce223349d41a23007d1a85,AWAITING REVIEW,2024-02-15T14:40:28.007000Z,2024-02-15T15:07:21.809000Z,,2024-02-15T15:07:23.167026Z,1614.0,CVPIIDEI,665,35,Male,White,United States,United States,United States,English,No,Full-Time,Not Applicable
6543abcd121016ebc6f86436,<b>Other people make life out to be more complicated than it really is.,Highly disagree,79/94,Highly agree,4,1708009525683,1708009531680,\Highly agree\,\Highly agree\,\4\,1708009531054,1708009531054,5371,5371,5997,buq,qns-item-noham,79,1484544,0.0-1.0-0.78,65ce223349d41a23007d1a85,AWAITING REVIEW,2024-02-15T14:40:28.007000Z,2024-02-15T15:07:21.809000Z,,2024-02-15T15:07:23.167026Z,1614.0,CVPIIDEI,665,35,Male,White,United States,United States,United States,English,No,Full-Time,Not Applicable
6543abcd121016ebc6f86436,"<b>Policy details don?t matter much, just the big picture.",Highly disagree,80/94,Highly disagree,1,1708009531681,1708009536009,\Highly disagree\,\Highly disagree\,\1\,1708009535279,1708009535279,3598,3598,4328,buq,qns-item-noham,80,1488873,0.0-1.0-0.79,65ce223349d41a23007d1a85,AWAITING REVIEW,2024-02-15T14:40:28.007000Z,2024-02-15T15:07:21.809000Z,,2024-02-15T15:07:23.167026Z,1614.0,CVPIIDEI,665,35,Male,White,United States,United States,United States,English,No,Full-Time,Not Applicable
6543abcd121016ebc6f86436,<b>I know my friends so well they can hardly ever surprise me.,Highly disagree,81/94,Highly disagree,1,1708009536010,1708009539229,\Highly disagree\,\Highly disagree\,\1\,1708009538558,1708009538558,2548,2548,3219,buq,qns-item-noham,81,1492093,0.0-1.0-0.80,65ce223349d41a23007d1a85,AWAITING REVIEW,2024-02-15T14:40:28.007000Z,2024-02-15T15:07:21.809000Z,,2024-02-15T15:07:23.167026Z,1614.0,CVPIIDEI,665,35,Male,White,United States,United States,United States,English,No,Full-Time,Not Applicable
6543abcd121016ebc6f86436,<b>I do not often change my views on people.,Highly disagree,82/94,Somewhat disagree,2,1708009539231,1708009543035,\Somewhat disagree\,\Somewhat disagree\,\2\,1708009542114,1708009542114,2883,2883,3804,buq,qns-item-noham,82,1495899,0.0-1.0-0.81,65ce223349d41a23007d1a85,AWAITING REVIEW,2024-02-15T14:40:28.007000Z,2024-02-15T15:07:21.809000Z,,2024-02-15T15:07:23.167026Z,1614.0,CVPIIDEI,665,35,Male,White,United States,United States,United States,English,No,Full-Time,Not Applicable
6543abcd121016ebc6f86436,<b>I?m more certain about my beliefs than I used to be.,Highly disagree,83/94,Highly agree,4,1708009543037,1708009548409,\Highly agree\,\Highly agree\,\4\,1708009547791,1708009547791,4754,4754,5372,buq,qns-item-noham,83,1501273,0.0-1.0-0.82,65ce223349d41a23007d1a85,AWAITING REVIEW,2024-02-15T14:40:28.007000Z,2024-02-15T15:07:21.809000Z,,2024-02-15T15:07:23.167026Z,1614.0,CVPIIDEI,665,35,Male,White,United States,United States,United States,English,No,Full-Time,Not Applicable
6543abcd121016ebc6f86436,<b>People often tell falsehoods unintentionally.,Highly disagree,84/94,Somewhat agree,3,1708009548411,1708009551553,\Somewhat agree\,\Somewhat agree\,\3\,1708009550965,1708009550965,2554,2554,3142,buq,qns-item-noham,84,1504417,0.0-1.0-0.83,65ce223349d41a23007d1a85,AWAITING REVIEW,2024-02-15T14:40:28.007000Z,2024-02-15T15:07:21.809000Z,,2024-02-15T15:07:23.167026Z,1614.0,CVPIIDEI,665,35,Male,White,United States,United States,United States,English,No,Full-Time,Not Applicable
6543abcd121016ebc6f86436,<b>Most people don?t know much about most things.,Highly disagree,85/94,Somewhat agree,3,1708009551554,1708009556120,\Somewhat agree\,\Somewhat agree\,\3\,1708009555432,1708009555432,3878,3878,4566,buq,qns-item-noham,85,1508984,0.0-1.0-0.84,65ce223349d41a23007d1a85,AWAITING REVIEW,2024-02-15T14:40:28.007000Z,2024-02-15T15:07:21.809000Z,,2024-02-15T15:07:23.167026Z,1614.0,CVPIIDEI,665,35,Male,White,United States,United States,United States,English,No,Full-Time,Not Applicable
6543abcd121016ebc6f86436,"<b>If I find out something new about someone, I easily change my views about them.",Highly disagree,86/94,Somewhat agree,3,1708009556122,1708009563055,\Somewhat agree\,\Somewhat agree\,\3\,1708009561987,1708009561987,5865,5865,6933,buq,qns-item-noham,86,1515919,0.0-1.0-0.85,65ce223349d41a23007d1a85,AWAITING REVIEW,2024-02-15T14:40:28.007000Z,2024-02-15T15:07:21.809000Z,,2024-02-15T15:07:23.167026Z,1614.0,CVPIIDEI,665,35,Male,White,United States,United States,United States,English,No,Full-Time,Not Applicable
6543abcd121016ebc6f86436,<b>Having true beliefs is difficult.,Highly disagree,87/94,Highly agree,4,1708009563057,1708009567660,\Highly agree\,\Highly agree\,\4\,1708009567031,1708009567031,3974,3974,4603,buq,qns-item-noham,87,1520524,0.0-1.0-0.86,65ce223349d41a23007d1a85,AWAITING REVIEW,2024-02-15T14:40:28.007000Z,2024-02-15T15:07:21.809000Z,,2024-02-15T15:07:23.167026Z,1614.0,CVPIIDEI,665,35,Male,White,United States,United States,United States,English,No,Full-Time,Not Applicable
6543abcd121016ebc6f86436,<b>I don?t try new foods since I know I won?t like them.,Highly disagree,88/94,Highly disagree,1,1708009567662,1708009575224,\Highly disagree\,\Highly disagree\,\1\,1708009574423,1708009574423,6761,6761,7562,buq,qns-item-noham,88,1528088,0.0-1.0-0.87,65ce223349d41a23007d1a85,AWAITING REVIEW,2024-02-15T14:40:28.007000Z,2024-02-15T15:07:21.809000Z,,2024-02-15T15:07:23.167026Z,1614.0,CVPIIDEI,665,35,Male,White,United States,United States,United States,English,No,Full-Time,Not Applicable
6543abcd121016ebc6f86436,<b>Other people trick each other a lot.,Highly disagree,89/94,Somewhat disagree,2,1708009575226,1708009577986,\Somewhat disagree\,\Somewhat disagree\,\2\,1708009577349,1708009577349,2123,2123,2760,buq,qns-item-noham,89,1530850,0.0-1.0-0.88,65ce223349d41a23007d1a85,AWAITING REVIEW,2024-02-15T14:40:28.007000Z,2024-02-15T15:07:21.809000Z,,2024-02-15T15:07:23.167026Z,1614.0,CVPIIDEI,665,35,Male,White,United States,United States,United States,English,No,Full-Time,Not Applicable
6543abcd121016ebc6f86436,<b>I would need to learn a lot about a person for my opinion of them to be swayed.,Highly disagree,90/94,Somewhat agree,3,1708009577987,1708009583436,\Somewhat agree\,\Somewhat agree\,\3\,1708009582804,1708009582804,4817,4817,5449,buq,qns-item-noham,90,1536300,0.0-1.0-0.89,65ce223349d41a23007d1a85,AWAITING REVIEW,2024-02-15T14:40:28.007000Z,2024-02-15T15:07:21.809000Z,,2024-02-15T15:07:23.167026Z,1614.0,CVPIIDEI,665,35,Male,White,United States,United States,United States,English,No,Full-Time,Not Applicable
6543abcd121016ebc6f86436,<b>People can?t usually trick me when it comes to topics I care about.,Highly disagree,91/94,Somewhat agree,3,1708009583438,1708009588194,\Somewhat agree\,\Somewhat agree\,\3\,1708009587320,1708009587320,3882,3882,4756,buq,qns-item-noham,91,1541058,0.0-1.0-0.90,65ce223349d41a23007d1a85,AWAITING REVIEW,2024-02-15T14:40:28.007000Z,2024-02-15T15:07:21.809000Z,,2024-02-15T15:07:23.167026Z,1614.0,CVPIIDEI,665,35,Male,White,United States,United States,United States,English,No,Full-Time,Not Applicable
6543abcd121016ebc6f86436,<b>I do not often change my views on food.,Highly disagree,92/94,Somewhat agree,3,1708009588196,1708009594475,\Highly disagree\,\Somewhat agree\,\1\,1708009591108,1708009593796,2912,5600,6279,buq,qns-item-noham,92,1547339,0.0-1.0-0.91,65ce223349d41a23007d1a85,AWAITING REVIEW,2024-02-15T14:40:28.007000Z,2024-02-15T15:07:21.809000Z,,2024-02-15T15:07:23.167026Z,1614.0,CVPIIDEI,665,35,Male,White,United States,United States,United States,English,No,Full-Time,Not Applicable
6543abcd121016ebc6f86436,<b>Specific policies are often very important to me.,Highly disagree,93/94,Highly agree,4,1708009594480,1708009597890,\Highly agree\,\Highly agree\,\4\,1708009597229,1708009597229,2749,2749,3410,buq,qns-item-noham,93,1550754,0.0-1.0-0.92,65ce223349d41a23007d1a85,AWAITING REVIEW,2024-02-15T14:40:28.007000Z,2024-02-15T15:07:21.809000Z,,2024-02-15T15:07:23.167026Z,1614.0,CVPIIDEI,665,35,Male,White,United States,United States,United States,English,No,Full-Time,Not Applicable
6543abcd121016ebc6f86436,<b>Most people are woefully under-informed.,Highly disagree,94/94,Highly agree,4,1708009597892,1708009600893,\Highly agree\,\Highly agree\,\4\,1708009600125,1708009600125,2233,2233,3001,buq,qns-item-noham,94,1553757,0.0-1.0-0.93,65ce223349d41a23007d1a85,AWAITING REVIEW,2024-02-15T14:40:28.007000Z,2024-02-15T15:07:21.809000Z,,2024-02-15T15:07:23.167026Z,1614.0,CVPIIDEI,665,35,Male,White,United States,United States,United States,English,No,Full-Time,Not Applicable
6543abcd121016ebc6f86436,,,,,,,,,,,,,,,,,,,,,65ce223349d41a23007d1a85,AWAITING REVIEW,2024-02-15T14:40:28.007000Z,2024-02-15T15:07:21.809000Z,,2024-02-15T15:07:23.167026Z,1614.0,CVPIIDEI,665,35,Male,White,United States,United States,United States,English,No,Full-Time,Not Applicable
