PROLIFIC_PID,Question,qns_options,quest_num,answer,answer_num,question_load_timestamp,next_btn_timestamp,text_selected,final_text_selected,option_num_selected,preview_timestamps,final_text_selected_time_stamp,rt_first_option_click,rt_final_option_click,rt_submit_click,questionnaire,trial_type,trial_index,time_elapsed,internal_node_id,Demographic_Submission id,Demographic_Status,Demographic_Started at,Demographic_Completed at,Demographic_Reviewed at,Demographic_Archived at,Demographic_Time taken,Demographic_Completion code,Demographic_Total approvals,Demographic_Age,Demographic_Sex,Demographic_Ethnicity simplified,Demographic_Country of birth,Demographic_Country of residence,Demographic_Nationality,Demographic_Language,Demographic_Student status,Demographic_Employment status,Demographic_Custom study tncs accepted at
6418fa57a5d4085174100296,<b>Knowing what?s true and knowing what to do about it are usually basically the same.,Highly disagree,1/94,Somewhat agree,3,1708008634946,1708008645001,\Somewhat agree\,\Somewhat agree\,\3\,1708008644220,1708008644220,9274,9274,10055,buq,qns-item-noham,1,19969,0.0-1.0-0.0,65ce221f8639327e2e5462ca,AWAITING REVIEW,2024-02-15T14:49:21.834000Z,2024-02-15T14:59:48.172000Z,,2024-02-15T14:59:48.671521Z,627.0,CVPIIDEI,364,27,Male,Asian,United States,United States,United States,English,No,Full-Time,Not Applicable
6418fa57a5d4085174100296,<b>Most people just believe whatever is convenient for them.,Highly disagree,2/94,Highly agree,4,1708008645004,1708008648689,\Highly agree\,\Highly agree\,\4\,1708008647570,1708008647570,2566,2566,3685,buq,qns-item-noham,2,23656,0.0-1.0-0.1,65ce221f8639327e2e5462ca,AWAITING REVIEW,2024-02-15T14:49:21.834000Z,2024-02-15T14:59:48.172000Z,,2024-02-15T14:59:48.671521Z,627.0,CVPIIDEI,364,27,Male,Asian,United States,United States,United States,English,No,Full-Time,Not Applicable
6418fa57a5d4085174100296,<b>Having some big beliefs helps me sort out minor ones.,Highly disagree,3/94,Highly agree,4,1708008648690,1708008652924,\Highly agree\,\Highly agree\,\4\,1708008652139,1708008652139,3449,3449,4234,buq,qns-item-noham,3,27892,0.0-1.0-0.2,65ce221f8639327e2e5462ca,AWAITING REVIEW,2024-02-15T14:49:21.834000Z,2024-02-15T14:59:48.172000Z,,2024-02-15T14:59:48.671521Z,627.0,CVPIIDEI,364,27,Male,Asian,United States,United States,United States,English,No,Full-Time,Not Applicable
6418fa57a5d4085174100296,<b>Political questions are usually pretty complicated.,Highly disagree,4/94,Somewhat disagree,2,1708008652926,1708008658246,\Highly disagree\,\Somewhat disagree\,\1\,1708008655634,1708008657620,2708,4694,5320,buq,qns-item-noham,4,33213,0.0-1.0-0.3,65ce221f8639327e2e5462ca,AWAITING REVIEW,2024-02-15T14:49:21.834000Z,2024-02-15T14:59:48.172000Z,,2024-02-15T14:59:48.671521Z,627.0,CVPIIDEI,364,27,Male,Asian,United States,United States,United States,English,No,Full-Time,Not Applicable
6418fa57a5d4085174100296,<b>Figuring out what?s important in life requires learning a lot of facts.,Highly disagree,5/94,Somewhat agree,3,1708008658247,1708008662162,\Somewhat agree\,\Somewhat agree\,\3\,1708008661124,1708008661124,2877,2877,3915,buq,qns-item-noham,5,37129,0.0-1.0-0.4,65ce221f8639327e2e5462ca,AWAITING REVIEW,2024-02-15T14:49:21.834000Z,2024-02-15T14:59:48.172000Z,,2024-02-15T14:59:48.671521Z,627.0,CVPIIDEI,364,27,Male,Asian,United States,United States,United States,English,No,Full-Time,Not Applicable
6418fa57a5d4085174100296,<b>It is difficult for me to remember the last time I was surprised by politics.,Highly disagree,6/94,Somewhat disagree,2,1708008662163,1708008666755,\Somewhat disagree\,\Somewhat disagree\,\2\,1708008665124,1708008665124,2961,2961,4592,buq,qns-item-noham,6,41722,0.0-1.0-0.5,65ce221f8639327e2e5462ca,AWAITING REVIEW,2024-02-15T14:49:21.834000Z,2024-02-15T14:59:48.172000Z,,2024-02-15T14:59:48.671521Z,627.0,CVPIIDEI,364,27,Male,Asian,United States,United States,United States,English,No,Full-Time,Not Applicable
6418fa57a5d4085174100296,<b>People?s false beliefs are understandable.,Highly disagree,7/94,Highly disagree,1,1708008666757,1708008672517,\Somewhat disagree\,\Highly disagree\,\2\,1708008670764,1708008671837,4007,5080,5760,buq,qns-item-noham,7,47484,0.0-1.0-0.6,65ce221f8639327e2e5462ca,AWAITING REVIEW,2024-02-15T14:49:21.834000Z,2024-02-15T14:59:48.172000Z,,2024-02-15T14:59:48.671521Z,627.0,CVPIIDEI,364,27,Male,Asian,United States,United States,United States,English,No,Full-Time,Not Applicable
6418fa57a5d4085174100296,<b>I spend a lot of time trying to be informed about politics.,Highly disagree,8/94,Somewhat disagree,2,1708008672519,1708008675292,\Somewhat disagree\,\Somewhat disagree\,\2\,1708008674356,1708008674356,1837,1837,2773,buq,qns-item-noham,8,50259,0.0-1.0-0.7,65ce221f8639327e2e5462ca,AWAITING REVIEW,2024-02-15T14:49:21.834000Z,2024-02-15T14:59:48.172000Z,,2024-02-15T14:59:48.671521Z,627.0,CVPIIDEI,364,27,Male,Asian,United States,United States,United States,English,No,Full-Time,Not Applicable
6418fa57a5d4085174100296,<b>I think a lot about whether my beliefs are right.,Highly disagree,9/94,Somewhat agree,3,1708008675293,1708008680462,\Somewhat agree\,\Somewhat agree\,\3\,1708008679901,1708008679901,4608,4608,5169,buq,qns-item-noham,9,55429,0.0-1.0-0.8,65ce221f8639327e2e5462ca,AWAITING REVIEW,2024-02-15T14:49:21.834000Z,2024-02-15T14:59:48.172000Z,,2024-02-15T14:59:48.671521Z,627.0,CVPIIDEI,364,27,Male,Asian,United States,United States,United States,English,No,Full-Time,Not Applicable
6418fa57a5d4085174100296,<b>Statistics can be pretty misleading sometimes.,Highly disagree,10/94,Somewhat disagree,2,1708008680463,1708008683991,\Somewhat disagree\,\Somewhat disagree\,\2\,1708008682435,1708008682435,1972,1972,3528,buq,qns-item-noham,10,58958,0.0-1.0-0.9,65ce221f8639327e2e5462ca,AWAITING REVIEW,2024-02-15T14:49:21.834000Z,2024-02-15T14:59:48.172000Z,,2024-02-15T14:59:48.671521Z,627.0,CVPIIDEI,364,27,Male,Asian,United States,United States,United States,English,No,Full-Time,Not Applicable
6418fa57a5d4085174100296,<b>I have lots of beliefs that I?m only sort of sure about.,Highly disagree,11/94,Highly disagree,1,1708008683993,1708008688391,\Somewhat disagree\,\Highly disagree\,\2\,1708008687016,1708008687795,3023,3802,4398,buq,qns-item-noham,11,63358,0.0-1.0-0.10,65ce221f8639327e2e5462ca,AWAITING REVIEW,2024-02-15T14:49:21.834000Z,2024-02-15T14:59:48.172000Z,,2024-02-15T14:59:48.671521Z,627.0,CVPIIDEI,364,27,Male,Asian,United States,United States,United States,English,No,Full-Time,Not Applicable
6418fa57a5d4085174100296,"<b>If I go to my favorite restaurant and the food is surprisingly bad, it reminds me there are many disappointments in life.",Highly disagree,12/94,Somewhat disagree,2,1708008688392,1708008697167,\Somewhat disagree\,\Somewhat disagree\,\2\,1708008696531,1708008696531,8139,8139,8775,buq,qns-item-noham,12,72134,0.0-1.0-0.11,65ce221f8639327e2e5462ca,AWAITING REVIEW,2024-02-15T14:49:21.834000Z,2024-02-15T14:59:48.172000Z,,2024-02-15T14:59:48.671521Z,627.0,CVPIIDEI,364,27,Male,Asian,United States,United States,United States,English,No,Full-Time,Not Applicable
6418fa57a5d4085174100296,"<b>If you are paying attention, please select ?Somewhat agree?",Highly disagree,13/94,Somewhat agree,3,1708008697168,1708008700050,\Somewhat agree\,\Somewhat agree\,\3\,1708008699056,1708008699056,1888,1888,2882,buq,qns-item-noham,13,75017,0.0-1.0-0.12,65ce221f8639327e2e5462ca,AWAITING REVIEW,2024-02-15T14:49:21.834000Z,2024-02-15T14:59:48.172000Z,,2024-02-15T14:59:48.671521Z,627.0,CVPIIDEI,364,27,Male,Asian,United States,United States,United States,English,No,Full-Time,Not Applicable
6418fa57a5d4085174100296,"<b>When I talk to others, I often worry I?ll convince them of something I didn?t mean to.",Highly disagree,14/94,Highly disagree,1,1708008700052,1708008704970,\Highly disagree\,\Highly disagree\,\1\,1708008704414,1708008704414,4362,4362,4918,buq,qns-item-noham,14,79937,0.0-1.0-0.13,65ce221f8639327e2e5462ca,AWAITING REVIEW,2024-02-15T14:49:21.834000Z,2024-02-15T14:59:48.172000Z,,2024-02-15T14:59:48.671521Z,627.0,CVPIIDEI,364,27,Male,Asian,United States,United States,United States,English,No,Full-Time,Not Applicable
6418fa57a5d4085174100296,<b>I would need to learn something utterly shocking about my party in order to change my political views.,Highly disagree,15/94,Highly disagree,1,1708008704971,1708008710754,\Highly disagree\,\Highly disagree\,\1\,1708008709473,1708008709473,4502,4502,5783,buq,qns-item-noham,15,85721,0.0-1.0-0.14,65ce221f8639327e2e5462ca,AWAITING REVIEW,2024-02-15T14:49:21.834000Z,2024-02-15T14:59:48.172000Z,,2024-02-15T14:59:48.671521Z,627.0,CVPIIDEI,364,27,Male,Asian,United States,United States,United States,English,No,Full-Time,Not Applicable
6418fa57a5d4085174100296,"<b>When I have new experiences, I tend to think of them as unique.",Highly disagree,16/94,Somewhat agree,3,1708008710756,1708008717358,\Somewhat agree\,\Somewhat agree\,\3\,1708008714922,1708008716847,4166,6091,6602,buq,qns-item-noham,16,92325,0.0-1.0-0.15,65ce221f8639327e2e5462ca,AWAITING REVIEW,2024-02-15T14:49:21.834000Z,2024-02-15T14:59:48.172000Z,,2024-02-15T14:59:48.671521Z,627.0,CVPIIDEI,364,27,Male,Asian,United States,United States,United States,English,No,Full-Time,Not Applicable
6418fa57a5d4085174100296,<b>I change my mind about specific policies pretty frequently.,Highly disagree,17/94,Somewhat disagree,2,1708008717359,1708008720528,\Somewhat disagree\,\Somewhat disagree\,\2\,1708008719964,1708008719964,2605,2605,3169,buq,qns-item-noham,17,95495,0.0-1.0-0.16,65ce221f8639327e2e5462ca,AWAITING REVIEW,2024-02-15T14:49:21.834000Z,2024-02-15T14:59:48.172000Z,,2024-02-15T14:59:48.671521Z,627.0,CVPIIDEI,364,27,Male,Asian,United States,United States,United States,English,No,Full-Time,Not Applicable
6418fa57a5d4085174100296,"<b>If a politician in my political party supports something I disagree with, I give them the benefit of the doubt, as such issues often involve hidden complexities that aren?t obvious.   ",Highly disagree,18/94,Somewhat disagree,2,1708008720529,1708008726504,\Somewhat disagree\,\Somewhat disagree\,\2\,1708008725978,1708008725978,5449,5449,5975,buq,qns-item-noham,18,101471,0.0-1.0-0.17,65ce221f8639327e2e5462ca,AWAITING REVIEW,2024-02-15T14:49:21.834000Z,2024-02-15T14:59:48.172000Z,,2024-02-15T14:59:48.671521Z,627.0,CVPIIDEI,364,27,Male,Asian,United States,United States,United States,English,No,Full-Time,Not Applicable
6418fa57a5d4085174100296,<b>People?s bad politics are usually motivated by hatefulness.,Highly disagree,19/94,Highly agree,4,1708008726505,1708008730031,\Highly agree\,\Highly agree\,\4\,1708008729322,1708008729322,2817,2817,3526,buq,qns-item-noham,19,104998,0.0-1.0-0.18,65ce221f8639327e2e5462ca,AWAITING REVIEW,2024-02-15T14:49:21.834000Z,2024-02-15T14:59:48.172000Z,,2024-02-15T14:59:48.671521Z,627.0,CVPIIDEI,364,27,Male,Asian,United States,United States,United States,English,No,Full-Time,Not Applicable
6418fa57a5d4085174100296,<b>I think a lot about how to reconcile my beliefs with one another.,Highly disagree,20/94,Somewhat disagree,2,1708008730032,1708008733216,\Somewhat disagree\,\Somewhat disagree\,\2\,1708008732685,1708008732685,2653,2653,3184,buq,qns-item-noham,20,108183,0.0-1.0-0.19,65ce221f8639327e2e5462ca,AWAITING REVIEW,2024-02-15T14:49:21.834000Z,2024-02-15T14:59:48.172000Z,,2024-02-15T14:59:48.671521Z,627.0,CVPIIDEI,364,27,Male,Asian,United States,United States,United States,English,No,Full-Time,Not Applicable
6418fa57a5d4085174100296,<b>I might have false beliefs about important topics.,Highly disagree,21/94,Highly disagree,1,1708008733217,1708008737553,\Somewhat disagree\,\Highly disagree\,\2\,1708008735895,1708008736757,2678,3540,4336,buq,qns-item-noham,21,112520,0.0-1.0-0.20,65ce221f8639327e2e5462ca,AWAITING REVIEW,2024-02-15T14:49:21.834000Z,2024-02-15T14:59:48.172000Z,,2024-02-15T14:59:48.671521Z,627.0,CVPIIDEI,364,27,Male,Asian,United States,United States,United States,English,No,Full-Time,Not Applicable
6418fa57a5d4085174100296,"<b>If a good friend of mine does something unexpected that upsets me, I feel like I don?t know them anymore.",Highly disagree,22/94,Highly disagree,1,1708008737554,1708008745178,\Highly disagree\,\Highly disagree\,\1\,1708008744205,1708008744205,6651,6651,7624,buq,qns-item-noham,22,120145,0.0-1.0-0.21,65ce221f8639327e2e5462ca,AWAITING REVIEW,2024-02-15T14:49:21.834000Z,2024-02-15T14:59:48.172000Z,,2024-02-15T14:59:48.671521Z,627.0,CVPIIDEI,364,27,Male,Asian,United States,United States,United States,English,No,Full-Time,Not Applicable
6418fa57a5d4085174100296,<b>Other people?s beliefs are often incoherent.,Highly disagree,23/94,Somewhat disagree,2,1708008745179,1708008749234,\Somewhat disagree\,\Somewhat disagree\,\2\,1708008747726,1708008747726,2547,2547,4055,buq,qns-item-noham,23,124201,0.0-1.0-0.22,65ce221f8639327e2e5462ca,AWAITING REVIEW,2024-02-15T14:49:21.834000Z,2024-02-15T14:59:48.172000Z,,2024-02-15T14:59:48.671521Z,627.0,CVPIIDEI,364,27,Male,Asian,United States,United States,United States,English,No,Full-Time,Not Applicable
6418fa57a5d4085174100296,"<b>Every now and then, a new experience will unsettle beliefs I?ve had for a while.",Highly disagree,24/94,Somewhat disagree,2,1708008749236,1708008752988,\Somewhat disagree\,\Somewhat disagree\,\2\,1708008752257,1708008752257,3021,3021,3752,buq,qns-item-noham,24,127955,0.0-1.0-0.23,65ce221f8639327e2e5462ca,AWAITING REVIEW,2024-02-15T14:49:21.834000Z,2024-02-15T14:59:48.172000Z,,2024-02-15T14:59:48.671521Z,627.0,CVPIIDEI,364,27,Male,Asian,United States,United States,United States,English,No,Full-Time,Not Applicable
6418fa57a5d4085174100296,<b>Some policies I agree with in principle are so bad I don?t support them. ,Highly disagree,25/94,Highly agree,4,1708008752989,1708008757953,\Highly agree\,\Highly agree\,\4\,1708008756097,1708008756097,3108,3108,4964,buq,qns-item-noham,25,132920,0.0-1.0-0.24,65ce221f8639327e2e5462ca,AWAITING REVIEW,2024-02-15T14:49:21.834000Z,2024-02-15T14:59:48.172000Z,,2024-02-15T14:59:48.671521Z,627.0,CVPIIDEI,364,27,Male,Asian,United States,United States,United States,English,No,Full-Time,Not Applicable
6418fa57a5d4085174100296,<b>I?m pretty sure I?ve accidentally spread false information.,Highly disagree,26/94,Somewhat agree,3,1708008757954,1708008760612,\Somewhat agree\,\Somewhat agree\,\3\,1708008760062,1708008760062,2108,2108,2658,buq,qns-item-noham,26,135579,0.0-1.0-0.25,65ce221f8639327e2e5462ca,AWAITING REVIEW,2024-02-15T14:49:21.834000Z,2024-02-15T14:59:48.172000Z,,2024-02-15T14:59:48.671521Z,627.0,CVPIIDEI,364,27,Male,Asian,United States,United States,United States,English,No,Full-Time,Not Applicable
6418fa57a5d4085174100296,"<b>If I go to my favorite restaurant and the food is unexpectedly bad, then they have changed owners.",Highly disagree,27/94,Somewhat agree,3,1708008760614,1708008765541,\Somewhat agree\,\Somewhat agree\,\3\,1708008764988,1708008764988,4374,4374,4927,buq,qns-item-noham,27,140508,0.0-1.0-0.26,65ce221f8639327e2e5462ca,AWAITING REVIEW,2024-02-15T14:49:21.834000Z,2024-02-15T14:59:48.172000Z,,2024-02-15T14:59:48.671521Z,627.0,CVPIIDEI,364,27,Male,Asian,United States,United States,United States,English,No,Full-Time,Not Applicable
6418fa57a5d4085174100296,"<b>In politics, it?s important to trust your friends and family.",Highly disagree,28/94,Somewhat disagree,2,1708008765542,1708008769434,\Somewhat disagree\,\Somewhat disagree\,\2\,1708008768879,1708008768879,3337,3337,3892,buq,qns-item-noham,28,144401,0.0-1.0-0.27,65ce221f8639327e2e5462ca,AWAITING REVIEW,2024-02-15T14:49:21.834000Z,2024-02-15T14:59:48.172000Z,,2024-02-15T14:59:48.671521Z,627.0,CVPIIDEI,364,27,Male,Asian,United States,United States,United States,English,No,Full-Time,Not Applicable
6418fa57a5d4085174100296,<b>It?s OK to have some conflicting beliefs.,Highly disagree,29/94,Highly agree,4,1708008769434,1708008772195,\Highly agree\,\Highly agree\,\4\,1708008771535,1708008771535,2101,2101,2761,buq,qns-item-noham,29,147162,0.0-1.0-0.28,65ce221f8639327e2e5462ca,AWAITING REVIEW,2024-02-15T14:49:21.834000Z,2024-02-15T14:59:48.172000Z,,2024-02-15T14:59:48.671521Z,627.0,CVPIIDEI,364,27,Male,Asian,United States,United States,United States,English,No,Full-Time,Not Applicable
6418fa57a5d4085174100296,<b>Listening to people I disagree with makes my opinions better.,Highly disagree,30/94,Somewhat agree,3,1708008772196,1708008777512,\Somewhat agree\,\Somewhat agree\,\3\,1708008776794,1708008776794,4598,4598,5316,buq,qns-item-noham,30,152479,0.0-1.0-0.29,65ce221f8639327e2e5462ca,AWAITING REVIEW,2024-02-15T14:49:21.834000Z,2024-02-15T14:59:48.172000Z,,2024-02-15T14:59:48.671521Z,627.0,CVPIIDEI,364,27,Male,Asian,United States,United States,United States,English,No,Full-Time,Not Applicable
6418fa57a5d4085174100296,<b>My moral compass sometimes makes it harder to determine what?s true.,Highly disagree,31/94,Somewhat disagree,2,1708008777514,1708008781383,\Somewhat disagree\,\Somewhat disagree\,\2\,1708008779987,1708008779987,2473,2473,3869,buq,qns-item-noham,31,156350,0.0-1.0-0.30,65ce221f8639327e2e5462ca,AWAITING REVIEW,2024-02-15T14:49:21.834000Z,2024-02-15T14:59:48.172000Z,,2024-02-15T14:59:48.671521Z,627.0,CVPIIDEI,364,27,Male,Asian,United States,United States,United States,English,No,Full-Time,Not Applicable
6418fa57a5d4085174100296,<b>Evidence pointing in the wrong direction isn?t really evidence at all.,Highly disagree,32/94,Somewhat disagree,2,1708008781385,1708008797187,\Somewhat disagree\,\Somewhat disagree\,\2\,1708008792227,1708008792227,10842,10842,15802,buq,qns-item-noham,32,172154,0.0-1.0-0.31,65ce221f8639327e2e5462ca,AWAITING REVIEW,2024-02-15T14:49:21.834000Z,2024-02-15T14:59:48.172000Z,,2024-02-15T14:59:48.671521Z,627.0,CVPIIDEI,364,27,Male,Asian,United States,United States,United States,English,No,Full-Time,Not Applicable
6418fa57a5d4085174100296,"<b>If the political party I support messes up, it makes me think politics is rotten.",Highly disagree,33/94,Somewhat agree,3,1708008797188,1708008802902,\Somewhat agree\,\Somewhat agree\,\3\,1708008801129,1708008801129,3941,3941,5714,buq,qns-item-noham,33,177869,0.0-1.0-0.32,65ce221f8639327e2e5462ca,AWAITING REVIEW,2024-02-15T14:49:21.834000Z,2024-02-15T14:59:48.172000Z,,2024-02-15T14:59:48.671521Z,627.0,CVPIIDEI,364,27,Male,Asian,United States,United States,United States,English,No,Full-Time,Not Applicable
6418fa57a5d4085174100296,<b>Lots of important topics can only really be understood by some groups of people.,Highly disagree,34/94,Somewhat disagree,2,1708008802903,1708008808016,\Somewhat disagree\,\Somewhat disagree\,\2\,1708008807074,1708008807074,4171,4171,5113,buq,qns-item-noham,34,182984,0.0-1.0-0.33,65ce221f8639327e2e5462ca,AWAITING REVIEW,2024-02-15T14:49:21.834000Z,2024-02-15T14:59:48.172000Z,,2024-02-15T14:59:48.671521Z,627.0,CVPIIDEI,364,27,Male,Asian,United States,United States,United States,English,No,Full-Time,Not Applicable
6418fa57a5d4085174100296,<b>Having conflicting beliefs means you haven?t thought about them enough.,Highly disagree,35/94,Somewhat agree,3,1708008808017,1708008811662,\Somewhat agree\,\Somewhat agree\,\3\,1708008810902,1708008810902,2885,2885,3645,buq,qns-item-noham,35,186629,0.0-1.0-0.34,65ce221f8639327e2e5462ca,AWAITING REVIEW,2024-02-15T14:49:21.834000Z,2024-02-15T14:59:48.172000Z,,2024-02-15T14:59:48.671521Z,627.0,CVPIIDEI,364,27,Male,Asian,United States,United States,United States,English,No,Full-Time,Not Applicable
6418fa57a5d4085174100296,<b>I do not often change my political opinions.,Highly disagree,36/94,Somewhat agree,3,1708008811664,1708008814001,\Somewhat agree\,\Somewhat agree\,\3\,1708008813493,1708008813493,1829,1829,2337,buq,qns-item-noham,36,188968,0.0-1.0-0.35,65ce221f8639327e2e5462ca,AWAITING REVIEW,2024-02-15T14:49:21.834000Z,2024-02-15T14:59:48.172000Z,,2024-02-15T14:59:48.671521Z,627.0,CVPIIDEI,364,27,Male,Asian,United States,United States,United States,English,No,Full-Time,Not Applicable
6418fa57a5d4085174100296,<b>It?s difficult to not have at least some conflicting beliefs.,Highly disagree,37/94,Somewhat agree,3,1708008814002,1708008816879,\Somewhat agree\,\Somewhat agree\,\3\,1708008816421,1708008816421,2419,2419,2877,buq,qns-item-noham,37,191846,0.0-1.0-0.36,65ce221f8639327e2e5462ca,AWAITING REVIEW,2024-02-15T14:49:21.834000Z,2024-02-15T14:59:48.172000Z,,2024-02-15T14:59:48.671521Z,627.0,CVPIIDEI,364,27,Male,Asian,United States,United States,United States,English,No,Full-Time,Not Applicable
6418fa57a5d4085174100296,<b>Wishful thinking causes a lot of problems.,Highly disagree,38/94,Highly agree,4,1708008816880,1708008819810,\Highly agree\,\Highly agree\,\4\,1708008819278,1708008819278,2398,2398,2930,buq,qns-item-noham,38,194777,0.0-1.0-0.37,65ce221f8639327e2e5462ca,AWAITING REVIEW,2024-02-15T14:49:21.834000Z,2024-02-15T14:59:48.172000Z,,2024-02-15T14:59:48.671521Z,627.0,CVPIIDEI,364,27,Male,Asian,United States,United States,United States,English,No,Full-Time,Not Applicable
6418fa57a5d4085174100296,<b>I judge a food item only once I try it many times.,Highly disagree,39/94,Somewhat disagree,2,1708008819811,1708008823906,\Somewhat disagree\,\Somewhat disagree\,\2\,1708008823404,1708008823404,3593,3593,4095,buq,qns-item-noham,39,198873,0.0-1.0-0.38,65ce221f8639327e2e5462ca,AWAITING REVIEW,2024-02-15T14:49:21.834000Z,2024-02-15T14:59:48.172000Z,,2024-02-15T14:59:48.671521Z,627.0,CVPIIDEI,364,27,Male,Asian,United States,United States,United States,English,No,Full-Time,Not Applicable
6418fa57a5d4085174100296,"<b>When a person holds conflicting beliefs, they should really try to figure out what?s wrong.",Highly disagree,40/94,Somewhat agree,3,1708008823907,1708008827507,\Somewhat agree\,\Somewhat agree\,\3\,1708008827121,1708008827121,3214,3214,3600,buq,qns-item-noham,40,202474,0.0-1.0-0.39,65ce221f8639327e2e5462ca,AWAITING REVIEW,2024-02-15T14:49:21.834000Z,2024-02-15T14:59:48.172000Z,,2024-02-15T14:59:48.671521Z,627.0,CVPIIDEI,364,27,Male,Asian,United States,United States,United States,English,No,Full-Time,Not Applicable
6418fa57a5d4085174100296,<b>Knowing what?s important in life is easy.,Highly disagree,41/94,Highly agree,4,1708008827508,1708008831065,\Highly agree\,\Highly agree\,\4\,1708008830205,1708008830205,2697,2697,3557,buq,qns-item-noham,41,206032,0.0-1.0-0.40,65ce221f8639327e2e5462ca,AWAITING REVIEW,2024-02-15T14:49:21.834000Z,2024-02-15T14:59:48.172000Z,,2024-02-15T14:59:48.671521Z,627.0,CVPIIDEI,364,27,Male,Asian,United States,United States,United States,English,No,Full-Time,Not Applicable
6418fa57a5d4085174100296,<b>I swim across the Atlantic Ocean to get to work every day.,Highly disagree,42/94,Highly disagree,1,1708008831066,1708008833718,\Highly disagree\,\Highly disagree\,\1\,1708008832719,1708008832719,1653,1653,2652,buq,qns-item-noham,42,208685,0.0-1.0-0.41,65ce221f8639327e2e5462ca,AWAITING REVIEW,2024-02-15T14:49:21.834000Z,2024-02-15T14:59:48.172000Z,,2024-02-15T14:59:48.671521Z,627.0,CVPIIDEI,364,27,Male,Asian,United States,United States,United States,English,No,Full-Time,Not Applicable
6418fa57a5d4085174100296,"<b>Sometimes, you just have to ignore evidence that you know is wrong.",Highly disagree,43/94,Somewhat agree,3,1708008833719,1708008838063,\Somewhat agree\,\Somewhat agree\,\3\,1708008837073,1708008837073,3354,3354,4344,buq,qns-item-noham,43,213030,0.0-1.0-0.42,65ce221f8639327e2e5462ca,AWAITING REVIEW,2024-02-15T14:49:21.834000Z,2024-02-15T14:59:48.172000Z,,2024-02-15T14:59:48.671521Z,627.0,CVPIIDEI,364,27,Male,Asian,United States,United States,United States,English,No,Full-Time,Not Applicable
6418fa57a5d4085174100296,<b>I have had some false beliefs.,Highly disagree,44/94,Somewhat agree,3,1708008838064,1708008840169,\Somewhat agree\,\Somewhat agree\,\3\,1708008839772,1708008839772,1708,1708,2105,buq,qns-item-noham,44,215136,0.0-1.0-0.43,65ce221f8639327e2e5462ca,AWAITING REVIEW,2024-02-15T14:49:21.834000Z,2024-02-15T14:59:48.172000Z,,2024-02-15T14:59:48.671521Z,627.0,CVPIIDEI,364,27,Male,Asian,United States,United States,United States,English,No,Full-Time,Not Applicable
6418fa57a5d4085174100296,"<b>If one friend does something that upsets me, I sometimes start to distrust people in general.",Highly disagree,45/94,Somewhat disagree,2,1708008840170,1708008844160,\Somewhat disagree\,\Somewhat disagree\,\2\,1708008843452,1708008843452,3282,3282,3990,buq,qns-item-noham,45,219127,0.0-1.0-0.44,65ce221f8639327e2e5462ca,AWAITING REVIEW,2024-02-15T14:49:21.834000Z,2024-02-15T14:59:48.172000Z,,2024-02-15T14:59:48.671521Z,627.0,CVPIIDEI,364,27,Male,Asian,United States,United States,United States,English,No,Full-Time,Not Applicable
6418fa57a5d4085174100296,<b>The facts about most important matters are easy to find.,Highly disagree,46/94,Somewhat agree,3,1708008844161,1708008847971,\Somewhat agree\,\Somewhat agree\,\3\,1708008847195,1708008847195,3034,3034,3810,buq,qns-item-noham,46,222938,0.0-1.0-0.45,65ce221f8639327e2e5462ca,AWAITING REVIEW,2024-02-15T14:49:21.834000Z,2024-02-15T14:59:48.172000Z,,2024-02-15T14:59:48.671521Z,627.0,CVPIIDEI,364,27,Male,Asian,United States,United States,United States,English,No,Full-Time,Not Applicable
6418fa57a5d4085174100296,<b>It?s better to know what?s true than to know what?s moral.,Highly disagree,47/94,Highly agree,4,1708008847972,1708008852090,\Highly agree\,\Highly agree\,\4\,1708008850704,1708008850704,2732,2732,4118,buq,qns-item-noham,47,227057,0.0-1.0-0.46,65ce221f8639327e2e5462ca,AWAITING REVIEW,2024-02-15T14:49:21.834000Z,2024-02-15T14:59:48.172000Z,,2024-02-15T14:59:48.671521Z,627.0,CVPIIDEI,364,27,Male,Asian,United States,United States,United States,English,No,Full-Time,Not Applicable
6418fa57a5d4085174100296,<b>I used to think the world was less complicated than I do now.,Highly disagree,48/94,Highly agree,4,1708008852091,1708008855719,\Highly agree\,\Highly agree\,\4\,1708008854812,1708008854812,2721,2721,3628,buq,qns-item-noham,48,230686,0.0-1.0-0.47,65ce221f8639327e2e5462ca,AWAITING REVIEW,2024-02-15T14:49:21.834000Z,2024-02-15T14:59:48.172000Z,,2024-02-15T14:59:48.671521Z,627.0,CVPIIDEI,364,27,Male,Asian,United States,United States,United States,English,No,Full-Time,Not Applicable
6418fa57a5d4085174100296,<b>People are usually completely right or completely wrong.,Highly disagree,49/94,Somewhat disagree,2,1708008855719,1708008858547,\Somewhat disagree\,\Somewhat disagree\,\2\,1708008857984,1708008857984,2265,2265,2828,buq,qns-item-noham,49,233514,0.0-1.0-0.48,65ce221f8639327e2e5462ca,AWAITING REVIEW,2024-02-15T14:49:21.834000Z,2024-02-15T14:59:48.172000Z,,2024-02-15T14:59:48.671521Z,627.0,CVPIIDEI,364,27,Male,Asian,United States,United States,United States,English,No,Full-Time,Not Applicable
6418fa57a5d4085174100296,<b>I spend a lot of time considering alternatives to my beliefs.,Highly disagree,50/94,Somewhat agree,3,1708008858548,1708008862577,\Somewhat agree\,\Somewhat agree\,\3\,1708008862003,1708008862003,3455,3455,4029,buq,qns-item-noham,50,237544,0.0-1.0-0.49,65ce221f8639327e2e5462ca,AWAITING REVIEW,2024-02-15T14:49:21.834000Z,2024-02-15T14:59:48.172000Z,,2024-02-15T14:59:48.671521Z,627.0,CVPIIDEI,364,27,Male,Asian,United States,United States,United States,English,No,Full-Time,Not Applicable
6418fa57a5d4085174100296,"<b>Political enemies need to be defeated, not convinced.",Highly disagree,51/94,Somewhat agree,3,1708008862578,1708008865765,\Somewhat agree\,\Somewhat agree\,\3\,1708008864942,1708008864942,2364,2364,3187,buq,qns-item-noham,51,240732,0.0-1.0-0.50,65ce221f8639327e2e5462ca,AWAITING REVIEW,2024-02-15T14:49:21.834000Z,2024-02-15T14:59:48.172000Z,,2024-02-15T14:59:48.671521Z,627.0,CVPIIDEI,364,27,Male,Asian,United States,United States,United States,English,No,Full-Time,Not Applicable
6418fa57a5d4085174100296,<b>I form my political views only after meticulously gathering historical and present information about their policies.,Highly disagree,52/94,Somewhat disagree,2,1708008865766,1708008871570,\Somewhat disagree\,\Somewhat disagree\,\2\,1708008870347,1708008870347,4581,4581,5804,buq,qns-item-noham,52,246537,0.0-1.0-0.51,65ce221f8639327e2e5462ca,AWAITING REVIEW,2024-02-15T14:49:21.834000Z,2024-02-15T14:59:48.172000Z,,2024-02-15T14:59:48.671521Z,627.0,CVPIIDEI,364,27,Male,Asian,United States,United States,United States,English,No,Full-Time,Not Applicable
6418fa57a5d4085174100296,<b>It is difficult for me to remember the last time I was surprised by politics.,Highly disagree,53/94,Somewhat disagree,2,1708008871572,1708008876383,\Somewhat disagree\,\Somewhat disagree\,\2\,1708008875351,1708008875351,3779,3779,4811,buq,qns-item-noham,53,251350,0.0-1.0-0.52,65ce221f8639327e2e5462ca,AWAITING REVIEW,2024-02-15T14:49:21.834000Z,2024-02-15T14:59:48.172000Z,,2024-02-15T14:59:48.671521Z,627.0,CVPIIDEI,364,27,Male,Asian,United States,United States,United States,English,No,Full-Time,Not Applicable
6418fa57a5d4085174100296,"<b>When I find out I?m wrong, I think a lot about my related beliefs.",Highly disagree,54/94,Somewhat agree,3,1708008876384,1708008885737,\Somewhat agree\,\Somewhat agree\,\3\,1708008885228,1708008885228,8844,8844,9353,buq,qns-item-noham,54,260704,0.0-1.0-0.53,65ce221f8639327e2e5462ca,AWAITING REVIEW,2024-02-15T14:49:21.834000Z,2024-02-15T14:59:48.172000Z,,2024-02-15T14:59:48.671521Z,627.0,CVPIIDEI,364,27,Male,Asian,United States,United States,United States,English,No,Full-Time,Not Applicable
6418fa57a5d4085174100296,"<b>If the political party I support messes up, it makes me think you can?t trust anyone these days",Highly disagree,55/94,Somewhat agree,3,1708008885738,1708008889958,\Somewhat disagree\,\Somewhat agree\,\2\,1708008888248,1708008889438,2510,3700,4220,buq,qns-item-noham,55,264926,0.0-1.0-0.54,65ce221f8639327e2e5462ca,AWAITING REVIEW,2024-02-15T14:49:21.834000Z,2024-02-15T14:59:48.172000Z,,2024-02-15T14:59:48.671521Z,627.0,CVPIIDEI,364,27,Male,Asian,United States,United States,United States,English,No,Full-Time,Not Applicable
6418fa57a5d4085174100296,<b>People?s brains turn off when they talk about politics.,Highly disagree,56/94,Highly agree,4,1708008889959,1708008893453,\Highly agree\,\Highly agree\,\4\,1708008892512,1708008892512,2553,2553,3494,buq,qns-item-noham,56,268420,0.0-1.0-0.55,65ce221f8639327e2e5462ca,AWAITING REVIEW,2024-02-15T14:49:21.834000Z,2024-02-15T14:59:48.172000Z,,2024-02-15T14:59:48.671521Z,627.0,CVPIIDEI,364,27,Male,Asian,United States,United States,United States,English,No,Full-Time,Not Applicable
6418fa57a5d4085174100296,<b>People who are wrong are usually just ignoring the obvious.,Highly disagree,57/94,Somewhat agree,3,1708008893454,1708008897812,\Somewhat agree\,\Somewhat agree\,\3\,1708008897275,1708008897275,3821,3821,4358,buq,qns-item-noham,57,272779,0.0-1.0-0.56,65ce221f8639327e2e5462ca,AWAITING REVIEW,2024-02-15T14:49:21.834000Z,2024-02-15T14:59:48.172000Z,,2024-02-15T14:59:48.671521Z,627.0,CVPIIDEI,364,27,Male,Asian,United States,United States,United States,English,No,Full-Time,Not Applicable
6418fa57a5d4085174100296,"<b>When forming my views on people, I rely more on what they are like now rather than rely on my past experience with them.",Highly disagree,58/94,Somewhat agree,3,1708008897813,1708008904077,\Somewhat agree\,\Somewhat agree\,\3\,1708008903318,1708008903318,5505,5505,6264,buq,qns-item-noham,58,279044,0.0-1.0-0.57,65ce221f8639327e2e5462ca,AWAITING REVIEW,2024-02-15T14:49:21.834000Z,2024-02-15T14:59:48.172000Z,,2024-02-15T14:59:48.671521Z,627.0,CVPIIDEI,364,27,Male,Asian,United States,United States,United States,English,No,Full-Time,Not Applicable
6418fa57a5d4085174100296,"<b>When people contradict my beliefs, I usually know about their evidence already.",Highly disagree,59/94,Somewhat agree,3,1708008904078,1708008910050,\Somewhat agree\,\Somewhat agree\,\3\,1708008907589,1708008907589,3511,3511,5972,buq,qns-item-noham,59,285017,0.0-1.0-0.58,65ce221f8639327e2e5462ca,AWAITING REVIEW,2024-02-15T14:49:21.834000Z,2024-02-15T14:59:48.172000Z,,2024-02-15T14:59:48.671521Z,627.0,CVPIIDEI,364,27,Male,Asian,United States,United States,United States,English,No,Full-Time,Not Applicable
6418fa57a5d4085174100296,<b>Figuring out what?s true and what?s false mainly requires a strong moral compass.,Highly disagree,60/94,Highly disagree,1,1708008910052,1708008917071,\Somewhat disagree\,\Highly disagree\,\2\,1708008914318,1708008914736,4266,4684,7019,buq,qns-item-noham,60,292038,0.0-1.0-0.59,65ce221f8639327e2e5462ca,AWAITING REVIEW,2024-02-15T14:49:21.834000Z,2024-02-15T14:59:48.172000Z,,2024-02-15T14:59:48.671521Z,627.0,CVPIIDEI,364,27,Male,Asian,United States,United States,United States,English,No,Full-Time,Not Applicable
6418fa57a5d4085174100296,"<b>Usually I?m wrong about simple things, not complicated ones.",Highly disagree,61/94,Highly disagree,1,1708008917072,1708008924190,\Highly disagree\,\Highly disagree\,\1\,1708008921887,1708008923667,4815,6595,7118,buq,qns-item-noham,61,299157,0.0-1.0-0.60,65ce221f8639327e2e5462ca,AWAITING REVIEW,2024-02-15T14:49:21.834000Z,2024-02-15T14:59:48.172000Z,,2024-02-15T14:59:48.671521Z,627.0,CVPIIDEI,364,27,Male,Asian,United States,United States,United States,English,No,Full-Time,Not Applicable
6418fa57a5d4085174100296,<b>Getting all the information I want about important things is hard.,Highly disagree,62/94,Somewhat disagree,2,1708008924191,1708008928878,\Somewhat disagree\,\Somewhat disagree\,\2\,1708008926229,1708008928426,2038,4235,4687,buq,qns-item-noham,62,303845,0.0-1.0-0.61,65ce221f8639327e2e5462ca,AWAITING REVIEW,2024-02-15T14:49:21.834000Z,2024-02-15T14:59:48.172000Z,,2024-02-15T14:59:48.671521Z,627.0,CVPIIDEI,364,27,Male,Asian,United States,United States,United States,English,No,Full-Time,Not Applicable
6418fa57a5d4085174100296,<b>Most false beliefs spread because people try to deceive one another.,Highly disagree,63/94,Highly agree,4,1708008928879,1708008932804,\Somewhat agree\,\Highly agree\,\3\,1708008931363,1708008932247,2484,3368,3925,buq,qns-item-noham,63,307771,0.0-1.0-0.62,65ce221f8639327e2e5462ca,AWAITING REVIEW,2024-02-15T14:49:21.834000Z,2024-02-15T14:59:48.172000Z,,2024-02-15T14:59:48.671521Z,627.0,CVPIIDEI,364,27,Male,Asian,United States,United States,United States,English,No,Full-Time,Not Applicable
6418fa57a5d4085174100296,<b>I can usually find something to agree with in most people?s beliefs.,Highly disagree,64/94,Somewhat agree,3,1708008932806,1708008936335,\Somewhat agree\,\Somewhat agree\,\3\,1708008935917,1708008935917,3111,3111,3529,buq,qns-item-noham,64,311303,0.0-1.0-0.63,65ce221f8639327e2e5462ca,AWAITING REVIEW,2024-02-15T14:49:21.834000Z,2024-02-15T14:59:48.172000Z,,2024-02-15T14:59:48.671521Z,627.0,CVPIIDEI,364,27,Male,Asian,United States,United States,United States,English,No,Full-Time,Not Applicable
6418fa57a5d4085174100296,<b>I only form my views of people once I get to know them very well.,Highly disagree,65/94,Somewhat agree,3,1708008936337,1708008939445,\Somewhat agree\,\Somewhat agree\,\3\,1708008938509,1708008938509,2172,2172,3108,buq,qns-item-noham,65,314412,0.0-1.0-0.64,65ce221f8639327e2e5462ca,AWAITING REVIEW,2024-02-15T14:49:21.834000Z,2024-02-15T14:59:48.172000Z,,2024-02-15T14:59:48.671521Z,627.0,CVPIIDEI,364,27,Male,Asian,United States,United States,United States,English,No,Full-Time,Not Applicable
6418fa57a5d4085174100296,"<b>When people tell me important things about the world, I usually believe them.",Highly disagree,66/94,Somewhat disagree,2,1708008939446,1708008944609,\Somewhat agree\,\Somewhat disagree\,\3\,1708008943552,1708008944068,4106,4622,5163,buq,qns-item-noham,66,319576,0.0-1.0-0.65,65ce221f8639327e2e5462ca,AWAITING REVIEW,2024-02-15T14:49:21.834000Z,2024-02-15T14:59:48.172000Z,,2024-02-15T14:59:48.671521Z,627.0,CVPIIDEI,364,27,Male,Asian,United States,United States,United States,English,No,Full-Time,Not Applicable
6418fa57a5d4085174100296,"<b>If a friend does something that upsets me, it reminds me what an unpredictable place the world is.",Highly disagree,67/94,Somewhat disagree,2,1708008944610,1708008948758,\Somewhat disagree\,\Somewhat disagree\,\2\,1708008947818,1708008947818,3208,3208,4148,buq,qns-item-noham,67,323725,0.0-1.0-0.66,65ce221f8639327e2e5462ca,AWAITING REVIEW,2024-02-15T14:49:21.834000Z,2024-02-15T14:59:48.172000Z,,2024-02-15T14:59:48.671521Z,627.0,CVPIIDEI,364,27,Male,Asian,United States,United States,United States,English,No,Full-Time,Not Applicable
6418fa57a5d4085174100296,<b>People tend to believe whatever is good for their friends.,Highly disagree,68/94,Highly agree,4,1708008948759,1708008952264,\Highly agree\,\Highly agree\,\4\,1708008951196,1708008951196,2437,2437,3505,buq,qns-item-noham,68,327231,0.0-1.0-0.67,65ce221f8639327e2e5462ca,AWAITING REVIEW,2024-02-15T14:49:21.834000Z,2024-02-15T14:59:48.172000Z,,2024-02-15T14:59:48.671521Z,627.0,CVPIIDEI,364,27,Male,Asian,United States,United States,United States,English,No,Full-Time,Not Applicable
6418fa57a5d4085174100296,<b>I used to be more certain my beliefs were true.,Highly disagree,69/94,Somewhat agree,3,1708008952265,1708008957948,\Somewhat agree\,\Somewhat agree\,\3\,1708008957236,1708008957236,4971,4971,5683,buq,qns-item-noham,69,332915,0.0-1.0-0.68,65ce221f8639327e2e5462ca,AWAITING REVIEW,2024-02-15T14:49:21.834000Z,2024-02-15T14:59:48.172000Z,,2024-02-15T14:59:48.671521Z,627.0,CVPIIDEI,364,27,Male,Asian,United States,United States,United States,English,No,Full-Time,Not Applicable
6418fa57a5d4085174100296,<b>It?s often pretty easy to figure out whether something is true based on who said it.,Highly disagree,70/94,Somewhat agree,3,1708008957949,1708008971133,\Somewhat agree\,\Somewhat agree\,\3\,1708008970153,1708008970153,12204,12204,13184,buq,qns-item-noham,70,346100,0.0-1.0-0.69,65ce221f8639327e2e5462ca,AWAITING REVIEW,2024-02-15T14:49:21.834000Z,2024-02-15T14:59:48.172000Z,,2024-02-15T14:59:48.671521Z,627.0,CVPIIDEI,364,27,Male,Asian,United States,United States,United States,English,No,Full-Time,Not Applicable
6418fa57a5d4085174100296,<b>I transform into a hummingbird every day.,Highly disagree,71/94,Highly disagree,1,1708008971134,1708008973586,\Highly disagree\,\Highly disagree\,\1\,1708008972740,1708008972740,1606,1606,2452,buq,qns-item-noham,71,348553,0.0-1.0-0.70,65ce221f8639327e2e5462ca,AWAITING REVIEW,2024-02-15T14:49:21.834000Z,2024-02-15T14:59:48.172000Z,,2024-02-15T14:59:48.671521Z,627.0,CVPIIDEI,364,27,Male,Asian,United States,United States,United States,English,No,Full-Time,Not Applicable
6418fa57a5d4085174100296,<b>I think a lot about arguments against my views.,Highly disagree,72/94,Somewhat agree,3,1708008973587,1708008978643,\Somewhat agree\,\Somewhat agree\,\3\,1708008978035,1708008978035,4448,4448,5056,buq,qns-item-noham,72,353610,0.0-1.0-0.71,65ce221f8639327e2e5462ca,AWAITING REVIEW,2024-02-15T14:49:21.834000Z,2024-02-15T14:59:48.172000Z,,2024-02-15T14:59:48.671521Z,627.0,CVPIIDEI,364,27,Male,Asian,United States,United States,United States,English,No,Full-Time,Not Applicable
6418fa57a5d4085174100296,<b>Personal experience is usually more important than facts and figures.,Highly disagree,73/94,Somewhat agree,3,1708008978644,1708008984393,\Somewhat disagree\,\Somewhat agree\,\2\,1708008982709,1708008983713,4065,5069,5749,buq,qns-item-noham,73,359360,0.0-1.0-0.72,65ce221f8639327e2e5462ca,AWAITING REVIEW,2024-02-15T14:49:21.834000Z,2024-02-15T14:59:48.172000Z,,2024-02-15T14:59:48.671521Z,627.0,CVPIIDEI,364,27,Male,Asian,United States,United States,United States,English,No,Full-Time,Not Applicable
6418fa57a5d4085174100296,<b>I?ve been tricked before about important matters.,Highly disagree,74/94,Somewhat agree,3,1708008984394,1708008987055,\Somewhat agree\,\Somewhat agree\,\3\,1708008986472,1708008986472,2078,2078,2661,buq,qns-item-noham,74,362022,0.0-1.0-0.73,65ce221f8639327e2e5462ca,AWAITING REVIEW,2024-02-15T14:49:21.834000Z,2024-02-15T14:59:48.172000Z,,2024-02-15T14:59:48.671521Z,627.0,CVPIIDEI,364,27,Male,Asian,United States,United States,United States,English,No,Full-Time,Not Applicable
6418fa57a5d4085174100296,<b>I would need to be totally wowed if I were to change my opinion of a restaurant I don?t like.,Highly disagree,75/94,Highly agree,4,1708008987056,1708008991327,\Highly agree\,\Highly agree\,\4\,1708008990728,1708008990728,3672,3672,4271,buq,qns-item-noham,75,366294,0.0-1.0-0.74,65ce221f8639327e2e5462ca,AWAITING REVIEW,2024-02-15T14:49:21.834000Z,2024-02-15T14:59:48.172000Z,,2024-02-15T14:59:48.671521Z,627.0,CVPIIDEI,364,27,Male,Asian,United States,United States,United States,English,No,Full-Time,Not Applicable
6418fa57a5d4085174100296,<b>I care a lot about politics.,Highly disagree,76/94,Highly disagree,1,1708008991328,1708008993533,\Highly disagree\,\Highly disagree\,\1\,1708008993032,1708008993032,1704,1704,2205,buq,qns-item-noham,76,368500,0.0-1.0-0.75,65ce221f8639327e2e5462ca,AWAITING REVIEW,2024-02-15T14:49:21.834000Z,2024-02-15T14:59:48.172000Z,,2024-02-15T14:59:48.671521Z,627.0,CVPIIDEI,364,27,Male,Asian,United States,United States,United States,English,No,Full-Time,Not Applicable
6418fa57a5d4085174100296,<b>There are some topics I?ve been really wrong about.,Highly disagree,77/94,Somewhat disagree,2,1708008993534,1708008997885,\Somewhat disagree\,\Somewhat disagree\,\2\,1708008996096,1708008997354,2562,3820,4351,buq,qns-item-noham,77,372852,0.0-1.0-0.76,65ce221f8639327e2e5462ca,AWAITING REVIEW,2024-02-15T14:49:21.834000Z,2024-02-15T14:59:48.172000Z,,2024-02-15T14:59:48.671521Z,627.0,CVPIIDEI,364,27,Male,Asian,United States,United States,United States,English,No,Full-Time,Not Applicable
6418fa57a5d4085174100296,<b>Most beliefs can be supported with at least some evidence.,Highly disagree,78/94,Somewhat agree,3,1708008997886,1708009000507,\Somewhat agree\,\Somewhat agree\,\3\,1708009000089,1708009000089,2203,2203,2621,buq,qns-item-noham,78,375474,0.0-1.0-0.77,65ce221f8639327e2e5462ca,AWAITING REVIEW,2024-02-15T14:49:21.834000Z,2024-02-15T14:59:48.172000Z,,2024-02-15T14:59:48.671521Z,627.0,CVPIIDEI,364,27,Male,Asian,United States,United States,United States,English,No,Full-Time,Not Applicable
6418fa57a5d4085174100296,<b>Other people make life out to be more complicated than it really is.,Highly disagree,79/94,Highly agree,4,1708009000508,1708009004468,\Highly agree\,\Highly agree\,\4\,1708009003363,1708009003363,2855,2855,3960,buq,qns-item-noham,79,379435,0.0-1.0-0.78,65ce221f8639327e2e5462ca,AWAITING REVIEW,2024-02-15T14:49:21.834000Z,2024-02-15T14:59:48.172000Z,,2024-02-15T14:59:48.671521Z,627.0,CVPIIDEI,364,27,Male,Asian,United States,United States,United States,English,No,Full-Time,Not Applicable
6418fa57a5d4085174100296,"<b>Policy details don?t matter much, just the big picture.",Highly disagree,80/94,Somewhat agree,3,1708009004469,1708009008382,\Somewhat agree\,\Somewhat agree\,\3\,1708009007845,1708009007845,3376,3376,3913,buq,qns-item-noham,80,383349,0.0-1.0-0.79,65ce221f8639327e2e5462ca,AWAITING REVIEW,2024-02-15T14:49:21.834000Z,2024-02-15T14:59:48.172000Z,,2024-02-15T14:59:48.671521Z,627.0,CVPIIDEI,364,27,Male,Asian,United States,United States,United States,English,No,Full-Time,Not Applicable
6418fa57a5d4085174100296,<b>I know my friends so well they can hardly ever surprise me.,Highly disagree,81/94,Somewhat disagree,2,1708009008384,1708009011837,\Somewhat disagree\,\Somewhat disagree\,\2\,1708009011383,1708009011383,2999,2999,3453,buq,qns-item-noham,81,386804,0.0-1.0-0.80,65ce221f8639327e2e5462ca,AWAITING REVIEW,2024-02-15T14:49:21.834000Z,2024-02-15T14:59:48.172000Z,,2024-02-15T14:59:48.671521Z,627.0,CVPIIDEI,364,27,Male,Asian,United States,United States,United States,English,No,Full-Time,Not Applicable
6418fa57a5d4085174100296,<b>I do not often change my views on people.,Highly disagree,82/94,Somewhat agree,3,1708009011838,1708009014159,\Somewhat agree\,\Somewhat agree\,\3\,1708009013786,1708009013786,1948,1948,2321,buq,qns-item-noham,82,389126,0.0-1.0-0.81,65ce221f8639327e2e5462ca,AWAITING REVIEW,2024-02-15T14:49:21.834000Z,2024-02-15T14:59:48.172000Z,,2024-02-15T14:59:48.671521Z,627.0,CVPIIDEI,364,27,Male,Asian,United States,United States,United States,English,No,Full-Time,Not Applicable
6418fa57a5d4085174100296,<b>I?m more certain about my beliefs than I used to be.,Highly disagree,83/94,Somewhat agree,3,1708009014160,1708009016689,\Somewhat agree\,\Somewhat agree\,\3\,1708009016098,1708009016098,1938,1938,2529,buq,qns-item-noham,83,391656,0.0-1.0-0.82,65ce221f8639327e2e5462ca,AWAITING REVIEW,2024-02-15T14:49:21.834000Z,2024-02-15T14:59:48.172000Z,,2024-02-15T14:59:48.671521Z,627.0,CVPIIDEI,364,27,Male,Asian,United States,United States,United States,English,No,Full-Time,Not Applicable
6418fa57a5d4085174100296,<b>People often tell falsehoods unintentionally.,Highly disagree,84/94,Somewhat agree,3,1708009016690,1708009019285,\Somewhat agree\,\Somewhat agree\,\3\,1708009018829,1708009018829,2139,2139,2595,buq,qns-item-noham,84,394252,0.0-1.0-0.83,65ce221f8639327e2e5462ca,AWAITING REVIEW,2024-02-15T14:49:21.834000Z,2024-02-15T14:59:48.172000Z,,2024-02-15T14:59:48.671521Z,627.0,CVPIIDEI,364,27,Male,Asian,United States,United States,United States,English,No,Full-Time,Not Applicable
6418fa57a5d4085174100296,<b>Most people don?t know much about most things.,Highly disagree,85/94,Somewhat agree,3,1708009019286,1708009026363,\Somewhat agree\,\Somewhat agree\,\3\,1708009022269,1708009022269,2983,2983,7077,buq,qns-item-noham,85,401330,0.0-1.0-0.84,65ce221f8639327e2e5462ca,AWAITING REVIEW,2024-02-15T14:49:21.834000Z,2024-02-15T14:59:48.172000Z,,2024-02-15T14:59:48.671521Z,627.0,CVPIIDEI,364,27,Male,Asian,United States,United States,United States,English,No,Full-Time,Not Applicable
6418fa57a5d4085174100296,"<b>If I find out something new about someone, I easily change my views about them.",Highly disagree,86/94,Somewhat agree,3,1708009026364,1708009032322,\Somewhat agree\,\Somewhat agree\,\3\,1708009031295,1708009031295,4931,4931,5958,buq,qns-item-noham,86,407289,0.0-1.0-0.85,65ce221f8639327e2e5462ca,AWAITING REVIEW,2024-02-15T14:49:21.834000Z,2024-02-15T14:59:48.172000Z,,2024-02-15T14:59:48.671521Z,627.0,CVPIIDEI,364,27,Male,Asian,United States,United States,United States,English,No,Full-Time,Not Applicable
6418fa57a5d4085174100296,<b>Having true beliefs is difficult.,Highly disagree,87/94,Somewhat disagree,2,1708009032323,1708009036497,\Somewhat agree\,\Somewhat disagree\,\3\,1708009034109,1708009035940,1786,3617,4174,buq,qns-item-noham,87,411464,0.0-1.0-0.86,65ce221f8639327e2e5462ca,AWAITING REVIEW,2024-02-15T14:49:21.834000Z,2024-02-15T14:59:48.172000Z,,2024-02-15T14:59:48.671521Z,627.0,CVPIIDEI,364,27,Male,Asian,United States,United States,United States,English,No,Full-Time,Not Applicable
6418fa57a5d4085174100296,<b>I don?t try new foods since I know I won?t like them.,Highly disagree,88/94,Somewhat disagree,2,1708009036498,1708009039065,\Somewhat disagree\,\Somewhat disagree\,\2\,1708009038459,1708009038459,1961,1961,2567,buq,qns-item-noham,88,414032,0.0-1.0-0.87,65ce221f8639327e2e5462ca,AWAITING REVIEW,2024-02-15T14:49:21.834000Z,2024-02-15T14:59:48.172000Z,,2024-02-15T14:59:48.671521Z,627.0,CVPIIDEI,364,27,Male,Asian,United States,United States,United States,English,No,Full-Time,Not Applicable
6418fa57a5d4085174100296,<b>Other people trick each other a lot.,Highly disagree,89/94,Somewhat agree,3,1708009039067,1708009041412,\Somewhat agree\,\Somewhat agree\,\3\,1708009040834,1708009040834,1767,1767,2345,buq,qns-item-noham,89,416379,0.0-1.0-0.88,65ce221f8639327e2e5462ca,AWAITING REVIEW,2024-02-15T14:49:21.834000Z,2024-02-15T14:59:48.172000Z,,2024-02-15T14:59:48.671521Z,627.0,CVPIIDEI,364,27,Male,Asian,United States,United States,United States,English,No,Full-Time,Not Applicable
6418fa57a5d4085174100296,<b>I would need to learn a lot about a person for my opinion of them to be swayed.,Highly disagree,90/94,Somewhat agree,3,1708009041413,1708009045209,\Somewhat agree\,\Somewhat agree\,\3\,1708009044746,1708009044746,3333,3333,3796,buq,qns-item-noham,90,420176,0.0-1.0-0.89,65ce221f8639327e2e5462ca,AWAITING REVIEW,2024-02-15T14:49:21.834000Z,2024-02-15T14:59:48.172000Z,,2024-02-15T14:59:48.671521Z,627.0,CVPIIDEI,364,27,Male,Asian,United States,United States,United States,English,No,Full-Time,Not Applicable
6418fa57a5d4085174100296,<b>People can?t usually trick me when it comes to topics I care about.,Highly disagree,91/94,Highly agree,4,1708009045210,1708009051072,\Highly disagree\,\Highly agree\,\1\,1708009048957,1708009050353,3747,5143,5862,buq,qns-item-noham,91,426039,0.0-1.0-0.90,65ce221f8639327e2e5462ca,AWAITING REVIEW,2024-02-15T14:49:21.834000Z,2024-02-15T14:59:48.172000Z,,2024-02-15T14:59:48.671521Z,627.0,CVPIIDEI,364,27,Male,Asian,United States,United States,United States,English,No,Full-Time,Not Applicable
6418fa57a5d4085174100296,<b>I do not often change my views on food.,Highly disagree,92/94,Somewhat agree,3,1708009051074,1708009054766,\Somewhat agree\,\Somewhat agree\,\3\,1708009054371,1708009054371,3297,3297,3692,buq,qns-item-noham,92,429733,0.0-1.0-0.91,65ce221f8639327e2e5462ca,AWAITING REVIEW,2024-02-15T14:49:21.834000Z,2024-02-15T14:59:48.172000Z,,2024-02-15T14:59:48.671521Z,627.0,CVPIIDEI,364,27,Male,Asian,United States,United States,United States,English,No,Full-Time,Not Applicable
6418fa57a5d4085174100296,<b>Specific policies are often very important to me.,Highly disagree,93/94,Somewhat agree,3,1708009054767,1708009058622,\Somewhat agree\,\Somewhat agree\,\3\,1708009057813,1708009057813,3046,3046,3855,buq,qns-item-noham,93,433589,0.0-1.0-0.92,65ce221f8639327e2e5462ca,AWAITING REVIEW,2024-02-15T14:49:21.834000Z,2024-02-15T14:59:48.172000Z,,2024-02-15T14:59:48.671521Z,627.0,CVPIIDEI,364,27,Male,Asian,United States,United States,United States,English,No,Full-Time,Not Applicable
6418fa57a5d4085174100296,<b>Most people are woefully under-informed.,Highly disagree,94/94,Highly agree,4,1708009058623,1708009061705,\Highly agree\,\Highly agree\,\4\,1708009061225,1708009061225,2602,2602,3082,buq,qns-item-noham,94,436672,0.0-1.0-0.93,65ce221f8639327e2e5462ca,AWAITING REVIEW,2024-02-15T14:49:21.834000Z,2024-02-15T14:59:48.172000Z,,2024-02-15T14:59:48.671521Z,627.0,CVPIIDEI,364,27,Male,Asian,United States,United States,United States,English,No,Full-Time,Not Applicable
6418fa57a5d4085174100296,,,,,,,,,,,,,,,,,,,,,65ce221f8639327e2e5462ca,AWAITING REVIEW,2024-02-15T14:49:21.834000Z,2024-02-15T14:59:48.172000Z,,2024-02-15T14:59:48.671521Z,627.0,CVPIIDEI,364,27,Male,Asian,United States,United States,United States,English,No,Full-Time,Not Applicable
