PROLIFIC_PID,Question,qns_options,quest_num,answer,answer_num,question_load_timestamp,next_btn_timestamp,text_selected,final_text_selected,option_num_selected,preview_timestamps,final_text_selected_time_stamp,rt_first_option_click,rt_final_option_click,rt_submit_click,questionnaire,trial_type,trial_index,time_elapsed,internal_node_id,Demographic_Submission id,Demographic_Status,Demographic_Started at,Demographic_Completed at,Demographic_Reviewed at,Demographic_Archived at,Demographic_Time taken,Demographic_Completion code,Demographic_Total approvals,Demographic_Age,Demographic_Sex,Demographic_Ethnicity simplified,Demographic_Country of birth,Demographic_Country of residence,Demographic_Nationality,Demographic_Language,Demographic_Student status,Demographic_Employment status,Demographic_Custom study tncs accepted at
53c04378fdf99b360e022d92,<b>Knowing what?s true and knowing what to do about it are usually basically the same.,Highly disagree,1/94,Highly disagree,1,1708011934678,1708011941648,\Highly disagree\,\Highly disagree\,\1\,1708011940830,1708011940830,6152,6152,6970,buq,qns-item-noham,1,14419,0.0-1.0-0.0,65ce31853c37d8fca864ccb9,AWAITING REVIEW,2024-02-15T15:45:13.255000Z,2024-02-15T15:55:14.743000Z,,2024-02-15T15:55:15.651161Z,602.0,CVPIIDEI,2843,27,Female,White,United States,United States,United States,English,No,Full-Time,Not Applicable
53c04378fdf99b360e022d92,<b>Most people just believe whatever is convenient for them.,Highly disagree,2/94,Highly agree,4,1708011941653,1708011945082,\Highly agree\,\Highly agree\,\4\,1708011944372,1708011944372,2719,2719,3429,buq,qns-item-noham,2,17853,0.0-1.0-0.1,65ce31853c37d8fca864ccb9,AWAITING REVIEW,2024-02-15T15:45:13.255000Z,2024-02-15T15:55:14.743000Z,,2024-02-15T15:55:15.651161Z,602.0,CVPIIDEI,2843,27,Female,White,United States,United States,United States,English,No,Full-Time,Not Applicable
53c04378fdf99b360e022d92,<b>Having some big beliefs helps me sort out minor ones.,Highly disagree,3/94,Somewhat agree,3,1708011945084,1708011948588,\Somewhat agree\,\Somewhat agree\,\3\,1708011948052,1708011948052,2968,2968,3504,buq,qns-item-noham,3,21359,0.0-1.0-0.2,65ce31853c37d8fca864ccb9,AWAITING REVIEW,2024-02-15T15:45:13.255000Z,2024-02-15T15:55:14.743000Z,,2024-02-15T15:55:15.651161Z,602.0,CVPIIDEI,2843,27,Female,White,United States,United States,United States,English,No,Full-Time,Not Applicable
53c04378fdf99b360e022d92,<b>Political questions are usually pretty complicated.,Highly disagree,4/94,Highly agree,4,1708011948590,1708011950976,\Highly agree\,\Highly agree\,\4\,1708011950537,1708011950537,1947,1947,2386,buq,qns-item-noham,4,23747,0.0-1.0-0.3,65ce31853c37d8fca864ccb9,AWAITING REVIEW,2024-02-15T15:45:13.255000Z,2024-02-15T15:55:14.743000Z,,2024-02-15T15:55:15.651161Z,602.0,CVPIIDEI,2843,27,Female,White,United States,United States,United States,English,No,Full-Time,Not Applicable
53c04378fdf99b360e022d92,<b>Figuring out what?s important in life requires learning a lot of facts.,Highly disagree,5/94,Highly agree,4,1708011950978,1708011955189,\Highly agree\,\Highly agree\,\4\,1708011954736,1708011954736,3758,3758,4211,buq,qns-item-noham,5,27960,0.0-1.0-0.4,65ce31853c37d8fca864ccb9,AWAITING REVIEW,2024-02-15T15:45:13.255000Z,2024-02-15T15:55:14.743000Z,,2024-02-15T15:55:15.651161Z,602.0,CVPIIDEI,2843,27,Female,White,United States,United States,United States,English,No,Full-Time,Not Applicable
53c04378fdf99b360e022d92,<b>It is difficult for me to remember the last time I was surprised by politics.,Highly disagree,6/94,Highly disagree,1,1708011955191,1708011961291,\Highly disagree\,\Highly disagree\,\1\,1708011959912,1708011959912,4721,4721,6100,buq,qns-item-noham,6,34062,0.0-1.0-0.5,65ce31853c37d8fca864ccb9,AWAITING REVIEW,2024-02-15T15:45:13.255000Z,2024-02-15T15:55:14.743000Z,,2024-02-15T15:55:15.651161Z,602.0,CVPIIDEI,2843,27,Female,White,United States,United States,United States,English,No,Full-Time,Not Applicable
53c04378fdf99b360e022d92,<b>People?s false beliefs are understandable.,Highly disagree,7/94,Somewhat disagree,2,1708011961293,1708011964297,\Somewhat disagree\,\Somewhat disagree\,\2\,1708011963674,1708011963674,2381,2381,3004,buq,qns-item-noham,7,37068,0.0-1.0-0.6,65ce31853c37d8fca864ccb9,AWAITING REVIEW,2024-02-15T15:45:13.255000Z,2024-02-15T15:55:14.743000Z,,2024-02-15T15:55:15.651161Z,602.0,CVPIIDEI,2843,27,Female,White,United States,United States,United States,English,No,Full-Time,Not Applicable
53c04378fdf99b360e022d92,<b>I spend a lot of time trying to be informed about politics.,Highly disagree,8/94,Highly agree,4,1708011964299,1708011970461,\Highly agree\,\Highly agree\,\4\,1708011969224,1708011969224,4925,4925,6162,buq,qns-item-noham,8,43232,0.0-1.0-0.7,65ce31853c37d8fca864ccb9,AWAITING REVIEW,2024-02-15T15:45:13.255000Z,2024-02-15T15:55:14.743000Z,,2024-02-15T15:55:15.651161Z,602.0,CVPIIDEI,2843,27,Female,White,United States,United States,United States,English,No,Full-Time,Not Applicable
53c04378fdf99b360e022d92,<b>I think a lot about whether my beliefs are right.,Highly disagree,9/94,Highly agree,4,1708011970463,1708011973631,\Highly agree\,\Highly agree\,\4\,1708011973048,1708011973048,2585,2585,3168,buq,qns-item-noham,9,46402,0.0-1.0-0.8,65ce31853c37d8fca864ccb9,AWAITING REVIEW,2024-02-15T15:45:13.255000Z,2024-02-15T15:55:14.743000Z,,2024-02-15T15:55:15.651161Z,602.0,CVPIIDEI,2843,27,Female,White,United States,United States,United States,English,No,Full-Time,Not Applicable
53c04378fdf99b360e022d92,<b>Statistics can be pretty misleading sometimes.,Highly disagree,10/94,Highly disagree,1,1708011973633,1708011976633,\Highly disagree\,\Highly disagree\,\1\,1708011976126,1708011976126,2493,2493,3000,buq,qns-item-noham,10,49404,0.0-1.0-0.9,65ce31853c37d8fca864ccb9,AWAITING REVIEW,2024-02-15T15:45:13.255000Z,2024-02-15T15:55:14.743000Z,,2024-02-15T15:55:15.651161Z,602.0,CVPIIDEI,2843,27,Female,White,United States,United States,United States,English,No,Full-Time,Not Applicable
53c04378fdf99b360e022d92,<b>I have lots of beliefs that I?m only sort of sure about.,Highly disagree,11/94,Somewhat disagree,2,1708011976634,1708011979508,\Somewhat disagree\,\Somewhat disagree\,\2\,1708011978969,1708011978969,2335,2335,2874,buq,qns-item-noham,11,52279,0.0-1.0-0.10,65ce31853c37d8fca864ccb9,AWAITING REVIEW,2024-02-15T15:45:13.255000Z,2024-02-15T15:55:14.743000Z,,2024-02-15T15:55:15.651161Z,602.0,CVPIIDEI,2843,27,Female,White,United States,United States,United States,English,No,Full-Time,Not Applicable
53c04378fdf99b360e022d92,"<b>If I go to my favorite restaurant and the food is surprisingly bad, it reminds me there are many disappointments in life.",Highly disagree,12/94,Somewhat agree,3,1708011979512,1708011989475,\Somewhat agree\,\Somewhat agree\,\3\,1708011988902,1708011988902,9390,9390,9963,buq,qns-item-noham,12,62246,0.0-1.0-0.11,65ce31853c37d8fca864ccb9,AWAITING REVIEW,2024-02-15T15:45:13.255000Z,2024-02-15T15:55:14.743000Z,,2024-02-15T15:55:15.651161Z,602.0,CVPIIDEI,2843,27,Female,White,United States,United States,United States,English,No,Full-Time,Not Applicable
53c04378fdf99b360e022d92,"<b>If you are paying attention, please select ?Somewhat agree?",Highly disagree,13/94,Somewhat agree,3,1708011989476,1708011991907,\Somewhat agree\,\Somewhat agree\,\3\,1708011991207,1708011991207,1731,1731,2431,buq,qns-item-noham,13,64678,0.0-1.0-0.12,65ce31853c37d8fca864ccb9,AWAITING REVIEW,2024-02-15T15:45:13.255000Z,2024-02-15T15:55:14.743000Z,,2024-02-15T15:55:15.651161Z,602.0,CVPIIDEI,2843,27,Female,White,United States,United States,United States,English,No,Full-Time,Not Applicable
53c04378fdf99b360e022d92,"<b>When I talk to others, I often worry I?ll convince them of something I didn?t mean to.",Highly disagree,14/94,Highly disagree,1,1708011991909,1708011995891,\Highly disagree\,\Highly disagree\,\1\,1708011995468,1708011995468,3559,3559,3982,buq,qns-item-noham,14,68662,0.0-1.0-0.13,65ce31853c37d8fca864ccb9,AWAITING REVIEW,2024-02-15T15:45:13.255000Z,2024-02-15T15:55:14.743000Z,,2024-02-15T15:55:15.651161Z,602.0,CVPIIDEI,2843,27,Female,White,United States,United States,United States,English,No,Full-Time,Not Applicable
53c04378fdf99b360e022d92,<b>I would need to learn something utterly shocking about my party in order to change my political views.,Highly disagree,15/94,Somewhat agree,3,1708011995893,1708012001374,\Somewhat agree\,\Somewhat agree\,\3\,1708012000718,1708012000718,4825,4825,5481,buq,qns-item-noham,15,74145,0.0-1.0-0.14,65ce31853c37d8fca864ccb9,AWAITING REVIEW,2024-02-15T15:45:13.255000Z,2024-02-15T15:55:14.743000Z,,2024-02-15T15:55:15.651161Z,602.0,CVPIIDEI,2843,27,Female,White,United States,United States,United States,English,No,Full-Time,Not Applicable
53c04378fdf99b360e022d92,"<b>When I have new experiences, I tend to think of them as unique.",Highly disagree,16/94,Somewhat agree,3,1708012001376,1708012007291,\Somewhat agree\,\Somewhat agree\,\3\,1708012006687,1708012006687,5311,5311,5915,buq,qns-item-noham,16,80062,0.0-1.0-0.15,65ce31853c37d8fca864ccb9,AWAITING REVIEW,2024-02-15T15:45:13.255000Z,2024-02-15T15:55:14.743000Z,,2024-02-15T15:55:15.651161Z,602.0,CVPIIDEI,2843,27,Female,White,United States,United States,United States,English,No,Full-Time,Not Applicable
53c04378fdf99b360e022d92,<b>I change my mind about specific policies pretty frequently.,Highly disagree,17/94,Somewhat agree,3,1708012007292,1708012019054,\Somewhat agree\,\Somewhat agree\,\3\,1708012015673,1708012015673,8381,8381,11762,buq,qns-item-noham,17,91825,0.0-1.0-0.16,65ce31853c37d8fca864ccb9,AWAITING REVIEW,2024-02-15T15:45:13.255000Z,2024-02-15T15:55:14.743000Z,,2024-02-15T15:55:15.651161Z,602.0,CVPIIDEI,2843,27,Female,White,United States,United States,United States,English,No,Full-Time,Not Applicable
53c04378fdf99b360e022d92,"<b>If a politician in my political party supports something I disagree with, I give them the benefit of the doubt, as such issues often involve hidden complexities that aren?t obvious.   ",Highly disagree,18/94,Somewhat agree,3,1708012019056,1708012025862,\Somewhat agree\,\Somewhat agree\,\3\,1708012025275,1708012025275,6219,6219,6806,buq,qns-item-noham,18,98633,0.0-1.0-0.17,65ce31853c37d8fca864ccb9,AWAITING REVIEW,2024-02-15T15:45:13.255000Z,2024-02-15T15:55:14.743000Z,,2024-02-15T15:55:15.651161Z,602.0,CVPIIDEI,2843,27,Female,White,United States,United States,United States,English,No,Full-Time,Not Applicable
53c04378fdf99b360e022d92,<b>People?s bad politics are usually motivated by hatefulness.,Highly disagree,19/94,Somewhat agree,3,1708012025863,1708012031032,\Somewhat agree\,\Somewhat agree\,\3\,1708012030833,1708012030833,4970,4970,5169,buq,qns-item-noham,19,103803,0.0-1.0-0.18,65ce31853c37d8fca864ccb9,AWAITING REVIEW,2024-02-15T15:45:13.255000Z,2024-02-15T15:55:14.743000Z,,2024-02-15T15:55:15.651161Z,602.0,CVPIIDEI,2843,27,Female,White,United States,United States,United States,English,No,Full-Time,Not Applicable
53c04378fdf99b360e022d92,<b>I think a lot about how to reconcile my beliefs with one another.,Highly disagree,20/94,Somewhat agree,3,1708012031037,1708012033327,\Somewhat agree\,\Somewhat agree\,\3\,1708012032888,1708012032888,1851,1851,2290,buq,qns-item-noham,20,106098,0.0-1.0-0.19,65ce31853c37d8fca864ccb9,AWAITING REVIEW,2024-02-15T15:45:13.255000Z,2024-02-15T15:55:14.743000Z,,2024-02-15T15:55:15.651161Z,602.0,CVPIIDEI,2843,27,Female,White,United States,United States,United States,English,No,Full-Time,Not Applicable
53c04378fdf99b360e022d92,<b>I might have false beliefs about important topics.,Highly disagree,21/94,Somewhat agree,3,1708012033330,1708012035460,\Somewhat agree\,\Somewhat agree\,\3\,1708012035032,1708012035032,1702,1702,2130,buq,qns-item-noham,21,108231,0.0-1.0-0.20,65ce31853c37d8fca864ccb9,AWAITING REVIEW,2024-02-15T15:45:13.255000Z,2024-02-15T15:55:14.743000Z,,2024-02-15T15:55:15.651161Z,602.0,CVPIIDEI,2843,27,Female,White,United States,United States,United States,English,No,Full-Time,Not Applicable
53c04378fdf99b360e022d92,"<b>If a good friend of mine does something unexpected that upsets me, I feel like I don?t know them anymore.",Highly disagree,22/94,Somewhat disagree,2,1708012035462,1708012039075,\Somewhat disagree\,\Somewhat disagree\,\2\,1708012038609,1708012038609,3147,3147,3613,buq,qns-item-noham,22,111846,0.0-1.0-0.21,65ce31853c37d8fca864ccb9,AWAITING REVIEW,2024-02-15T15:45:13.255000Z,2024-02-15T15:55:14.743000Z,,2024-02-15T15:55:15.651161Z,602.0,CVPIIDEI,2843,27,Female,White,United States,United States,United States,English,No,Full-Time,Not Applicable
53c04378fdf99b360e022d92,<b>Other people?s beliefs are often incoherent.,Highly disagree,23/94,Somewhat agree,3,1708012039077,1708012043304,\Somewhat agree\,\Somewhat agree\,\3\,1708012042954,1708012042954,3877,3877,4227,buq,qns-item-noham,23,116075,0.0-1.0-0.22,65ce31853c37d8fca864ccb9,AWAITING REVIEW,2024-02-15T15:45:13.255000Z,2024-02-15T15:55:14.743000Z,,2024-02-15T15:55:15.651161Z,602.0,CVPIIDEI,2843,27,Female,White,United States,United States,United States,English,No,Full-Time,Not Applicable
53c04378fdf99b360e022d92,"<b>Every now and then, a new experience will unsettle beliefs I?ve had for a while.",Highly disagree,24/94,Somewhat agree,3,1708012043306,1708012057625,\Somewhat agree\,\Somewhat agree\,\3\,1708012057100,1708012057100,13794,13794,14319,buq,qns-item-noham,24,130396,0.0-1.0-0.23,65ce31853c37d8fca864ccb9,AWAITING REVIEW,2024-02-15T15:45:13.255000Z,2024-02-15T15:55:14.743000Z,,2024-02-15T15:55:15.651161Z,602.0,CVPIIDEI,2843,27,Female,White,United States,United States,United States,English,No,Full-Time,Not Applicable
53c04378fdf99b360e022d92,<b>Some policies I agree with in principle are so bad I don?t support them. ,Highly disagree,25/94,Highly agree,4,1708012057627,1708012064437,\Somewhat agree\,\Highly agree\,\3\,1708012063337,1708012063814,5710,6187,6810,buq,qns-item-noham,25,137209,0.0-1.0-0.24,65ce31853c37d8fca864ccb9,AWAITING REVIEW,2024-02-15T15:45:13.255000Z,2024-02-15T15:55:14.743000Z,,2024-02-15T15:55:15.651161Z,602.0,CVPIIDEI,2843,27,Female,White,United States,United States,United States,English,No,Full-Time,Not Applicable
53c04378fdf99b360e022d92,<b>I?m pretty sure I?ve accidentally spread false information.,Highly disagree,26/94,Highly disagree,1,1708012064439,1708012071027,\Highly disagree\,\Highly disagree\,\1\,1708012070467,1708012070467,6028,6028,6588,buq,qns-item-noham,26,143798,0.0-1.0-0.25,65ce31853c37d8fca864ccb9,AWAITING REVIEW,2024-02-15T15:45:13.255000Z,2024-02-15T15:55:14.743000Z,,2024-02-15T15:55:15.651161Z,602.0,CVPIIDEI,2843,27,Female,White,United States,United States,United States,English,No,Full-Time,Not Applicable
53c04378fdf99b360e022d92,"<b>If I go to my favorite restaurant and the food is unexpectedly bad, then they have changed owners.",Highly disagree,27/94,Highly disagree,1,1708012071028,1708012079781,\Highly disagree\,\Highly disagree\,\1\,1708012079251,1708012079251,8223,8223,8753,buq,qns-item-noham,27,152552,0.0-1.0-0.26,65ce31853c37d8fca864ccb9,AWAITING REVIEW,2024-02-15T15:45:13.255000Z,2024-02-15T15:55:14.743000Z,,2024-02-15T15:55:15.651161Z,602.0,CVPIIDEI,2843,27,Female,White,United States,United States,United States,English,No,Full-Time,Not Applicable
53c04378fdf99b360e022d92,"<b>In politics, it?s important to trust your friends and family.",Highly disagree,28/94,Somewhat disagree,2,1708012079783,1708012084537,\Somewhat disagree\,\Somewhat disagree\,\2\,1708012083974,1708012083974,4191,4191,4754,buq,qns-item-noham,28,157308,0.0-1.0-0.27,65ce31853c37d8fca864ccb9,AWAITING REVIEW,2024-02-15T15:45:13.255000Z,2024-02-15T15:55:14.743000Z,,2024-02-15T15:55:15.651161Z,602.0,CVPIIDEI,2843,27,Female,White,United States,United States,United States,English,No,Full-Time,Not Applicable
53c04378fdf99b360e022d92,<b>It?s OK to have some conflicting beliefs.,Highly disagree,29/94,Somewhat agree,3,1708012084540,1708012086994,\Somewhat agree\,\Somewhat agree\,\3\,1708012086458,1708012086458,1918,1918,2454,buq,qns-item-noham,29,159765,0.0-1.0-0.28,65ce31853c37d8fca864ccb9,AWAITING REVIEW,2024-02-15T15:45:13.255000Z,2024-02-15T15:55:14.743000Z,,2024-02-15T15:55:15.651161Z,602.0,CVPIIDEI,2843,27,Female,White,United States,United States,United States,English,No,Full-Time,Not Applicable
53c04378fdf99b360e022d92,<b>Listening to people I disagree with makes my opinions better.,Highly disagree,30/94,Somewhat disagree,2,1708012086996,1708012145744,\Somewhat disagree\,\Somewhat disagree\,\2\,1708012145017,1708012145017,58021,58021,58748,buq,qns-item-noham,30,218515,0.0-1.0-0.29,65ce31853c37d8fca864ccb9,AWAITING REVIEW,2024-02-15T15:45:13.255000Z,2024-02-15T15:55:14.743000Z,,2024-02-15T15:55:15.651161Z,602.0,CVPIIDEI,2843,27,Female,White,United States,United States,United States,English,No,Full-Time,Not Applicable
53c04378fdf99b360e022d92,<b>My moral compass sometimes makes it harder to determine what?s true.,Highly disagree,31/94,Somewhat disagree,2,1708012145745,1708012148821,\Somewhat disagree\,\Somewhat disagree\,\2\,1708012148297,1708012148297,2552,2552,3076,buq,qns-item-noham,31,221592,0.0-1.0-0.30,65ce31853c37d8fca864ccb9,AWAITING REVIEW,2024-02-15T15:45:13.255000Z,2024-02-15T15:55:14.743000Z,,2024-02-15T15:55:15.651161Z,602.0,CVPIIDEI,2843,27,Female,White,United States,United States,United States,English,No,Full-Time,Not Applicable
53c04378fdf99b360e022d92,<b>Evidence pointing in the wrong direction isn?t really evidence at all.,Highly disagree,32/94,Highly disagree,1,1708012148823,1708012152266,\Highly disagree\,\Highly disagree\,\1\,1708012151843,1708012151843,3020,3020,3443,buq,qns-item-noham,32,225037,0.0-1.0-0.31,65ce31853c37d8fca864ccb9,AWAITING REVIEW,2024-02-15T15:45:13.255000Z,2024-02-15T15:55:14.743000Z,,2024-02-15T15:55:15.651161Z,602.0,CVPIIDEI,2843,27,Female,White,United States,United States,United States,English,No,Full-Time,Not Applicable
53c04378fdf99b360e022d92,"<b>If the political party I support messes up, it makes me think politics is rotten.",Highly disagree,33/94,Somewhat agree,3,1708012152268,1708012159237,\Somewhat agree\,\Somewhat agree\,\3\,1708012158712,1708012158712,6444,6444,6969,buq,qns-item-noham,33,232009,0.0-1.0-0.32,65ce31853c37d8fca864ccb9,AWAITING REVIEW,2024-02-15T15:45:13.255000Z,2024-02-15T15:55:14.743000Z,,2024-02-15T15:55:15.651161Z,602.0,CVPIIDEI,2843,27,Female,White,United States,United States,United States,English,No,Full-Time,Not Applicable
53c04378fdf99b360e022d92,<b>Lots of important topics can only really be understood by some groups of people.,Highly disagree,34/94,Somewhat disagree,2,1708012159239,1708012163436,\Somewhat disagree\,\Somewhat disagree\,\2\,1708012162929,1708012162929,3690,3690,4197,buq,qns-item-noham,34,236207,0.0-1.0-0.33,65ce31853c37d8fca864ccb9,AWAITING REVIEW,2024-02-15T15:45:13.255000Z,2024-02-15T15:55:14.743000Z,,2024-02-15T15:55:15.651161Z,602.0,CVPIIDEI,2843,27,Female,White,United States,United States,United States,English,No,Full-Time,Not Applicable
53c04378fdf99b360e022d92,<b>Having conflicting beliefs means you haven?t thought about them enough.,Highly disagree,35/94,Somewhat disagree,2,1708012163438,1708012166779,\Somewhat disagree\,\Somewhat disagree\,\2\,1708012166389,1708012166389,2951,2951,3341,buq,qns-item-noham,35,239550,0.0-1.0-0.34,65ce31853c37d8fca864ccb9,AWAITING REVIEW,2024-02-15T15:45:13.255000Z,2024-02-15T15:55:14.743000Z,,2024-02-15T15:55:15.651161Z,602.0,CVPIIDEI,2843,27,Female,White,United States,United States,United States,English,No,Full-Time,Not Applicable
53c04378fdf99b360e022d92,<b>I do not often change my political opinions.,Highly disagree,36/94,Somewhat agree,3,1708012166781,1708012181986,\Somewhat agree\,\Somewhat agree\,\3\,1708012181462,1708012181462,14681,14681,15205,buq,qns-item-noham,36,254757,0.0-1.0-0.35,65ce31853c37d8fca864ccb9,AWAITING REVIEW,2024-02-15T15:45:13.255000Z,2024-02-15T15:55:14.743000Z,,2024-02-15T15:55:15.651161Z,602.0,CVPIIDEI,2843,27,Female,White,United States,United States,United States,English,No,Full-Time,Not Applicable
53c04378fdf99b360e022d92,<b>It?s difficult to not have at least some conflicting beliefs.,Highly disagree,37/94,Somewhat disagree,2,1708012181988,1708012189453,\Somewhat disagree\,\Somewhat disagree\,\2\,1708012188174,1708012188174,6186,6186,7465,buq,qns-item-noham,37,262224,0.0-1.0-0.36,65ce31853c37d8fca864ccb9,AWAITING REVIEW,2024-02-15T15:45:13.255000Z,2024-02-15T15:55:14.743000Z,,2024-02-15T15:55:15.651161Z,602.0,CVPIIDEI,2843,27,Female,White,United States,United States,United States,English,No,Full-Time,Not Applicable
53c04378fdf99b360e022d92,<b>Wishful thinking causes a lot of problems.,Highly disagree,38/94,Somewhat disagree,2,1708012189454,1708012192389,\Somewhat disagree\,\Somewhat disagree\,\2\,1708012191925,1708012191925,2471,2471,2935,buq,qns-item-noham,38,265161,0.0-1.0-0.37,65ce31853c37d8fca864ccb9,AWAITING REVIEW,2024-02-15T15:45:13.255000Z,2024-02-15T15:55:14.743000Z,,2024-02-15T15:55:15.651161Z,602.0,CVPIIDEI,2843,27,Female,White,United States,United States,United States,English,No,Full-Time,Not Applicable
53c04378fdf99b360e022d92,<b>I judge a food item only once I try it many times.,Highly disagree,39/94,Somewhat disagree,2,1708012192391,1708012197497,\Somewhat agree\,\Somewhat disagree\,\3\,1708012195745,1708012196928,3354,4537,5106,buq,qns-item-noham,39,270268,0.0-1.0-0.38,65ce31853c37d8fca864ccb9,AWAITING REVIEW,2024-02-15T15:45:13.255000Z,2024-02-15T15:55:14.743000Z,,2024-02-15T15:55:15.651161Z,602.0,CVPIIDEI,2843,27,Female,White,United States,United States,United States,English,No,Full-Time,Not Applicable
53c04378fdf99b360e022d92,"<b>When a person holds conflicting beliefs, they should really try to figure out what?s wrong.",Highly disagree,40/94,Somewhat agree,3,1708012197498,1708012206419,\Somewhat agree\,\Somewhat agree\,\3\,1708012204978,1708012204978,7480,7480,8921,buq,qns-item-noham,40,279190,0.0-1.0-0.39,65ce31853c37d8fca864ccb9,AWAITING REVIEW,2024-02-15T15:45:13.255000Z,2024-02-15T15:55:14.743000Z,,2024-02-15T15:55:15.651161Z,602.0,CVPIIDEI,2843,27,Female,White,United States,United States,United States,English,No,Full-Time,Not Applicable
53c04378fdf99b360e022d92,<b>Knowing what?s important in life is easy.,Highly disagree,41/94,Somewhat disagree,2,1708012206421,1708012210928,\Somewhat disagree\,\Somewhat disagree\,\2\,1708012210439,1708012210439,4018,4018,4507,buq,qns-item-noham,41,283699,0.0-1.0-0.40,65ce31853c37d8fca864ccb9,AWAITING REVIEW,2024-02-15T15:45:13.255000Z,2024-02-15T15:55:14.743000Z,,2024-02-15T15:55:15.651161Z,602.0,CVPIIDEI,2843,27,Female,White,United States,United States,United States,English,No,Full-Time,Not Applicable
53c04378fdf99b360e022d92,<b>I swim across the Atlantic Ocean to get to work every day.,Highly disagree,42/94,Highly disagree,1,1708012210931,1708012213821,\Highly disagree\,\Highly disagree\,\1\,1708012213181,1708012213181,2250,2250,2890,buq,qns-item-noham,42,286592,0.0-1.0-0.41,65ce31853c37d8fca864ccb9,AWAITING REVIEW,2024-02-15T15:45:13.255000Z,2024-02-15T15:55:14.743000Z,,2024-02-15T15:55:15.651161Z,602.0,CVPIIDEI,2843,27,Female,White,United States,United States,United States,English,No,Full-Time,Not Applicable
53c04378fdf99b360e022d92,"<b>Sometimes, you just have to ignore evidence that you know is wrong.",Highly disagree,43/94,Highly disagree,1,1708012213823,1708012216428,\Highly disagree\,\Highly disagree\,\1\,1708012215981,1708012215981,2158,2158,2605,buq,qns-item-noham,43,289199,0.0-1.0-0.42,65ce31853c37d8fca864ccb9,AWAITING REVIEW,2024-02-15T15:45:13.255000Z,2024-02-15T15:55:14.743000Z,,2024-02-15T15:55:15.651161Z,602.0,CVPIIDEI,2843,27,Female,White,United States,United States,United States,English,No,Full-Time,Not Applicable
53c04378fdf99b360e022d92,<b>I have had some false beliefs.,Highly disagree,44/94,Somewhat agree,3,1708012216430,1708012220940,\Somewhat agree\,\Somewhat agree\,\3\,1708012220082,1708012220082,3652,3652,4510,buq,qns-item-noham,44,293711,0.0-1.0-0.43,65ce31853c37d8fca864ccb9,AWAITING REVIEW,2024-02-15T15:45:13.255000Z,2024-02-15T15:55:14.743000Z,,2024-02-15T15:55:15.651161Z,602.0,CVPIIDEI,2843,27,Female,White,United States,United States,United States,English,No,Full-Time,Not Applicable
53c04378fdf99b360e022d92,"<b>If one friend does something that upsets me, I sometimes start to distrust people in general.",Highly disagree,45/94,Somewhat disagree,2,1708012220942,1708012230235,\Somewhat disagree\,\Somewhat disagree\,\2\,1708012229646,1708012229646,8704,8704,9293,buq,qns-item-noham,45,303006,0.0-1.0-0.44,65ce31853c37d8fca864ccb9,AWAITING REVIEW,2024-02-15T15:45:13.255000Z,2024-02-15T15:55:14.743000Z,,2024-02-15T15:55:15.651161Z,602.0,CVPIIDEI,2843,27,Female,White,United States,United States,United States,English,No,Full-Time,Not Applicable
53c04378fdf99b360e022d92,<b>The facts about most important matters are easy to find.,Highly disagree,46/94,Somewhat agree,3,1708012230237,1708012233492,\Somewhat agree\,\Somewhat agree\,\3\,1708012233114,1708012233114,2877,2877,3255,buq,qns-item-noham,46,306263,0.0-1.0-0.45,65ce31853c37d8fca864ccb9,AWAITING REVIEW,2024-02-15T15:45:13.255000Z,2024-02-15T15:55:14.743000Z,,2024-02-15T15:55:15.651161Z,602.0,CVPIIDEI,2843,27,Female,White,United States,United States,United States,English,No,Full-Time,Not Applicable
53c04378fdf99b360e022d92,<b>It?s better to know what?s true than to know what?s moral.,Highly disagree,47/94,Somewhat agree,3,1708012233494,1708012236897,\Somewhat agree\,\Somewhat agree\,\3\,1708012236470,1708012236470,2976,2976,3403,buq,qns-item-noham,47,309668,0.0-1.0-0.46,65ce31853c37d8fca864ccb9,AWAITING REVIEW,2024-02-15T15:45:13.255000Z,2024-02-15T15:55:14.743000Z,,2024-02-15T15:55:15.651161Z,602.0,CVPIIDEI,2843,27,Female,White,United States,United States,United States,English,No,Full-Time,Not Applicable
53c04378fdf99b360e022d92,<b>I used to think the world was less complicated than I do now.,Highly disagree,48/94,Somewhat agree,3,1708012236899,1708012240078,\Somewhat agree\,\Somewhat agree\,\3\,1708012239225,1708012239225,2326,2326,3179,buq,qns-item-noham,48,312849,0.0-1.0-0.47,65ce31853c37d8fca864ccb9,AWAITING REVIEW,2024-02-15T15:45:13.255000Z,2024-02-15T15:55:14.743000Z,,2024-02-15T15:55:15.651161Z,602.0,CVPIIDEI,2843,27,Female,White,United States,United States,United States,English,No,Full-Time,Not Applicable
53c04378fdf99b360e022d92,<b>People are usually completely right or completely wrong.,Highly disagree,49/94,Highly disagree,1,1708012240079,1708012245768,\Highly disagree\,\Highly disagree\,\1\,1708012243480,1708012243480,3401,3401,5689,buq,qns-item-noham,49,318539,0.0-1.0-0.48,65ce31853c37d8fca864ccb9,AWAITING REVIEW,2024-02-15T15:45:13.255000Z,2024-02-15T15:55:14.743000Z,,2024-02-15T15:55:15.651161Z,602.0,CVPIIDEI,2843,27,Female,White,United States,United States,United States,English,No,Full-Time,Not Applicable
53c04378fdf99b360e022d92,<b>I spend a lot of time considering alternatives to my beliefs.,Highly disagree,50/94,Somewhat agree,3,1708012245770,1708012248696,\Somewhat agree\,\Somewhat agree\,\3\,1708012247814,1708012247814,2044,2044,2926,buq,qns-item-noham,50,321467,0.0-1.0-0.49,65ce31853c37d8fca864ccb9,AWAITING REVIEW,2024-02-15T15:45:13.255000Z,2024-02-15T15:55:14.743000Z,,2024-02-15T15:55:15.651161Z,602.0,CVPIIDEI,2843,27,Female,White,United States,United States,United States,English,No,Full-Time,Not Applicable
53c04378fdf99b360e022d92,"<b>Political enemies need to be defeated, not convinced.",Highly disagree,51/94,Somewhat agree,3,1708012248697,1708012252848,\Somewhat agree\,\Somewhat agree\,\3\,1708012252246,1708012252397,3549,3700,4151,buq,qns-item-noham,51,325619,0.0-1.0-0.50,65ce31853c37d8fca864ccb9,AWAITING REVIEW,2024-02-15T15:45:13.255000Z,2024-02-15T15:55:14.743000Z,,2024-02-15T15:55:15.651161Z,602.0,CVPIIDEI,2843,27,Female,White,United States,United States,United States,English,No,Full-Time,Not Applicable
53c04378fdf99b360e022d92,<b>I form my political views only after meticulously gathering historical and present information about their policies.,Highly disagree,52/94,Somewhat agree,3,1708012252850,1708012256566,\Somewhat agree\,\Somewhat agree\,\3\,1708012256012,1708012256012,3162,3162,3716,buq,qns-item-noham,52,329337,0.0-1.0-0.51,65ce31853c37d8fca864ccb9,AWAITING REVIEW,2024-02-15T15:45:13.255000Z,2024-02-15T15:55:14.743000Z,,2024-02-15T15:55:15.651161Z,602.0,CVPIIDEI,2843,27,Female,White,United States,United States,United States,English,No,Full-Time,Not Applicable
53c04378fdf99b360e022d92,<b>It is difficult for me to remember the last time I was surprised by politics.,Highly disagree,53/94,Somewhat disagree,2,1708012256567,1708012274388,\Somewhat agree\,\Somewhat disagree\,\3\,1708012269851,1708012273536,13284,16969,17821,buq,qns-item-noham,53,347159,0.0-1.0-0.52,65ce31853c37d8fca864ccb9,AWAITING REVIEW,2024-02-15T15:45:13.255000Z,2024-02-15T15:55:14.743000Z,,2024-02-15T15:55:15.651161Z,602.0,CVPIIDEI,2843,27,Female,White,United States,United States,United States,English,No,Full-Time,Not Applicable
53c04378fdf99b360e022d92,"<b>When I find out I?m wrong, I think a lot about my related beliefs.",Highly disagree,54/94,Somewhat agree,3,1708012274390,1708012291034,\Somewhat agree\,\Somewhat agree\,\3\,1708012290384,1708012290384,15994,15994,16644,buq,qns-item-noham,54,363805,0.0-1.0-0.53,65ce31853c37d8fca864ccb9,AWAITING REVIEW,2024-02-15T15:45:13.255000Z,2024-02-15T15:55:14.743000Z,,2024-02-15T15:55:15.651161Z,602.0,CVPIIDEI,2843,27,Female,White,United States,United States,United States,English,No,Full-Time,Not Applicable
53c04378fdf99b360e022d92,"<b>If the political party I support messes up, it makes me think you can?t trust anyone these days",Highly disagree,55/94,Highly agree,4,1708012291036,1708012294479,\Highly agree\,\Highly agree\,\4\,1708012293851,1708012293851,2815,2815,3443,buq,qns-item-noham,55,367250,0.0-1.0-0.54,65ce31853c37d8fca864ccb9,AWAITING REVIEW,2024-02-15T15:45:13.255000Z,2024-02-15T15:55:14.743000Z,,2024-02-15T15:55:15.651161Z,602.0,CVPIIDEI,2843,27,Female,White,United States,United States,United States,English,No,Full-Time,Not Applicable
53c04378fdf99b360e022d92,<b>People?s brains turn off when they talk about politics.,Highly disagree,56/94,Somewhat agree,3,1708012294483,1708012296979,\Somewhat agree\,\Somewhat agree\,\3\,1708012296593,1708012296593,2110,2110,2496,buq,qns-item-noham,56,369750,0.0-1.0-0.55,65ce31853c37d8fca864ccb9,AWAITING REVIEW,2024-02-15T15:45:13.255000Z,2024-02-15T15:55:14.743000Z,,2024-02-15T15:55:15.651161Z,602.0,CVPIIDEI,2843,27,Female,White,United States,United States,United States,English,No,Full-Time,Not Applicable
53c04378fdf99b360e022d92,<b>People who are wrong are usually just ignoring the obvious.,Highly disagree,57/94,Somewhat disagree,2,1708012296981,1708012299534,\Somewhat disagree\,\Somewhat disagree\,\2\,1708012299029,1708012299029,2048,2048,2553,buq,qns-item-noham,57,372305,0.0-1.0-0.56,65ce31853c37d8fca864ccb9,AWAITING REVIEW,2024-02-15T15:45:13.255000Z,2024-02-15T15:55:14.743000Z,,2024-02-15T15:55:15.651161Z,602.0,CVPIIDEI,2843,27,Female,White,United States,United States,United States,English,No,Full-Time,Not Applicable
53c04378fdf99b360e022d92,"<b>When forming my views on people, I rely more on what they are like now rather than rely on my past experience with them.",Highly disagree,58/94,Somewhat agree,3,1708012299535,1708012303797,\Somewhat agree\,\Somewhat agree\,\3\,1708012303182,1708012303182,3647,3647,4262,buq,qns-item-noham,58,376568,0.0-1.0-0.57,65ce31853c37d8fca864ccb9,AWAITING REVIEW,2024-02-15T15:45:13.255000Z,2024-02-15T15:55:14.743000Z,,2024-02-15T15:55:15.651161Z,602.0,CVPIIDEI,2843,27,Female,White,United States,United States,United States,English,No,Full-Time,Not Applicable
53c04378fdf99b360e022d92,"<b>When people contradict my beliefs, I usually know about their evidence already.",Highly disagree,59/94,Somewhat disagree,2,1708012303798,1708012307507,\Somewhat disagree\,\Somewhat disagree\,\2\,1708012307073,1708012307073,3275,3275,3709,buq,qns-item-noham,59,380278,0.0-1.0-0.58,65ce31853c37d8fca864ccb9,AWAITING REVIEW,2024-02-15T15:45:13.255000Z,2024-02-15T15:55:14.743000Z,,2024-02-15T15:55:15.651161Z,602.0,CVPIIDEI,2843,27,Female,White,United States,United States,United States,English,No,Full-Time,Not Applicable
53c04378fdf99b360e022d92,<b>Figuring out what?s true and what?s false mainly requires a strong moral compass.,Highly disagree,60/94,Somewhat agree,3,1708012307508,1708012311667,\Somewhat agree\,\Somewhat agree\,\3\,1708012310744,1708012310744,3236,3236,4159,buq,qns-item-noham,60,384438,0.0-1.0-0.59,65ce31853c37d8fca864ccb9,AWAITING REVIEW,2024-02-15T15:45:13.255000Z,2024-02-15T15:55:14.743000Z,,2024-02-15T15:55:15.651161Z,602.0,CVPIIDEI,2843,27,Female,White,United States,United States,United States,English,No,Full-Time,Not Applicable
53c04378fdf99b360e022d92,"<b>Usually I?m wrong about simple things, not complicated ones.",Highly disagree,61/94,Somewhat agree,3,1708012311668,1708012314945,\Somewhat agree\,\Somewhat agree\,\3\,1708012314307,1708012314307,2639,2639,3277,buq,qns-item-noham,61,387716,0.0-1.0-0.60,65ce31853c37d8fca864ccb9,AWAITING REVIEW,2024-02-15T15:45:13.255000Z,2024-02-15T15:55:14.743000Z,,2024-02-15T15:55:15.651161Z,602.0,CVPIIDEI,2843,27,Female,White,United States,United States,United States,English,No,Full-Time,Not Applicable
53c04378fdf99b360e022d92,<b>Getting all the information I want about important things is hard.,Highly disagree,62/94,Somewhat disagree,2,1708012314947,1708012319375,\Somewhat disagree\,\Somewhat disagree\,\2\,1708012318497,1708012318497,3550,3550,4428,buq,qns-item-noham,62,392146,0.0-1.0-0.61,65ce31853c37d8fca864ccb9,AWAITING REVIEW,2024-02-15T15:45:13.255000Z,2024-02-15T15:55:14.743000Z,,2024-02-15T15:55:15.651161Z,602.0,CVPIIDEI,2843,27,Female,White,United States,United States,United States,English,No,Full-Time,Not Applicable
53c04378fdf99b360e022d92,<b>Most false beliefs spread because people try to deceive one another.,Highly disagree,63/94,Somewhat agree,3,1708012319376,1708012323723,\Somewhat agree\,\Somewhat agree\,\3\,1708012322392,1708012322392,3016,3016,4347,buq,qns-item-noham,63,396494,0.0-1.0-0.62,65ce31853c37d8fca864ccb9,AWAITING REVIEW,2024-02-15T15:45:13.255000Z,2024-02-15T15:55:14.743000Z,,2024-02-15T15:55:15.651161Z,602.0,CVPIIDEI,2843,27,Female,White,United States,United States,United States,English,No,Full-Time,Not Applicable
53c04378fdf99b360e022d92,<b>I can usually find something to agree with in most people?s beliefs.,Highly disagree,64/94,Somewhat disagree,2,1708012323724,1708012327010,\Somewhat disagree\,\Somewhat disagree\,\2\,1708012326557,1708012326557,2833,2833,3286,buq,qns-item-noham,64,399781,0.0-1.0-0.63,65ce31853c37d8fca864ccb9,AWAITING REVIEW,2024-02-15T15:45:13.255000Z,2024-02-15T15:55:14.743000Z,,2024-02-15T15:55:15.651161Z,602.0,CVPIIDEI,2843,27,Female,White,United States,United States,United States,English,No,Full-Time,Not Applicable
53c04378fdf99b360e022d92,<b>I only form my views of people once I get to know them very well.,Highly disagree,65/94,Somewhat agree,3,1708012327012,1708012337126,\Somewhat agree\,\Somewhat agree\,\3\,1708012336444,1708012336444,9432,9432,10114,buq,qns-item-noham,65,409897,0.0-1.0-0.64,65ce31853c37d8fca864ccb9,AWAITING REVIEW,2024-02-15T15:45:13.255000Z,2024-02-15T15:55:14.743000Z,,2024-02-15T15:55:15.651161Z,602.0,CVPIIDEI,2843,27,Female,White,United States,United States,United States,English,No,Full-Time,Not Applicable
53c04378fdf99b360e022d92,"<b>When people tell me important things about the world, I usually believe them.",Highly disagree,66/94,Somewhat agree,3,1708012337128,1708012345756,\Somewhat agree\,\Somewhat agree\,\3\,1708012342279,1708012342279,5151,5151,8628,buq,qns-item-noham,66,418527,0.0-1.0-0.65,65ce31853c37d8fca864ccb9,AWAITING REVIEW,2024-02-15T15:45:13.255000Z,2024-02-15T15:55:14.743000Z,,2024-02-15T15:55:15.651161Z,602.0,CVPIIDEI,2843,27,Female,White,United States,United States,United States,English,No,Full-Time,Not Applicable
53c04378fdf99b360e022d92,"<b>If a friend does something that upsets me, it reminds me what an unpredictable place the world is.",Highly disagree,67/94,Somewhat agree,3,1708012345758,1708012359226,\Somewhat agree\,\Somewhat agree\,\3\,1708012358694,1708012358694,12936,12936,13468,buq,qns-item-noham,67,431997,0.0-1.0-0.66,65ce31853c37d8fca864ccb9,AWAITING REVIEW,2024-02-15T15:45:13.255000Z,2024-02-15T15:55:14.743000Z,,2024-02-15T15:55:15.651161Z,602.0,CVPIIDEI,2843,27,Female,White,United States,United States,United States,English,No,Full-Time,Not Applicable
53c04378fdf99b360e022d92,<b>People tend to believe whatever is good for their friends.,Highly disagree,68/94,Somewhat agree,3,1708012359228,1708012363403,\Somewhat agree\,\Somewhat agree\,\3\,1708012362651,1708012362651,3423,3423,4175,buq,qns-item-noham,68,436174,0.0-1.0-0.67,65ce31853c37d8fca864ccb9,AWAITING REVIEW,2024-02-15T15:45:13.255000Z,2024-02-15T15:55:14.743000Z,,2024-02-15T15:55:15.651161Z,602.0,CVPIIDEI,2843,27,Female,White,United States,United States,United States,English,No,Full-Time,Not Applicable
53c04378fdf99b360e022d92,<b>I used to be more certain my beliefs were true.,Highly disagree,69/94,Somewhat disagree,2,1708012363405,1708012370973,\Somewhat disagree\,\Somewhat disagree\,\2\,1708012370316,1708012370316,6911,6911,7568,buq,qns-item-noham,69,443744,0.0-1.0-0.68,65ce31853c37d8fca864ccb9,AWAITING REVIEW,2024-02-15T15:45:13.255000Z,2024-02-15T15:55:14.743000Z,,2024-02-15T15:55:15.651161Z,602.0,CVPIIDEI,2843,27,Female,White,United States,United States,United States,English,No,Full-Time,Not Applicable
53c04378fdf99b360e022d92,<b>It?s often pretty easy to figure out whether something is true based on who said it.,Highly disagree,70/94,Somewhat agree,3,1708012370975,1708012381925,\Somewhat agree\,\Somewhat agree\,\3\,1708012381393,1708012381393,10418,10418,10950,buq,qns-item-noham,70,454697,0.0-1.0-0.69,65ce31853c37d8fca864ccb9,AWAITING REVIEW,2024-02-15T15:45:13.255000Z,2024-02-15T15:55:14.743000Z,,2024-02-15T15:55:15.651161Z,602.0,CVPIIDEI,2843,27,Female,White,United States,United States,United States,English,No,Full-Time,Not Applicable
53c04378fdf99b360e022d92,<b>I transform into a hummingbird every day.,Highly disagree,71/94,Highly disagree,1,1708012381928,1708012384347,\Highly disagree\,\Highly disagree\,\1\,1708012383819,1708012383819,1891,1891,2419,buq,qns-item-noham,71,457118,0.0-1.0-0.70,65ce31853c37d8fca864ccb9,AWAITING REVIEW,2024-02-15T15:45:13.255000Z,2024-02-15T15:55:14.743000Z,,2024-02-15T15:55:15.651161Z,602.0,CVPIIDEI,2843,27,Female,White,United States,United States,United States,English,No,Full-Time,Not Applicable
53c04378fdf99b360e022d92,<b>I think a lot about arguments against my views.,Highly disagree,72/94,Somewhat agree,3,1708012384349,1708012390136,\Somewhat agree\,\Somewhat agree\,\3\,1708012389660,1708012389660,5311,5311,5787,buq,qns-item-noham,72,462907,0.0-1.0-0.71,65ce31853c37d8fca864ccb9,AWAITING REVIEW,2024-02-15T15:45:13.255000Z,2024-02-15T15:55:14.743000Z,,2024-02-15T15:55:15.651161Z,602.0,CVPIIDEI,2843,27,Female,White,United States,United States,United States,English,No,Full-Time,Not Applicable
53c04378fdf99b360e022d92,<b>Personal experience is usually more important than facts and figures.,Highly disagree,73/94,Somewhat disagree,2,1708012390138,1708012395809,\Somewhat disagree\,\Somewhat disagree\,\2\,1708012395372,1708012395372,5234,5234,5671,buq,qns-item-noham,73,468580,0.0-1.0-0.72,65ce31853c37d8fca864ccb9,AWAITING REVIEW,2024-02-15T15:45:13.255000Z,2024-02-15T15:55:14.743000Z,,2024-02-15T15:55:15.651161Z,602.0,CVPIIDEI,2843,27,Female,White,United States,United States,United States,English,No,Full-Time,Not Applicable
53c04378fdf99b360e022d92,<b>I?ve been tricked before about important matters.,Highly disagree,74/94,Somewhat disagree,2,1708012395811,1708012399381,\Somewhat disagree\,\Somewhat disagree\,\2\,1708012398847,1708012398847,3036,3036,3570,buq,qns-item-noham,74,472152,0.0-1.0-0.73,65ce31853c37d8fca864ccb9,AWAITING REVIEW,2024-02-15T15:45:13.255000Z,2024-02-15T15:55:14.743000Z,,2024-02-15T15:55:15.651161Z,602.0,CVPIIDEI,2843,27,Female,White,United States,United States,United States,English,No,Full-Time,Not Applicable
53c04378fdf99b360e022d92,<b>I would need to be totally wowed if I were to change my opinion of a restaurant I don?t like.,Highly disagree,75/94,Somewhat agree,3,1708012399382,1708012406871,\Somewhat agree\,\Somewhat agree\,\3\,1708012405978,1708012405978,6596,6596,7489,buq,qns-item-noham,75,479642,0.0-1.0-0.74,65ce31853c37d8fca864ccb9,AWAITING REVIEW,2024-02-15T15:45:13.255000Z,2024-02-15T15:55:14.743000Z,,2024-02-15T15:55:15.651161Z,602.0,CVPIIDEI,2843,27,Female,White,United States,United States,United States,English,No,Full-Time,Not Applicable
53c04378fdf99b360e022d92,<b>I care a lot about politics.,Highly disagree,76/94,Highly disagree,1,1708012406872,1708012409464,\Highly disagree\,\Highly disagree\,\1\,1708012408976,1708012408976,2104,2104,2592,buq,qns-item-noham,76,482235,0.0-1.0-0.75,65ce31853c37d8fca864ccb9,AWAITING REVIEW,2024-02-15T15:45:13.255000Z,2024-02-15T15:55:14.743000Z,,2024-02-15T15:55:15.651161Z,602.0,CVPIIDEI,2843,27,Female,White,United States,United States,United States,English,No,Full-Time,Not Applicable
53c04378fdf99b360e022d92,<b>There are some topics I?ve been really wrong about.,Highly disagree,77/94,Somewhat agree,3,1708012409466,1708012421832,\Somewhat agree\,\Somewhat agree\,\3\,1708012417045,1708012417045,7579,7579,12366,buq,qns-item-noham,77,494603,0.0-1.0-0.76,65ce31853c37d8fca864ccb9,AWAITING REVIEW,2024-02-15T15:45:13.255000Z,2024-02-15T15:55:14.743000Z,,2024-02-15T15:55:15.651161Z,602.0,CVPIIDEI,2843,27,Female,White,United States,United States,United States,English,No,Full-Time,Not Applicable
53c04378fdf99b360e022d92,<b>Most beliefs can be supported with at least some evidence.,Highly disagree,78/94,Somewhat agree,3,1708012421834,1708012424669,\Somewhat agree\,\Somewhat agree\,\3\,1708012424156,1708012424156,2322,2322,2835,buq,qns-item-noham,78,497440,0.0-1.0-0.77,65ce31853c37d8fca864ccb9,AWAITING REVIEW,2024-02-15T15:45:13.255000Z,2024-02-15T15:55:14.743000Z,,2024-02-15T15:55:15.651161Z,602.0,CVPIIDEI,2843,27,Female,White,United States,United States,United States,English,No,Full-Time,Not Applicable
53c04378fdf99b360e022d92,<b>Other people make life out to be more complicated than it really is.,Highly disagree,79/94,Somewhat disagree,2,1708012424671,1708012427666,\Somewhat disagree\,\Somewhat disagree\,\2\,1708012427138,1708012427138,2467,2467,2995,buq,qns-item-noham,79,500437,0.0-1.0-0.78,65ce31853c37d8fca864ccb9,AWAITING REVIEW,2024-02-15T15:45:13.255000Z,2024-02-15T15:55:14.743000Z,,2024-02-15T15:55:15.651161Z,602.0,CVPIIDEI,2843,27,Female,White,United States,United States,United States,English,No,Full-Time,Not Applicable
53c04378fdf99b360e022d92,"<b>Policy details don?t matter much, just the big picture.",Highly disagree,80/94,Somewhat disagree,2,1708012427668,1708012432525,\Somewhat disagree\,\Somewhat disagree\,\2\,1708012432089,1708012432089,4421,4421,4857,buq,qns-item-noham,80,505296,0.0-1.0-0.79,65ce31853c37d8fca864ccb9,AWAITING REVIEW,2024-02-15T15:45:13.255000Z,2024-02-15T15:55:14.743000Z,,2024-02-15T15:55:15.651161Z,602.0,CVPIIDEI,2843,27,Female,White,United States,United States,United States,English,No,Full-Time,Not Applicable
53c04378fdf99b360e022d92,<b>I know my friends so well they can hardly ever surprise me.,Highly disagree,81/94,Highly disagree,1,1708012432526,1708012439741,\Highly disagree\,\Highly disagree\,\1\,1708012437412,1708012437412,4886,4886,7215,buq,qns-item-noham,81,512512,0.0-1.0-0.80,65ce31853c37d8fca864ccb9,AWAITING REVIEW,2024-02-15T15:45:13.255000Z,2024-02-15T15:55:14.743000Z,,2024-02-15T15:55:15.651161Z,602.0,CVPIIDEI,2843,27,Female,White,United States,United States,United States,English,No,Full-Time,Not Applicable
53c04378fdf99b360e022d92,<b>I do not often change my views on people.,Highly disagree,82/94,Somewhat disagree,2,1708012439743,1708012442230,\Somewhat disagree\,\Somewhat disagree\,\2\,1708012441685,1708012441685,1942,1942,2487,buq,qns-item-noham,82,515001,0.0-1.0-0.81,65ce31853c37d8fca864ccb9,AWAITING REVIEW,2024-02-15T15:45:13.255000Z,2024-02-15T15:55:14.743000Z,,2024-02-15T15:55:15.651161Z,602.0,CVPIIDEI,2843,27,Female,White,United States,United States,United States,English,No,Full-Time,Not Applicable
53c04378fdf99b360e022d92,<b>I?m more certain about my beliefs than I used to be.,Highly disagree,83/94,Somewhat disagree,2,1708012442231,1708012445231,\Somewhat disagree\,\Somewhat disagree\,\2\,1708012444740,1708012444740,2509,2509,3000,buq,qns-item-noham,83,518002,0.0-1.0-0.82,65ce31853c37d8fca864ccb9,AWAITING REVIEW,2024-02-15T15:45:13.255000Z,2024-02-15T15:55:14.743000Z,,2024-02-15T15:55:15.651161Z,602.0,CVPIIDEI,2843,27,Female,White,United States,United States,United States,English,No,Full-Time,Not Applicable
53c04378fdf99b360e022d92,<b>People often tell falsehoods unintentionally.,Highly disagree,84/94,Somewhat agree,3,1708012445233,1708012447357,\Somewhat agree\,\Somewhat agree\,\3\,1708012446968,1708012446968,1735,1735,2124,buq,qns-item-noham,84,520128,0.0-1.0-0.83,65ce31853c37d8fca864ccb9,AWAITING REVIEW,2024-02-15T15:45:13.255000Z,2024-02-15T15:55:14.743000Z,,2024-02-15T15:55:15.651161Z,602.0,CVPIIDEI,2843,27,Female,White,United States,United States,United States,English,No,Full-Time,Not Applicable
53c04378fdf99b360e022d92,<b>Most people don?t know much about most things.,Highly disagree,85/94,Somewhat agree,3,1708012447358,1708012450218,\Somewhat agree\,\Somewhat agree\,\3\,1708012449720,1708012449720,2362,2362,2860,buq,qns-item-noham,85,522989,0.0-1.0-0.84,65ce31853c37d8fca864ccb9,AWAITING REVIEW,2024-02-15T15:45:13.255000Z,2024-02-15T15:55:14.743000Z,,2024-02-15T15:55:15.651161Z,602.0,CVPIIDEI,2843,27,Female,White,United States,United States,United States,English,No,Full-Time,Not Applicable
53c04378fdf99b360e022d92,"<b>If I find out something new about someone, I easily change my views about them.",Highly disagree,86/94,Somewhat disagree,2,1708012450220,1708012452611,\Somewhat disagree\,\Somewhat disagree\,\2\,1708012452182,1708012452182,1962,1962,2391,buq,qns-item-noham,86,525382,0.0-1.0-0.85,65ce31853c37d8fca864ccb9,AWAITING REVIEW,2024-02-15T15:45:13.255000Z,2024-02-15T15:55:14.743000Z,,2024-02-15T15:55:15.651161Z,602.0,CVPIIDEI,2843,27,Female,White,United States,United States,United States,English,No,Full-Time,Not Applicable
53c04378fdf99b360e022d92,<b>Having true beliefs is difficult.,Highly disagree,87/94,Somewhat agree,3,1708012452613,1708012455219,\Somewhat agree\,\Somewhat agree\,\3\,1708012454799,1708012454799,2186,2186,2606,buq,qns-item-noham,87,527990,0.0-1.0-0.86,65ce31853c37d8fca864ccb9,AWAITING REVIEW,2024-02-15T15:45:13.255000Z,2024-02-15T15:55:14.743000Z,,2024-02-15T15:55:15.651161Z,602.0,CVPIIDEI,2843,27,Female,White,United States,United States,United States,English,No,Full-Time,Not Applicable
53c04378fdf99b360e022d92,<b>I don?t try new foods since I know I won?t like them.,Highly disagree,88/94,Highly disagree,1,1708012455221,1708012458088,\Highly disagree\,\Highly disagree\,\1\,1708012457608,1708012457608,2387,2387,2867,buq,qns-item-noham,88,530859,0.0-1.0-0.87,65ce31853c37d8fca864ccb9,AWAITING REVIEW,2024-02-15T15:45:13.255000Z,2024-02-15T15:55:14.743000Z,,2024-02-15T15:55:15.651161Z,602.0,CVPIIDEI,2843,27,Female,White,United States,United States,United States,English,No,Full-Time,Not Applicable
53c04378fdf99b360e022d92,<b>Other people trick each other a lot.,Highly disagree,89/94,Highly agree,4,1708012458089,1708012460428,\Highly agree\,\Highly agree\,\4\,1708012459940,1708012459940,1851,1851,2339,buq,qns-item-noham,89,533199,0.0-1.0-0.88,65ce31853c37d8fca864ccb9,AWAITING REVIEW,2024-02-15T15:45:13.255000Z,2024-02-15T15:55:14.743000Z,,2024-02-15T15:55:15.651161Z,602.0,CVPIIDEI,2843,27,Female,White,United States,United States,United States,English,No,Full-Time,Not Applicable
53c04378fdf99b360e022d92,<b>I would need to learn a lot about a person for my opinion of them to be swayed.,Highly disagree,90/94,Somewhat agree,3,1708012460429,1708012463340,\Somewhat agree\,\Somewhat agree\,\3\,1708012462798,1708012462798,2369,2369,2911,buq,qns-item-noham,90,536111,0.0-1.0-0.89,65ce31853c37d8fca864ccb9,AWAITING REVIEW,2024-02-15T15:45:13.255000Z,2024-02-15T15:55:14.743000Z,,2024-02-15T15:55:15.651161Z,602.0,CVPIIDEI,2843,27,Female,White,United States,United States,United States,English,No,Full-Time,Not Applicable
53c04378fdf99b360e022d92,<b>People can?t usually trick me when it comes to topics I care about.,Highly disagree,91/94,Somewhat disagree,2,1708012463341,1708012468204,\Somewhat disagree\,\Somewhat disagree\,\2\,1708012467520,1708012467520,4179,4179,4863,buq,qns-item-noham,91,540975,0.0-1.0-0.90,65ce31853c37d8fca864ccb9,AWAITING REVIEW,2024-02-15T15:45:13.255000Z,2024-02-15T15:55:14.743000Z,,2024-02-15T15:55:15.651161Z,602.0,CVPIIDEI,2843,27,Female,White,United States,United States,United States,English,No,Full-Time,Not Applicable
53c04378fdf99b360e022d92,<b>I do not often change my views on food.,Highly disagree,92/94,Highly disagree,1,1708012468206,1708012470890,\Highly disagree\,\Highly disagree\,\1\,1708012470142,1708012470142,1936,1936,2684,buq,qns-item-noham,92,543661,0.0-1.0-0.91,65ce31853c37d8fca864ccb9,AWAITING REVIEW,2024-02-15T15:45:13.255000Z,2024-02-15T15:55:14.743000Z,,2024-02-15T15:55:15.651161Z,602.0,CVPIIDEI,2843,27,Female,White,United States,United States,United States,English,No,Full-Time,Not Applicable
53c04378fdf99b360e022d92,<b>Specific policies are often very important to me.,Highly disagree,93/94,Somewhat disagree,2,1708012470891,1708012474734,\Somewhat disagree\,\Somewhat disagree\,\2\,1708012473818,1708012473818,2927,2927,3843,buq,qns-item-noham,93,547505,0.0-1.0-0.92,65ce31853c37d8fca864ccb9,AWAITING REVIEW,2024-02-15T15:45:13.255000Z,2024-02-15T15:55:14.743000Z,,2024-02-15T15:55:15.651161Z,602.0,CVPIIDEI,2843,27,Female,White,United States,United States,United States,English,No,Full-Time,Not Applicable
53c04378fdf99b360e022d92,<b>Most people are woefully under-informed.,Highly disagree,94/94,Somewhat agree,3,1708012474736,1708012487032,\Somewhat agree\,\Somewhat agree\,\3\,1708012484293,1708012484293,9557,9557,12296,buq,qns-item-noham,94,559803,0.0-1.0-0.93,65ce31853c37d8fca864ccb9,AWAITING REVIEW,2024-02-15T15:45:13.255000Z,2024-02-15T15:55:14.743000Z,,2024-02-15T15:55:15.651161Z,602.0,CVPIIDEI,2843,27,Female,White,United States,United States,United States,English,No,Full-Time,Not Applicable
53c04378fdf99b360e022d92,,,,,,,,,,,,,,,,,,,,,65ce31853c37d8fca864ccb9,AWAITING REVIEW,2024-02-15T15:45:13.255000Z,2024-02-15T15:55:14.743000Z,,2024-02-15T15:55:15.651161Z,602.0,CVPIIDEI,2843,27,Female,White,United States,United States,United States,English,No,Full-Time,Not Applicable
