Question,qns_options,quest_num,answer,answer_num,question_load_timestamp,next_btn_timestamp,text_selected,final_text_selected,option_num_selected,preview_timestamps,final_text_selected_time_stamp,rt_first_option_click,rt_final_option_click,rt_submit_click,questionnaire,trial_type,trial_index,time_elapsed,internal_node_id
<b>Considering other people?s perspectives can help us figure out what?s true or false.,Highly disagree,1/150,Somewhat agree,3,1698177959480,1698177971059,\Somewhat agree\,\Somewhat agree\,\3\,1698177970502,1698177970502,11022,11022,11579,buq,qns-item-noham,1,19829,0.0-1.0-0.0
<b>Knowing what?s true and knowing what to do about it are usually basically the same.,Highly disagree,2/150,Highly disagree,1,1698177971059,1698177983754,\Highly disagree\,\Highly disagree\,\1\,1698177978337,1698177978337,7278,7278,12695,buq,qns-item-noham,2,32524,0.0-1.0-0.1
<b>Most people just believe whatever is convenient for them.,Highly disagree,3/150,Somewhat agree,3,1698177983756,1698177993103,\Somewhat agree\,\Somewhat agree\,\3\,1698177992699,1698177992699,8943,8943,9347,buq,qns-item-noham,3,41873,0.0-1.0-0.2
<b>Even people who are wrong about most things can be right sometimes.,Highly disagree,4/150,Highly agree,4,1698177993103,1698177998498,\Highly agree\,\Highly agree\,\4\,1698177998018,1698177998018,4915,4915,5395,buq,qns-item-noham,4,47268,0.0-1.0-0.3
"<b>If the political party I support does something that upsets me, then the party may have changed, and I need to re-evaluate my support.",Highly disagree,5/150,Somewhat agree,3,1698177998499,1698178010405,\Somewhat agree\,\Somewhat agree\,\3\,1698178009679,1698178009679,11180,11180,11906,buq,qns-item-noham,5,59175,0.0-1.0-0.4
"<b>When people disagree, one side is usually completely right.",Highly disagree,6/150,Highly disagree,1,1698178010406,1698178015512,\Highly disagree\,\Highly disagree\,\1\,1698178015012,1698178015012,4606,4606,5106,buq,qns-item-noham,6,64282,0.0-1.0-0.5
<b>People have lots of false beliefs.,Highly disagree,7/150,Highly agree,4,1698178015513,1698178018134,\Highly agree\,\Highly agree\,\4\,1698178017681,1698178017681,2168,2168,2621,buq,qns-item-noham,7,66904,0.0-1.0-0.6
<b>Having some big beliefs helps me sort out minor ones.,Highly disagree,8/150,Somewhat disagree,2,1698178018135,1698178023873,\Somewhat disagree\,\Somewhat disagree\,\2\,1698178023273,1698178023273,5138,5138,5738,buq,qns-item-noham,8,72643,0.0-1.0-0.7
<b>Political questions are usually pretty complicated.,Highly disagree,9/150,Somewhat agree,3,1698178023874,1698178029244,\Somewhat agree\,\Somewhat agree\,\3\,1698178028590,1698178028590,4716,4716,5370,buq,qns-item-noham,9,78014,0.0-1.0-0.8
<b>Figuring out what?s important in life requires learning a lot of facts.,Highly disagree,10/150,Somewhat disagree,2,1698178029245,1698178035846,\Somewhat disagree\,\Somewhat disagree\,\2\,1698178034789,1698178034789,5544,5544,6601,buq,qns-item-noham,10,84616,0.0-1.0-0.9
<b>It is difficult for me to remember the last time I was surprised by politics.,Highly disagree,11/150,Somewhat disagree,2,1698178035847,1698178043480,\Somewhat disagree\,\Somewhat disagree\,\2\,1698178042858,1698178042858,7011,7011,7633,buq,qns-item-noham,11,92250,0.0-1.0-0.10
<b>People?s false beliefs are understandable.,Highly disagree,12/150,Somewhat agree,3,1698178043481,1698178050406,\Somewhat agree\,\Somewhat agree\,\3\,1698178049696,1698178049696,6215,6215,6925,buq,qns-item-noham,12,99176,0.0-1.0-0.11
<b>I spend a lot of time trying to be informed about politics.,Highly disagree,13/150,Somewhat agree,3,1698178050407,1698178055845,\Somewhat agree\,\Somewhat agree\,\3\,1698178055412,1698178055412,5005,5005,5438,buq,qns-item-noham,13,104615,0.0-1.0-0.12
<b>I think a lot about whether my beliefs are right.,Highly disagree,14/150,Highly agree,4,1698178055846,1698178059112,\Highly agree\,\Highly agree\,\4\,1698178058658,1698178058658,2812,2812,3266,buq,qns-item-noham,14,107882,0.0-1.0-0.13
<b>Statistics can be pretty misleading sometimes.,Highly disagree,15/150,Highly agree,4,1698178059113,1698178062713,\Highly agree\,\Highly agree\,\4\,1698178062296,1698178062296,3183,3183,3600,buq,qns-item-noham,15,111483,0.0-1.0-0.14
<b>Figuring out what?s true and what?s false takes a lot of time and effort.,Highly disagree,16/150,Highly agree,4,1698178062714,1698178066577,\Highly agree\,\Highly agree\,\4\,1698178065951,1698178065951,3237,3237,3863,buq,qns-item-noham,16,115347,0.0-1.0-0.15
"<b>If a friend does something bad to me, it was likely an error on their part.",Highly disagree,17/150,Somewhat agree,3,1698178066578,1698178081004,\Somewhat agree\,\Somewhat agree\,\3\,1698178080525,1698178080525,13947,13947,14426,buq,qns-item-noham,17,129774,0.0-1.0-0.16
<b>I have lots of beliefs that I?m only sort of sure about.,Highly disagree,18/150,Somewhat disagree,2,1698178081004,1698178092547,\Somewhat disagree\,\Somewhat disagree\,\2\,1698178092151,1698178092151,11147,11147,11543,buq,qns-item-noham,18,141317,0.0-1.0-0.17
"<b>If I go to my favorite restaurant and the food is surprisingly bad, it reminds me there are many disappointments in life.",Highly disagree,19/150,Highly disagree,1,1698178092548,1698178105798,\Highly disagree\,\Highly disagree\,\1\,1698178105183,1698178105183,12635,12635,13250,buq,qns-item-noham,19,154568,0.0-1.0-0.18
<b>Sometimes my beliefs are inconvenient for me.,Highly disagree,20/150,Highly disagree,1,1698178105799,1698178109491,\Highly disagree\,\Highly disagree\,\1\,1698178109122,1698178109122,3323,3323,3692,buq,qns-item-noham,20,158261,0.0-1.0-0.19
<b>Paying attention to multiple news sources is important.,Highly disagree,21/150,Highly agree,4,1698178109492,1698178112920,\Highly agree\,\Highly agree\,\4\,1698178112392,1698178112392,2900,2900,3428,buq,qns-item-noham,21,161690,0.0-1.0-0.20
"<b>If you are paying attention, please select ?Somewhat agree?",Highly disagree,22/150,Somewhat agree,3,1698178112921,1698178117027,\Somewhat agree\,\Somewhat agree\,\3\,1698178116495,1698178116495,3574,3574,4106,buq,qns-item-noham,22,165797,0.0-1.0-0.21
"<b>When I talk to others, I often worry I?ll convince them of something I didn?t mean to.",Highly disagree,23/150,Somewhat disagree,2,1698178117028,1698178126595,\Somewhat disagree\,\Somewhat disagree\,\2\,1698178126074,1698178126074,9046,9046,9567,buq,qns-item-noham,23,175365,0.0-1.0-0.22
<b>I would need to learn something utterly shocking about my party in order to change my political views.,Highly disagree,24/150,Somewhat disagree,2,1698178126596,1698178132404,\Somewhat disagree\,\Somewhat disagree\,\2\,1698178131795,1698178131795,5199,5199,5808,buq,qns-item-noham,24,181174,0.0-1.0-0.23
"<b>When I have new experiences, I tend to think of them as unique.",Highly disagree,25/150,Highly agree,4,1698178132405,1698178139699,\Highly agree\,\Highly agree\,\4\,1698178139105,1698178139105,6700,6700,7294,buq,qns-item-noham,25,188469,0.0-1.0-0.24
<b>Reading lots of things is important for understanding the world.,Highly disagree,26/150,Highly agree,4,1698178139700,1698178144501,\Highly agree\,\Highly agree\,\4\,1698178143740,1698178143740,4040,4040,4801,buq,qns-item-noham,26,193271,0.0-1.0-0.25
<b>The world is complicated.,Highly disagree,27/150,Highly agree,4,1698178144502,1698178146430,\Highly agree\,\Highly agree\,\4\,1698178145965,1698178145965,1463,1463,1928,buq,qns-item-noham,27,195200,0.0-1.0-0.26
<b>I change my mind about specific policies pretty frequently.,Highly disagree,28/150,Somewhat disagree,2,1698178146431,1698178152501,\Somewhat disagree\,\Somewhat disagree\,\2\,1698178150119,1698178150119,3688,3688,6070,buq,qns-item-noham,28,201271,0.0-1.0-0.27
"<b>If a politician in my political party supports something I disagree with, I give them the benefit of the doubt, as such issues often involve hidden complexities that aren?t obvious.   ",Highly disagree,29/150,Somewhat disagree,2,1698178152502,1698178164296,\Highly disagree\,\Somewhat disagree\,\1\,1698178163173,1698178163689,10671,11187,11794,buq,qns-item-noham,29,213066,0.0-1.0-0.28
<b>People?s bad politics are usually motivated by hatefulness.,Highly disagree,30/150,Somewhat disagree,2,1698178164297,1698178171238,\Somewhat disagree\,\Somewhat disagree\,\2\,1698178170010,1698178170010,5713,5713,6941,buq,qns-item-noham,30,220008,0.0-1.0-0.29
"<b>Most new experiences are just like old ones, but a little bit different.",Highly disagree,31/150,Highly disagree,1,1698178171239,1698178179842,\Highly disagree\,\Highly disagree\,\1\,1698178179198,1698178179198,7959,7959,8603,buq,qns-item-noham,31,228612,0.0-1.0-0.30
<b>I think a lot about how to reconcile my beliefs with one another.,Highly disagree,32/150,Somewhat agree,3,1698178179843,1698178192052,\Somewhat agree\,\Somewhat agree\,\3\,1698178190129,1698178190129,10286,10286,12209,buq,qns-item-noham,32,240822,0.0-1.0-0.31
<b>Personal experience rarely leads people astray.,Highly disagree,33/150,Somewhat disagree,2,1698178192052,1698178199198,\Somewhat disagree\,\Somewhat disagree\,\2\,1698178198821,1698178198821,6769,6769,7146,buq,qns-item-noham,33,247968,0.0-1.0-0.32
<b>I might have false beliefs about important topics.,Highly disagree,34/150,Somewhat disagree,2,1698178199199,1698178206119,\Somewhat disagree\,\Somewhat disagree\,\2\,1698178205548,1698178205548,6349,6349,6920,buq,qns-item-noham,34,254889,0.0-1.0-0.33
"<b>If a good friend of mine does something unexpected that upsets me, I feel like I don?t know them anymore.",Highly disagree,35/150,Highly disagree,1,1698178206120,1698178213311,\Highly disagree\,\Highly disagree\,\1\,1698178212685,1698178212685,6565,6565,7191,buq,qns-item-noham,35,262081,0.0-1.0-0.34
<b>Other people?s beliefs are often incoherent.,Highly disagree,36/150,Somewhat disagree,2,1698178213312,1698178231030,\Somewhat agree\,\Somewhat disagree\,\3\,1698178225616,1698178226204,12304,12892,17718,buq,qns-item-noham,36,279800,0.0-1.0-0.35
<b>It?s important to have friends who think about things differently than I do.,Highly disagree,37/150,Somewhat agree,3,1698178231030,1698178239748,\Somewhat agree\,\Somewhat agree\,\3\,1698178236089,1698178239351,5059,8321,8718,buq,qns-item-noham,37,288518,0.0-1.0-0.36
"<b>Every now and then, a new experience will unsettle beliefs I?ve had for a while.",Highly disagree,38/150,Somewhat agree,3,1698178239749,1698178247624,\Somewhat agree\,\Somewhat agree\,\3\,1698178245724,1698178245724,5975,5975,7875,buq,qns-item-noham,38,296394,0.0-1.0-0.37
<b>Some policies I agree with in principle are so bad I don?t support them. ,Highly disagree,39/150,Somewhat agree,3,1698178247625,1698178260533,\Somewhat agree\,\Somewhat agree\,\3\,1698178259987,1698178259987,12362,12362,12908,buq,qns-item-noham,39,309303,0.0-1.0-0.38
<b>I?m pretty sure I?ve accidentally spread false information.,Highly disagree,40/150,Somewhat disagree,2,1698178260534,1698178266343,\Somewhat disagree\,\Somewhat disagree\,\2\,1698178265869,1698178265869,5335,5335,5809,buq,qns-item-noham,40,315113,0.0-1.0-0.39
"<b>If I go to my favorite restaurant and the food is unexpectedly bad, then they have changed owners.",Highly disagree,41/150,Highly disagree,1,1698178266344,1698178279342,\Highly disagree\,\Highly disagree\,\1\,1698178274727,1698178274727,8383,8383,12998,buq,qns-item-noham,41,328112,0.0-1.0-0.40
"<b>In politics, it?s important to trust your friends and family.",Highly disagree,42/150,Somewhat agree,3,1698178279343,1698178285636,\Somewhat agree\,\Somewhat agree\,\3\,1698178285196,1698178285196,5853,5853,6293,buq,qns-item-noham,42,334406,0.0-1.0-0.41
<b>It?s OK to have some conflicting beliefs.,Highly disagree,43/150,Highly agree,4,1698178285637,1698178289177,\Highly agree\,\Highly agree\,\4\,1698178288638,1698178288638,3001,3001,3540,buq,qns-item-noham,43,337947,0.0-1.0-0.42
<b>Sometimes the details of a matter seem to conflict with the big picture.,Highly disagree,44/150,Highly agree,4,1698178289178,1698178301285,\Highly agree\,\Highly agree\,\4\,1698178300196,1698178300196,11018,11018,12107,buq,qns-item-noham,44,350055,0.0-1.0-0.43
<b>Listening to people I disagree with makes my opinions better.,Highly disagree,45/150,Highly agree,4,1698178301286,1698178307893,\Highly agree\,\Highly agree\,\4\,1698178307273,1698178307273,5987,5987,6607,buq,qns-item-noham,45,356663,0.0-1.0-0.44
<b>Policies that sound bad are sometimes fine when you find out about their details.,Highly disagree,46/150,Somewhat agree,3,1698178307894,1698178319687,\Somewhat agree\,\Somewhat agree\,\3\,1698178315818,1698178315818,7924,7924,11793,buq,qns-item-noham,46,368457,0.0-1.0-0.45
"<b>The world is always changing, so my beliefs are sometimes out-dated.",Highly disagree,47/150,Highly disagree,1,1698178319688,1698178328275,\Somewhat disagree\,\Highly disagree\,\2\,1698178324677,1698178327517,4989,7829,8587,buq,qns-item-noham,47,377045,0.0-1.0-0.46
"<b>If I receive a bad meal at my favorite restaurant and the food is surprisingly bad, I do not think much of it, and assume the chef is just having an ?off? day.",Highly disagree,48/150,Somewhat agree,3,1698178328276,1698178348374,\Somewhat agree\,\Somewhat agree\,\3\,1698178347399,1698178347399,19123,19123,20098,buq,qns-item-noham,48,397144,0.0-1.0-0.47
"<b>False information is unavoidable, to some extent.",Highly disagree,49/150,Somewhat agree,3,1698178348374,1698178353413,\Somewhat agree\,\Somewhat agree\,\3\,1698178352760,1698178352760,4386,4386,5039,buq,qns-item-noham,49,402183,0.0-1.0-0.48
<b>My moral compass sometimes makes it harder to determine what?s true.,Highly disagree,50/150,Highly disagree,1,1698178353414,1698178360667,\Highly disagree\,\Highly disagree\,\1\,1698178359940,1698178359940,6526,6526,7253,buq,qns-item-noham,50,409437,0.0-1.0-0.49
"<b>When you disagree with someone, it?s important to listen to them carefully.",Highly disagree,51/150,Highly agree,4,1698178360668,1698178365148,\Highly agree\,\Highly agree\,\4\,1698178364768,1698178364768,4100,4100,4480,buq,qns-item-noham,51,413918,0.0-1.0-0.50
<b>Evidence pointing in the wrong direction isn?t really evidence at all.,Highly disagree,52/150,Somewhat disagree,2,1698178365148,1698178370855,\Somewhat disagree\,\Somewhat disagree\,\2\,1698178370418,1698178370418,5270,5270,5707,buq,qns-item-noham,52,419625,0.0-1.0-0.51
"<b>If the political party I support messes up, it makes me think politics is rotten.",Highly disagree,53/150,Highly disagree,1,1698178370856,1698178384493,\Highly disagree\,\Highly disagree\,\1\,1698178383890,1698178383890,13034,13034,13637,buq,qns-item-noham,53,433264,0.0-1.0-0.52
<b>Lots of important topics can only really be understood by some groups of people.,Highly disagree,54/150,Highly disagree,1,1698178384494,1698178394685,\Highly disagree\,\Highly disagree\,\1\,1698178393267,1698178393267,8773,8773,10191,buq,qns-item-noham,54,443455,0.0-1.0-0.53
<b>Details almost always matter for being right about something.,Highly disagree,55/150,Highly agree,4,1698178394686,1698178399814,\Highly agree\,\Highly agree\,\4\,1698178399279,1698178399279,4593,4593,5128,buq,qns-item-noham,55,448584,0.0-1.0-0.54
"<b>The most important thing in politics is winning, not convincing people.",Highly disagree,56/150,Highly disagree,1,1698178399815,1698178403974,\Highly disagree\,\Highly disagree\,\1\,1698178403255,1698178403255,3440,3440,4159,buq,qns-item-noham,56,452744,0.0-1.0-0.55
<b>Having conflicting beliefs means you haven?t thought about them enough.,Highly disagree,57/150,Somewhat agree,3,1698178403975,1698178412108,\Somewhat agree\,\Somewhat agree\,\3\,1698178410573,1698178410573,6598,6598,8133,buq,qns-item-noham,57,460878,0.0-1.0-0.56
<b>Other people have sometimes convinced me to change my mind on important topics.,Highly disagree,58/150,Highly agree,4,1698178412109,1698178418261,\Highly agree\,\Highly agree\,\4\,1698178416196,1698178416196,4087,4087,6152,buq,qns-item-noham,58,467031,0.0-1.0-0.57
<b>I do not often change my political opinions.,Highly disagree,59/150,Somewhat agree,3,1698178418262,1698178422093,\Somewhat agree\,\Somewhat agree\,\3\,1698178421746,1698178421746,3484,3484,3831,buq,qns-item-noham,59,470863,0.0-1.0-0.58
<b>Thinking about how different things relate to one another is critical in life.,Highly disagree,60/150,Highly agree,4,1698178422094,1698178427704,\Highly agree\,\Highly agree\,\4\,1698178426990,1698178426990,4896,4896,5610,buq,qns-item-noham,60,476474,0.0-1.0-0.59
<b>True beliefs can have unfortunate implications.,Highly disagree,61/150,Somewhat disagree,2,1698178427705,1698178440294,\Somewhat disagree\,\Somewhat disagree\,\2\,1698178436664,1698178436664,8959,8959,12589,buq,qns-item-noham,61,489064,0.0-1.0-0.60
<b>It?s difficult to not have at least some conflicting beliefs.,Highly disagree,62/150,Somewhat agree,3,1698178440294,1698178447658,\Somewhat agree\,\Somewhat agree\,\3\,1698178447319,1698178447319,7025,7025,7364,buq,qns-item-noham,62,496428,0.0-1.0-0.61
"<b>When I learn new things, I think deeply about how my opinions should change.",Highly disagree,63/150,Highly agree,4,1698178447658,1698178453766,\Highly agree\,\Highly agree\,\4\,1698178453259,1698178453259,5601,5601,6108,buq,qns-item-noham,63,502536,0.0-1.0-0.62
<b>I think a lot about how to interpret different sorts of evidence.,Highly disagree,64/150,Highly agree,4,1698178453766,1698178457784,\Highly agree\,\Highly agree\,\4\,1698178457314,1698178457314,3548,3548,4018,buq,qns-item-noham,64,506554,0.0-1.0-0.63
<b>Politics is about thinking together and finding compromises.,Highly disagree,65/150,Highly agree,4,1698178457784,1698178476147,\Highly agree\,\Highly agree\,\4\,1698178473566,1698178475738,15782,17954,18363,buq,qns-item-noham,65,524917,0.0-1.0-0.64
<b>Wishful thinking causes a lot of problems.,Highly disagree,66/150,Somewhat agree,3,1698178476147,1698178482417,\Somewhat agree\,\Somewhat agree\,\3\,1698178480773,1698178480773,4626,4626,6270,buq,qns-item-noham,66,531187,0.0-1.0-0.65
<b>I judge a food item only once I try it many times.,Highly disagree,67/150,Highly agree,4,1698178482417,1698178502068,\Highly agree\,\Highly agree\,\4\,1698178491529,1698178491529,9112,9112,19651,buq,qns-item-noham,67,550838,0.0-1.0-0.66
"<b>When a person holds conflicting beliefs, they should really try to figure out what?s wrong.",Highly disagree,68/150,Highly agree,4,1698178502069,1698178506762,\Highly agree\,\Highly agree\,\4\,1698178506251,1698178506251,4182,4182,4693,buq,qns-item-noham,68,555532,0.0-1.0-0.67
<b>Knowing what?s important in life is easy.,Highly disagree,69/150,Highly disagree,1,1698178506763,1698178509902,\Highly disagree\,\Highly disagree\,\1\,1698178509460,1698178509460,2697,2697,3139,buq,qns-item-noham,69,558672,0.0-1.0-0.68
<b>Lots of smart people disagree about basic political questions.,Highly disagree,70/150,Highly agree,4,1698178509903,1698178513234,\Highly agree\,\Highly agree\,\4\,1698178512815,1698178512815,2912,2912,3331,buq,qns-item-noham,70,562004,0.0-1.0-0.69
<b>I swim across the Atlantic Ocean to get to work every day.,Highly disagree,71/150,Highly disagree,1,1698178513235,1698178523893,\Highly disagree\,\Highly disagree\,\1\,1698178519143,1698178519143,5908,5908,10658,buq,qns-item-noham,71,572663,0.0-1.0-0.70
"<b>Sometimes, you just have to ignore evidence that you know is wrong.",Highly disagree,72/150,Highly disagree,1,1698178523894,1698178531305,\Highly disagree\,\Highly disagree\,\1\,1698178530442,1698178530442,6548,6548,7411,buq,qns-item-noham,72,580075,0.0-1.0-0.71
<b>I have had some false beliefs.,Highly disagree,73/150,Somewhat agree,3,1698178531306,1698178539863,\Somewhat disagree\,\Somewhat agree\,\2\,1698178539029,1698178539496,7723,8190,8557,buq,qns-item-noham,73,588633,0.0-1.0-0.72
"<b>If one friend does something that upsets me, I sometimes start to distrust people in general.",Highly disagree,74/150,Highly disagree,1,1698178539864,1698178545726,\Highly disagree\,\Highly disagree\,\1\,1698178545180,1698178545180,5316,5316,5862,buq,qns-item-noham,74,594496,0.0-1.0-0.73
<b>I easily apply what I learn in one situation to another.,Highly disagree,75/150,Somewhat agree,3,1698178545727,1698178550882,\Somewhat agree\,\Somewhat agree\,\3\,1698178550555,1698178550555,4828,4828,5155,buq,qns-item-noham,75,599652,0.0-1.0-0.74
<b>The facts about most important matters are easy to find.,Highly disagree,76/150,Somewhat disagree,2,1698178550883,1698178556216,\Somewhat disagree\,\Somewhat disagree\,\2\,1698178555830,1698178555830,4947,4947,5333,buq,qns-item-noham,76,604986,0.0-1.0-0.75
<b>It?s better to know what?s true than to know what?s moral.,Highly disagree,77/150,Highly agree,4,1698178556217,1698178566645,\Highly agree\,\Highly agree\,\4\,1698178561094,1698178561094,4877,4877,10428,buq,qns-item-noham,77,615415,0.0-1.0-0.76
<b>It?s good to be skeptical of people you agree with.,Highly disagree,78/150,Somewhat disagree,2,1698178566646,1698178576247,\Somewhat disagree\,\Somewhat disagree\,\2\,1698178574036,1698178574036,7390,7390,9601,buq,qns-item-noham,78,625017,0.0-1.0-0.77
<b>Sometimes reasonable beliefs are wrong.,Highly disagree,79/150,Somewhat disagree,2,1698178576248,1698178581895,\Somewhat disagree\,\Somewhat disagree\,\2\,1698178581467,1698178581467,5219,5219,5647,buq,qns-item-noham,79,630665,0.0-1.0-0.78
<b>I used to think the world was less complicated than I do now.,Highly disagree,80/150,Highly disagree,1,1698178581895,1698178592252,\Highly disagree\,\Highly disagree\,\1\,1698178591298,1698178591298,9403,9403,10357,buq,qns-item-noham,80,641022,0.0-1.0-0.79
<b>People are usually completely right or completely wrong.,Highly disagree,81/150,Highly disagree,1,1698178592252,1698178598696,\Highly disagree\,\Highly disagree\,\1\,1698178598279,1698178598279,6027,6027,6444,buq,qns-item-noham,81,647466,0.0-1.0-0.80
<b>I spend a lot of time considering alternatives to my beliefs.,Highly disagree,82/150,Somewhat agree,3,1698178598696,1698178603914,\Highly agree\,\Somewhat agree\,\4\,1698178602448,1698178603608,3752,4912,5218,buq,qns-item-noham,82,652684,0.0-1.0-0.81
"<b>Political enemies need to be defeated, not convinced.",Highly disagree,83/150,Highly disagree,1,1698178603915,1698178610382,\Highly disagree\,\Highly disagree\,\1\,1698178609208,1698178609208,5293,5293,6467,buq,qns-item-noham,83,659152,0.0-1.0-0.82
"<b>When forming an opinion about a restaurant, I am more swayed by my  latest meal there than  previous meals I?ve had there.",Highly disagree,84/150,Highly disagree,1,1698178610382,1698178623812,\Highly disagree\,\Highly disagree\,\1\,1698178623332,1698178623332,12950,12950,13430,buq,qns-item-noham,84,672582,0.0-1.0-0.83
<b>I try to remain skeptical about most topics.,Highly disagree,85/150,Highly agree,4,1698178623812,1698178626966,\Highly agree\,\Highly agree\,\4\,1698178626291,1698178626291,2479,2479,3154,buq,qns-item-noham,85,675736,0.0-1.0-0.84
<b>Being wrong is usually obvious in retrospect.,Highly disagree,86/150,Highly disagree,1,1698178626966,1698178630235,\Highly disagree\,\Highly disagree\,\1\,1698178629846,1698178629846,2880,2880,3269,buq,qns-item-noham,86,679005,0.0-1.0-0.85
<b>It can be hard to realize that my beliefs are in conflict.,Highly disagree,87/150,Somewhat disagree,2,1698178630235,1698178634779,\Somewhat disagree\,\Somewhat disagree\,\2\,1698178634182,1698178634182,3947,3947,4544,buq,qns-item-noham,87,683549,0.0-1.0-0.86
<b>I form my political views only after meticulously gathering historical and present information about their policies.,Highly disagree,88/150,Highly agree,4,1698178634779,1698178641854,\Highly agree\,\Highly agree\,\4\,1698178640423,1698178640423,5644,5644,7075,buq,qns-item-noham,88,690624,0.0-1.0-0.87
<b>Skeptical people are usually just bad-tempered.,Highly disagree,89/150,Highly disagree,1,1698178641855,1698178648328,\Highly disagree\,\Highly disagree\,\1\,1698178647547,1698178647547,5692,5692,6473,buq,qns-item-noham,89,697098,0.0-1.0-0.88
<b>It is difficult for me to remember the last time I was surprised by politics.,Highly disagree,90/150,Somewhat agree,3,1698178648328,1698178652695,\Somewhat agree\,\Somewhat agree\,\3\,1698178652137,1698178652137,3809,3809,4367,buq,qns-item-noham,90,701465,0.0-1.0-0.89
"<b>When I find out I?m wrong, I think a lot about my related beliefs.",Highly disagree,91/150,Highly agree,4,1698178652695,1698178658085,\Highly agree\,\Highly agree\,\4\,1698178657159,1698178657159,4464,4464,5390,buq,qns-item-noham,91,706855,0.0-1.0-0.90
"<b>If the political party I support messes up, it makes me think you can?t trust anyone these days",Highly disagree,92/150,Highly disagree,1,1698178658085,1698178664649,\Somewhat disagree\,\Highly disagree\,\2\,1698178663850,1698178664241,5765,6156,6564,buq,qns-item-noham,92,713419,0.0-1.0-0.91
<b>People?s brains turn off when they talk about politics.,Highly disagree,93/150,Highly disagree,1,1698178664649,1698178667783,\Highly disagree\,\Highly disagree\,\1\,1698178667435,1698178667435,2786,2786,3134,buq,qns-item-noham,93,716553,0.0-1.0-0.92
<b>People who are wrong are usually just ignoring the obvious.,Highly disagree,94/150,Highly disagree,1,1698178667783,1698178671380,\Highly disagree\,\Highly disagree\,\1\,1698178670794,1698178670794,3011,3011,3597,buq,qns-item-noham,94,720150,0.0-1.0-0.93
"<b>The world isn?t that complicated, but it?s still hard to figure out how it works.",Highly disagree,95/150,Somewhat agree,3,1698178671381,1698178679381,\Somewhat agree\,\Somewhat agree\,\3\,1698178678858,1698178678858,7477,7477,8000,buq,qns-item-noham,95,728151,0.0-1.0-0.94
"<b>When forming my views on people, I rely more on what they are like now rather than rely on my past experience with them.",Highly disagree,96/150,Highly disagree,1,1698178679382,1698178694093,\Highly disagree\,\Highly disagree\,\1\,1698178686149,1698178686149,6767,6767,14711,buq,qns-item-noham,96,742863,0.0-1.0-0.95
"<b>When people contradict my beliefs, I usually know about their evidence already.",Highly disagree,97/150,Somewhat disagree,2,1698178694094,1698178703291,\Somewhat disagree\,\Somewhat disagree\,\2\,1698178701617,1698178701617,7523,7523,9197,buq,qns-item-noham,97,752061,0.0-1.0-0.96
<b>Being wrong is a matter of degree.,Highly disagree,98/150,Highly disagree,1,1698178703292,1698178708740,\Highly disagree\,\Highly disagree\,\1\,1698178708125,1698178708125,4833,4833,5448,buq,qns-item-noham,98,757510,0.0-1.0-0.97
<b>Figuring out what?s true and what?s false mainly requires a strong moral compass.,Highly disagree,99/150,Somewhat disagree,2,1698178708741,1698178720565,\Somewhat disagree\,\Somewhat disagree\,\2\,1698178719374,1698178719374,10633,10633,11824,buq,qns-item-noham,99,769335,0.0-1.0-0.98
<b>Most of the beliefs people have are at least somewhat understandable.,Highly disagree,100/150,Highly agree,4,1698178720566,1698178728949,\Highly agree\,\Highly agree\,\4\,1698178728145,1698178728145,7579,7579,8383,buq,qns-item-noham,100,777719,0.0-1.0-0.99
"<b>Usually I?m wrong about simple things, not complicated ones.",Highly disagree,101/150,Somewhat disagree,2,1698178728949,1698178738118,\Somewhat disagree\,\Somewhat disagree\,\2\,1698178737286,1698178737286,8337,8337,9169,buq,qns-item-noham,101,786888,0.0-1.0-0.100
<b>Getting all the information I want about important things is hard.,Highly disagree,102/150,Somewhat agree,3,1698178738119,1698178743681,\Somewhat agree\,\Somewhat agree\,\3\,1698178743350,1698178743350,5231,5231,5562,buq,qns-item-noham,102,792451,0.0-1.0-0.101
<b>Most false beliefs spread because people try to deceive one another.,Highly disagree,103/150,Highly disagree,1,1698178743682,1698178749178,\Highly disagree\,\Highly disagree\,\1\,1698178748353,1698178748353,4671,4671,5496,buq,qns-item-noham,103,797948,0.0-1.0-0.102
<b>I can usually find something to agree with in most people?s beliefs.,Highly disagree,104/150,Somewhat agree,3,1698178749178,1698178754636,\Highly agree\,\Somewhat agree\,\4\,1698178753762,1698178754307,4584,5129,5458,buq,qns-item-noham,104,803407,0.0-1.0-0.103
<b>I only form my views of people once I get to know them very well.,Highly disagree,105/150,Highly agree,4,1698178754637,1698178759177,\Highly agree\,\Highly agree\,\4\,1698178758598,1698178758598,3961,3961,4540,buq,qns-item-noham,105,807947,0.0-1.0-0.104
"<b>When people tell me important things about the world, I usually believe them.",Highly disagree,106/150,Somewhat disagree,2,1698178759178,1698178765335,\Somewhat disagree\,\Somewhat disagree\,\2\,1698178763705,1698178763705,4527,4527,6157,buq,qns-item-noham,106,814105,0.0-1.0-0.105
"<b>If a friend does something that upsets me, it reminds me what an unpredictable place the world is.",Highly disagree,107/150,Somewhat agree,3,1698178765335,1698178777116,\Somewhat agree\,\Somewhat agree\,\3\,1698178774132,1698178774132,8797,8797,11781,buq,qns-item-noham,107,825886,0.0-1.0-0.106
<b>Having some conflicting beliefs is inevitable.,Highly disagree,108/150,Highly agree,4,1698178777116,1698178780781,\Highly agree\,\Highly agree\,\4\,1698178780218,1698178780218,3102,3102,3665,buq,qns-item-noham,108,829551,0.0-1.0-0.107
<b>People are wrong because they haven?t thought much about things.,Highly disagree,109/150,Highly disagree,1,1698178780782,1698178786749,\Highly disagree\,\Highly disagree\,\1\,1698178785976,1698178785976,5194,5194,5967,buq,qns-item-noham,109,835520,0.0-1.0-0.108
<b>People tend to believe whatever is good for their friends.,Highly disagree,110/150,Somewhat disagree,2,1698178786750,1698178793468,\Somewhat disagree\,\Somewhat disagree\,\2\,1698178793059,1698178793059,6309,6309,6718,buq,qns-item-noham,110,842238,0.0-1.0-0.109
"<b>When I talk about important topics, I try to make sure people know I?m not always right.",Highly disagree,111/150,Highly agree,4,1698178793468,1698178800064,\Somewhat agree\,\Highly agree\,\3\,1698178798232,1698178798998,4764,5530,6596,buq,qns-item-noham,111,848834,0.0-1.0-0.110
<b>I used to be more certain my beliefs were true.,Highly disagree,112/150,Highly disagree,1,1698178800064,1698178805441,\Highly disagree\,\Highly disagree\,\1\,1698178804617,1698178804617,4553,4553,5377,buq,qns-item-noham,112,854211,0.0-1.0-0.111
<b>It?s often pretty easy to figure out whether something is true based on who said it.,Highly disagree,113/150,Highly disagree,1,1698178805442,1698178817224,\Somewhat disagree\,\Highly disagree\,\2\,1698178812248,1698178816400,6806,10958,11782,buq,qns-item-noham,113,865994,0.0-1.0-0.112
<b>Having bad food in my favorite restaurant will make me think the restaurant is no longer good.,Highly disagree,114/150,Highly disagree,1,1698178817225,1698178828796,\Highly disagree\,\Highly disagree\,\1\,1698178828184,1698178828184,10959,10959,11571,buq,qns-item-noham,114,877566,0.0-1.0-0.113
<b>I transform into a hummingbird every day.,Highly disagree,115/150,Highly disagree,1,1698178828796,1698178836440,\Highly disagree\,\Highly disagree\,\1\,1698178832893,1698178832893,4097,4097,7644,buq,qns-item-noham,115,885211,0.0-1.0-0.114
"<b>Unfortunately, when people are wrong, it?s usually because they?re bad.",Highly disagree,116/150,Highly disagree,1,1698178836441,1698178845501,\Highly disagree\,\Highly disagree\,\1\,1698178844203,1698178844203,7762,7762,9060,buq,qns-item-noham,116,894271,0.0-1.0-0.115
<b>I think a lot about arguments against my views.,Highly disagree,117/150,Highly agree,4,1698178845502,1698178851598,\Highly agree\,\Highly agree\,\4\,1698178850888,1698178850888,5386,5386,6096,buq,qns-item-noham,117,900368,0.0-1.0-0.116
<b>Details tend to matter a lot for knowing whether a policy is good.,Highly disagree,118/150,Highly agree,4,1698178851599,1698178856175,\Highly agree\,\Highly agree\,\4\,1698178855491,1698178855491,3892,3892,4576,buq,qns-item-noham,118,904945,0.0-1.0-0.117
<b>Personal experience is usually more important than facts and figures.,Highly disagree,119/150,Somewhat disagree,2,1698178856176,1698178862444,\Somewhat disagree\,\Somewhat disagree\,\2\,1698178861107,1698178861107,4931,4931,6268,buq,qns-item-noham,119,911214,0.0-1.0-0.118
<b>I?ve been tricked before about important matters.,Highly disagree,120/150,Somewhat agree,3,1698178862445,1698178866949,\Somewhat agree\,\Somewhat agree\,\3\,1698178866635,1698178866635,4190,4190,4504,buq,qns-item-noham,120,915719,0.0-1.0-0.119
<b>I would need to be totally wowed if I were to change my opinion of a restaurant I don?t like.,Highly disagree,121/150,Somewhat disagree,2,1698178866950,1698178875967,\Somewhat disagree\,\Somewhat disagree\,\2\,1698178875032,1698178875032,8082,8082,9017,buq,qns-item-noham,121,924737,0.0-1.0-0.120
<b>I care a lot about politics.,Highly disagree,122/150,Somewhat agree,3,1698178875968,1698178880465,\Somewhat agree\,\Somewhat agree\,\3\,1698178880056,1698178880056,4088,4088,4497,buq,qns-item-noham,122,929235,0.0-1.0-0.121
<b>People with conflicting beliefs usually have some facts they disagree on.,Highly disagree,123/150,Highly agree,4,1698178880466,1698178891621,\Highly agree\,\Highly agree\,\4\,1698178890718,1698178890718,10252,10252,11155,buq,qns-item-noham,123,940391,0.0-1.0-0.122
<b>There are some topics I?ve been really wrong about.,Highly disagree,124/150,Somewhat agree,3,1698178891622,1698178901785,\Somewhat agree\,\Somewhat agree\,\3\,1698178899424,1698178899424,7802,7802,10163,buq,qns-item-noham,124,950555,0.0-1.0-0.123
<b>Most beliefs can be supported with at least some evidence.,Highly disagree,125/150,Somewhat agree,3,1698178901786,1698178906891,\Somewhat agree\,\Somewhat agree\,\3\,1698178906454,1698178906454,4668,4668,5105,buq,qns-item-noham,125,955661,0.0-1.0-0.124
<b>Other people make life out to be more complicated than it really is.,Highly disagree,126/150,Somewhat disagree,2,1698178906892,1698178910643,\Somewhat disagree\,\Somewhat disagree\,\2\,1698178910363,1698178910363,3471,3471,3751,buq,qns-item-noham,126,959413,0.0-1.0-0.125
"<b>My political views are being shaped continuously as I gather more information, rather than relying on what I?ve known to be true of my party in the past. ",Highly disagree,127/150,Somewhat disagree,2,1698178910644,1698178926188,\Somewhat agree\,\Somewhat disagree\,\3\,1698178919914,1698178925312,9270,14668,15544,buq,qns-item-noham,127,974958,0.0-1.0-0.126
<b>It?s pretty unusual for true things to seem false.,Highly disagree,128/150,Highly disagree,1,1698178926189,1698178935687,\Highly disagree\,\Highly disagree\,\1\,1698178933091,1698178933091,6902,6902,9498,buq,qns-item-noham,128,984457,0.0-1.0-0.127
"<b>Policy details don?t matter much, just the big picture.",Highly disagree,129/150,Highly disagree,1,1698178935688,1698178940265,\Highly disagree\,\Highly disagree\,\1\,1698178939840,1698178939840,4152,4152,4577,buq,qns-item-noham,129,989035,0.0-1.0-0.128
<b>I know my friends so well they can hardly ever surprise me.,Highly disagree,130/150,Highly disagree,1,1698178940266,1698178943868,\Highly disagree\,\Highly disagree\,\1\,1698178943461,1698178943461,3195,3195,3602,buq,qns-item-noham,130,992638,0.0-1.0-0.129
"<b>When I talk to people, I often think about why they have the beliefs they do.",Highly disagree,131/150,Highly agree,4,1698178943869,1698178948411,\Highly agree\,\Highly agree\,\4\,1698178947934,1698178947934,4065,4065,4542,buq,qns-item-noham,131,997181,0.0-1.0-0.130
<b>I do not often change my views on people.,Highly disagree,132/150,Highly disagree,1,1698178948412,1698178954213,\Highly disagree\,\Highly disagree\,\1\,1698178952845,1698178952845,4433,4433,5801,buq,qns-item-noham,132,1002983,0.0-1.0-0.131
<b>I often wish I had more time to spend figuring out what?s true and what?s false in life.,Highly disagree,133/150,Highly agree,4,1698178954214,1698178971213,\Highly agree\,\Highly agree\,\4\,1698178967851,1698178967851,13637,13637,16999,buq,qns-item-noham,133,1019983,0.0-1.0-0.132
<b>I?m more certain about my beliefs than I used to be.,Highly disagree,134/150,Somewhat agree,3,1698178971214,1698178976975,\Somewhat agree\,\Somewhat agree\,\3\,1698178976345,1698178976345,5131,5131,5761,buq,qns-item-noham,134,1025745,0.0-1.0-0.133
"<b>Whenever I find out new information, I update my views on politics accordingly.",Highly disagree,135/150,Somewhat agree,3,1698178976976,1698178990348,\Highly agree\,\Somewhat agree\,\4\,1698178988361,1698178989921,11385,12945,13372,buq,qns-item-noham,135,1039118,0.0-1.0-0.134
<b>People often tell falsehoods unintentionally.,Highly disagree,136/150,Highly agree,4,1698178990349,1698178994658,\Highly agree\,\Highly agree\,\4\,1698178993855,1698178993855,3506,3506,4309,buq,qns-item-noham,136,1043428,0.0-1.0-0.135
<b>Most people don?t know much about most things.,Highly disagree,137/150,Somewhat agree,3,1698178994659,1698178999075,\Somewhat agree\,\Somewhat agree\,\3\,1698178998340,1698178998340,3681,3681,4416,buq,qns-item-noham,137,1047845,0.0-1.0-0.136
"<b>If I find out something new about someone, I easily change my views about them.",Highly disagree,138/150,Somewhat disagree,2,1698178999076,1698179004612,\Somewhat disagree\,\Somewhat disagree\,\2\,1698179003947,1698179003947,4871,4871,5536,buq,qns-item-noham,138,1053382,0.0-1.0-0.137
<b>Having true beliefs is difficult.,Highly disagree,139/150,Highly agree,4,1698179004613,1698179007323,\Highly agree\,\Highly agree\,\4\,1698179006942,1698179006942,2329,2329,2710,buq,qns-item-noham,139,1056093,0.0-1.0-0.138
<b>I don?t try new foods since I know I won?t like them.,Highly disagree,140/150,Highly disagree,1,1698179007324,1698179010643,\Highly disagree\,\Highly disagree\,\1\,1698179010062,1698179010062,2738,2738,3319,buq,qns-item-noham,140,1059413,0.0-1.0-0.139
<b>It?s easy to figure out what?s true or false based on who?s saying it.,Highly disagree,141/150,Somewhat disagree,2,1698179010644,1698179017483,\Highly disagree\,\Somewhat disagree\,\1\,1698179015174,1698179017094,4530,6450,6839,buq,qns-item-noham,141,1066253,0.0-1.0-0.140
<b>False things have seemed true to me many times.,Highly disagree,142/150,Somewhat agree,3,1698179017484,1698179022110,\Somewhat agree\,\Somewhat agree\,\3\,1698179021733,1698179021733,4249,4249,4626,buq,qns-item-noham,142,1070880,0.0-1.0-0.141
<b>It?s pretty easy to sort out what?s true and what?s false in life.,Highly disagree,143/150,Highly disagree,1,1698179022111,1698179031699,\Somewhat disagree\,\Highly disagree\,\2\,1698179027540,1698179031339,5429,9228,9588,buq,qns-item-noham,143,1080469,0.0-1.0-0.142
<b>Knowing lots of statistics about something is usually important for understanding it.,Highly disagree,144/150,Highly agree,4,1698179031700,1698179038163,\Highly agree\,\Highly agree\,\4\,1698179037382,1698179037382,5682,5682,6463,buq,qns-item-noham,144,1086933,0.0-1.0-0.143
<b>Other people trick each other a lot.,Highly disagree,145/150,Somewhat disagree,2,1698179038164,1698179045072,\Highly disagree\,\Somewhat disagree\,\1\,1698179043023,1698179043678,4859,5514,6908,buq,qns-item-noham,145,1093842,0.0-1.0-0.144
<b>I would need to learn a lot about a person for my opinion of them to be swayed.,Highly disagree,146/150,Somewhat agree,3,1698179045073,1698179051451,\Highly agree\,\Somewhat agree\,\4\,1698179049848,1698179051154,4775,6081,6378,buq,qns-item-noham,146,1100221,0.0-1.0-0.145
<b>People can?t usually trick me when it comes to topics I care about.,Highly disagree,147/150,Highly agree,4,1698179051452,1698179061100,\Somewhat agree\,\Highly agree\,\3\,1698179056074,1698179060529,4622,9077,9648,buq,qns-item-noham,147,1109870,0.0-1.0-0.146
<b>I do not often change my views on food.,Highly disagree,148/150,Somewhat disagree,2,1698179061100,1698179069737,\Somewhat disagree\,\Somewhat disagree\,\2\,1698179068845,1698179068845,7745,7745,8637,buq,qns-item-noham,148,1118507,0.0-1.0-0.147
<b>Specific policies are often very important to me.,Highly disagree,149/150,Somewhat agree,3,1698179069738,1698179074586,\Somewhat agree\,\Somewhat agree\,\3\,1698179074101,1698179074101,4363,4363,4848,buq,qns-item-noham,149,1123356,0.0-1.0-0.148
<b>Most people are woefully under-informed.,Highly disagree,150/150,Highly agree,4,1698179074586,1698179078976,\Highly agree\,\Highly agree\,\4\,1698179078307,1698179078307,3721,3721,4390,buq,qns-item-noham,150,1127746,0.0-1.0-0.149
