Question,qns_options,quest_num,answer,answer_num,question_load_timestamp,next_btn_timestamp,text_selected,final_text_selected,option_num_selected,preview_timestamps,final_text_selected_time_stamp,rt_first_option_click,rt_final_option_click,rt_submit_click,questionnaire,trial_type,trial_index,time_elapsed,internal_node_id
<b>Considering other people?s perspectives can help us figure out what?s true or false.,Highly disagree,1/150,Somewhat agree,3,1698178404140,1698178411611,\Somewhat agree\,\Somewhat agree\,\3\,1698178410728,1698178410728,6588,6588,7471,buq,qns-item-noham,1,68850,0.0-1.0-0.0
<b>Knowing what?s true and knowing what to do about it are usually basically the same.,Highly disagree,2/150,Somewhat disagree,2,1698178411617,1698178417162,\Somewhat disagree\,\Somewhat disagree\,\2\,1698178416426,1698178416426,4809,4809,5545,buq,qns-item-noham,2,74401,0.0-1.0-0.1
<b>Most people just believe whatever is convenient for them.,Highly disagree,3/150,Somewhat agree,3,1698178417164,1698178437341,\Somewhat agree\,\Somewhat agree\,\3\,1698178436982,1698178436982,19818,19818,20177,buq,qns-item-noham,3,94580,0.0-1.0-0.2
<b>Even people who are wrong about most things can be right sometimes.,Highly disagree,4/150,Highly agree,4,1698178437343,1698178441729,\Highly agree\,\Highly agree\,\4\,1698178441343,1698178441343,4000,4000,4386,buq,qns-item-noham,4,98968,0.0-1.0-0.3
"<b>If the political party I support does something that upsets me, then the party may have changed, and I need to re-evaluate my support.",Highly disagree,5/150,Highly agree,4,1698178441731,1698178447489,\Highly agree\,\Highly agree\,\4\,1698178447131,1698178447131,5400,5400,5758,buq,qns-item-noham,5,104728,0.0-1.0-0.4
"<b>When people disagree, one side is usually completely right.",Highly disagree,6/150,Highly disagree,1,1698178447491,1698178451323,\Highly disagree\,\Highly disagree\,\1\,1698178450956,1698178450956,3465,3465,3832,buq,qns-item-noham,6,108562,0.0-1.0-0.5
<b>People have lots of false beliefs.,Highly disagree,7/150,Somewhat agree,3,1698178451325,1698178453728,\Somewhat agree\,\Somewhat agree\,\3\,1698178453428,1698178453428,2103,2103,2403,buq,qns-item-noham,7,110967,0.0-1.0-0.6
<b>Having some big beliefs helps me sort out minor ones.,Highly disagree,8/150,Somewhat disagree,2,1698178453730,1698178458430,\Somewhat disagree\,\Somewhat disagree\,\2\,1698178458026,1698178458026,4296,4296,4700,buq,qns-item-noham,8,115669,0.0-1.0-0.7
<b>Political questions are usually pretty complicated.,Highly disagree,9/150,Somewhat disagree,2,1698178458432,1698178475334,\Somewhat disagree\,\Somewhat disagree\,\2\,1698178474948,1698178474948,16516,16516,16902,buq,qns-item-noham,9,132574,0.0-1.0-0.8
<b>Figuring out what?s important in life requires learning a lot of facts.,Highly disagree,10/150,Somewhat disagree,2,1698178475336,1698178480469,\Somewhat disagree\,\Somewhat disagree\,\2\,1698178480142,1698178480142,4806,4806,5133,buq,qns-item-noham,10,137708,0.0-1.0-0.9
<b>It is difficult for me to remember the last time I was surprised by politics.,Highly disagree,11/150,Highly disagree,1,1698178480470,1698178484947,\Highly disagree\,\Highly disagree\,\1\,1698178484530,1698178484530,4060,4060,4477,buq,qns-item-noham,11,142187,0.0-1.0-0.10
<b>People?s false beliefs are understandable.,Highly disagree,12/150,Highly agree,4,1698178484949,1698178488384,\Highly agree\,\Highly agree\,\4\,1698178488077,1698178488077,3128,3128,3435,buq,qns-item-noham,12,145623,0.0-1.0-0.11
<b>I spend a lot of time trying to be informed about politics.,Highly disagree,13/150,Highly disagree,1,1698178488385,1698178491601,\Highly disagree\,\Highly disagree\,\1\,1698178491265,1698178491265,2880,2880,3216,buq,qns-item-noham,13,148840,0.0-1.0-0.12
<b>I think a lot about whether my beliefs are right.,Highly disagree,14/150,Highly disagree,1,1698178491603,1698178494401,\Highly disagree\,\Highly disagree\,\1\,1698178493875,1698178493875,2272,2272,2798,buq,qns-item-noham,14,151640,0.0-1.0-0.13
<b>Statistics can be pretty misleading sometimes.,Highly disagree,15/150,Highly agree,4,1698178494403,1698178497748,\Highly agree\,\Highly agree\,\4\,1698178497381,1698178497381,2978,2978,3345,buq,qns-item-noham,15,154987,0.0-1.0-0.14
<b>Figuring out what?s true and what?s false takes a lot of time and effort.,Highly disagree,16/150,Somewhat agree,3,1698178497750,1698178505226,\Somewhat agree\,\Somewhat agree\,\3\,1698178504949,1698178504949,7199,7199,7476,buq,qns-item-noham,16,162466,0.0-1.0-0.15
"<b>If a friend does something bad to me, it was likely an error on their part.",Highly disagree,17/150,Somewhat agree,3,1698178505228,1698178509079,\Somewhat agree\,\Somewhat agree\,\3\,1698178508653,1698178508653,3425,3425,3851,buq,qns-item-noham,17,166318,0.0-1.0-0.16
<b>I have lots of beliefs that I?m only sort of sure about.,Highly disagree,18/150,Somewhat agree,3,1698178509081,1698178518385,\Somewhat agree\,\Somewhat agree\,\3\,1698178517303,1698178517303,8222,8222,9304,buq,qns-item-noham,18,175624,0.0-1.0-0.17
"<b>If I go to my favorite restaurant and the food is surprisingly bad, it reminds me there are many disappointments in life.",Highly disagree,19/150,Somewhat agree,3,1698178518386,1698178526827,\Somewhat agree\,\Somewhat agree\,\3\,1698178526528,1698178526528,8142,8142,8441,buq,qns-item-noham,19,184066,0.0-1.0-0.18
<b>Sometimes my beliefs are inconvenient for me.,Highly disagree,20/150,Somewhat agree,3,1698178526829,1698178529230,\Somewhat agree\,\Somewhat agree\,\3\,1698178528951,1698178528951,2122,2122,2401,buq,qns-item-noham,20,186469,0.0-1.0-0.19
<b>Paying attention to multiple news sources is important.,Highly disagree,21/150,Highly agree,4,1698178529232,1698178532556,\Highly agree\,\Highly agree\,\4\,1698178532100,1698178532100,2868,2868,3324,buq,qns-item-noham,21,189795,0.0-1.0-0.20
"<b>If you are paying attention, please select ?Somewhat agree?",Highly disagree,22/150,Somewhat agree,3,1698178532558,1698178535455,\Somewhat agree\,\Somewhat agree\,\3\,1698178535040,1698178535040,2482,2482,2897,buq,qns-item-noham,22,192694,0.0-1.0-0.21
"<b>When I talk to others, I often worry I?ll convince them of something I didn?t mean to.",Highly disagree,23/150,Highly disagree,1,1698178535457,1698178543073,\Somewhat disagree\,\Highly disagree\,\2\,1698178542041,1698178542715,6584,7258,7616,buq,qns-item-noham,23,200312,0.0-1.0-0.22
<b>I would need to learn something utterly shocking about my party in order to change my political views.,Highly disagree,24/150,Highly disagree,1,1698178543075,1698178548585,\Highly disagree\,\Highly disagree\,\1\,1698178548227,1698178548227,5152,5152,5510,buq,qns-item-noham,24,205824,0.0-1.0-0.23
"<b>When I have new experiences, I tend to think of them as unique.",Highly disagree,25/150,Somewhat agree,3,1698178548587,1698178553908,\Somewhat agree\,\Somewhat agree\,\3\,1698178553559,1698178553559,4972,4972,5321,buq,qns-item-noham,25,211147,0.0-1.0-0.24
<b>Reading lots of things is important for understanding the world.,Highly disagree,26/150,Somewhat agree,3,1698178553910,1698178557126,\Somewhat agree\,\Somewhat agree\,\3\,1698178556759,1698178556759,2849,2849,3216,buq,qns-item-noham,26,214365,0.0-1.0-0.25
<b>The world is complicated.,Highly disagree,27/150,Highly agree,4,1698178557128,1698178558854,\Highly agree\,\Highly agree\,\4\,1698178558487,1698178558487,1359,1359,1726,buq,qns-item-noham,27,216093,0.0-1.0-0.26
<b>I change my mind about specific policies pretty frequently.,Highly disagree,28/150,Somewhat disagree,2,1698178558855,1698178562458,\Somewhat disagree\,\Somewhat disagree\,\2\,1698178562190,1698178562190,3335,3335,3603,buq,qns-item-noham,28,219697,0.0-1.0-0.27
"<b>If a politician in my political party supports something I disagree with, I give them the benefit of the doubt, as such issues often involve hidden complexities that aren?t obvious.   ",Highly disagree,29/150,Somewhat disagree,2,1698178562460,1698178568190,\Somewhat disagree\,\Somewhat disagree\,\2\,1698178567692,1698178567692,5232,5232,5730,buq,qns-item-noham,29,225429,0.0-1.0-0.28
<b>People?s bad politics are usually motivated by hatefulness.,Highly disagree,30/150,Highly agree,4,1698178568192,1698178571823,\Highly agree\,\Highly agree\,\4\,1698178571356,1698178571356,3164,3164,3631,buq,qns-item-noham,30,229062,0.0-1.0-0.29
"<b>Most new experiences are just like old ones, but a little bit different.",Highly disagree,31/150,Somewhat disagree,2,1698178571824,1698178577016,\Somewhat disagree\,\Somewhat disagree\,\2\,1698178576708,1698178576708,4884,4884,5192,buq,qns-item-noham,31,234255,0.0-1.0-0.30
<b>I think a lot about how to reconcile my beliefs with one another.,Highly disagree,32/150,Somewhat disagree,2,1698178577018,1698178580880,\Somewhat disagree\,\Somewhat disagree\,\2\,1698178580602,1698178580602,3584,3584,3862,buq,qns-item-noham,32,238119,0.0-1.0-0.31
<b>Personal experience rarely leads people astray.,Highly disagree,33/150,Somewhat disagree,2,1698178580881,1698178586848,\Somewhat disagree\,\Somewhat disagree\,\2\,1698178586511,1698178586511,5630,5630,5967,buq,qns-item-noham,33,244088,0.0-1.0-0.32
<b>I might have false beliefs about important topics.,Highly disagree,34/150,Somewhat agree,3,1698178586850,1698178634572,\Somewhat agree\,\Somewhat agree\,\3\,1698178634124,1698178634124,47274,47274,47722,buq,qns-item-noham,34,291811,0.0-1.0-0.33
"<b>If a good friend of mine does something unexpected that upsets me, I feel like I don?t know them anymore.",Highly disagree,35/150,Somewhat disagree,2,1698178634573,1698178639914,\Somewhat disagree\,\Somewhat disagree\,\2\,1698178639160,1698178639160,4587,4587,5341,buq,qns-item-noham,35,297154,0.0-1.0-0.34
<b>Other people?s beliefs are often incoherent.,Highly disagree,36/150,Somewhat agree,3,1698178639916,1698178643668,\Somewhat agree\,\Somewhat agree\,\3\,1698178643320,1698178643320,3404,3404,3752,buq,qns-item-noham,36,300908,0.0-1.0-0.35
<b>It?s important to have friends who think about things differently than I do.,Highly disagree,37/150,Somewhat disagree,2,1698178643670,1698178651147,\Somewhat agree\,\Somewhat disagree\,\3\,1698178649548,1698178650520,5878,6850,7477,buq,qns-item-noham,37,308386,0.0-1.0-0.36
"<b>Every now and then, a new experience will unsettle beliefs I?ve had for a while.",Highly disagree,38/150,Somewhat agree,3,1698178651149,1698178657850,\Somewhat agree\,\Somewhat agree\,\3\,1698178657423,1698178657423,6274,6274,6701,buq,qns-item-noham,38,315089,0.0-1.0-0.37
<b>Some policies I agree with in principle are so bad I don?t support them. ,Highly disagree,39/150,Highly disagree,1,1698178657851,1698178666986,\Highly agree\,\Highly disagree\,\4\,1698178665477,1698178666628,7626,8777,9135,buq,qns-item-noham,39,324225,0.0-1.0-0.38
<b>I?m pretty sure I?ve accidentally spread false information.,Highly disagree,40/150,Somewhat agree,3,1698178666988,1698178670223,\Somewhat agree\,\Somewhat agree\,\3\,1698178669927,1698178669927,2939,2939,3235,buq,qns-item-noham,40,327462,0.0-1.0-0.39
"<b>If I go to my favorite restaurant and the food is unexpectedly bad, then they have changed owners.",Highly disagree,41/150,Somewhat disagree,2,1698178670225,1698178676301,\Somewhat disagree\,\Somewhat disagree\,\2\,1698178675944,1698178675944,5719,5719,6076,buq,qns-item-noham,41,333540,0.0-1.0-0.40
"<b>In politics, it?s important to trust your friends and family.",Highly disagree,42/150,Somewhat disagree,2,1698178676303,1698178680979,\Somewhat disagree\,\Somewhat disagree\,\2\,1698178680692,1698178680692,4389,4389,4676,buq,qns-item-noham,42,338218,0.0-1.0-0.41
<b>It?s OK to have some conflicting beliefs.,Highly disagree,43/150,Somewhat agree,3,1698178680982,1698178684196,\Somewhat agree\,\Somewhat agree\,\3\,1698178683147,1698178683147,2165,2165,3214,buq,qns-item-noham,43,341435,0.0-1.0-0.42
<b>Sometimes the details of a matter seem to conflict with the big picture.,Highly disagree,44/150,Somewhat agree,3,1698178684198,1698178688576,\Somewhat agree\,\Somewhat agree\,\3\,1698178688011,1698178688011,3813,3813,4378,buq,qns-item-noham,44,345815,0.0-1.0-0.43
<b>Listening to people I disagree with makes my opinions better.,Highly disagree,45/150,Somewhat disagree,2,1698178688578,1698178692756,\Somewhat disagree\,\Somewhat disagree\,\2\,1698178692480,1698178692480,3902,3902,4178,buq,qns-item-noham,45,349995,0.0-1.0-0.44
<b>Policies that sound bad are sometimes fine when you find out about their details.,Highly disagree,46/150,Somewhat agree,3,1698178692758,1698178696869,\Somewhat agree\,\Somewhat agree\,\3\,1698178696600,1698178696600,3842,3842,4111,buq,qns-item-noham,46,354108,0.0-1.0-0.45
"<b>The world is always changing, so my beliefs are sometimes out-dated.",Highly disagree,47/150,Highly disagree,1,1698178696870,1698178700403,\Highly disagree\,\Highly disagree\,\1\,1698178700096,1698178700096,3226,3226,3533,buq,qns-item-noham,47,357642,0.0-1.0-0.46
"<b>If I receive a bad meal at my favorite restaurant and the food is surprisingly bad, I do not think much of it, and assume the chef is just having an ?off? day.",Highly disagree,48/150,Somewhat agree,3,1698178700405,1698178706313,\Somewhat agree\,\Somewhat agree\,\3\,1698178705915,1698178705915,5510,5510,5908,buq,qns-item-noham,48,363552,0.0-1.0-0.47
"<b>False information is unavoidable, to some extent.",Highly disagree,49/150,Somewhat agree,3,1698178706315,1698178712043,\Somewhat agree\,\Somewhat agree\,\3\,1698178711178,1698178711178,4863,4863,5728,buq,qns-item-noham,49,369282,0.0-1.0-0.48
<b>My moral compass sometimes makes it harder to determine what?s true.,Highly disagree,50/150,Somewhat agree,3,1698178712044,1698178718895,\Somewhat agree\,\Somewhat agree\,\3\,1698178718469,1698178718469,6425,6425,6851,buq,qns-item-noham,50,376134,0.0-1.0-0.49
"<b>When you disagree with someone, it?s important to listen to them carefully.",Highly disagree,51/150,Highly agree,4,1698178718898,1698178722530,\Highly agree\,\Highly agree\,\4\,1698178722094,1698178722094,3196,3196,3632,buq,qns-item-noham,51,379769,0.0-1.0-0.50
<b>Evidence pointing in the wrong direction isn?t really evidence at all.,Highly disagree,52/150,Somewhat disagree,2,1698178722532,1698178730773,\Somewhat disagree\,\Somewhat disagree\,\2\,1698178729422,1698178729422,6890,6890,8241,buq,qns-item-noham,52,388012,0.0-1.0-0.51
"<b>If the political party I support messes up, it makes me think politics is rotten.",Highly disagree,53/150,Somewhat disagree,2,1698178730775,1698178735043,\Somewhat disagree\,\Somewhat disagree\,\2\,1698178734715,1698178734715,3940,3940,4268,buq,qns-item-noham,53,392282,0.0-1.0-0.52
<b>Lots of important topics can only really be understood by some groups of people.,Highly disagree,54/150,Highly disagree,1,1698178735045,1698178756292,\Highly disagree\,\Highly disagree\,\1\,1698178755835,1698178755835,20790,20790,21247,buq,qns-item-noham,54,413531,0.0-1.0-0.53
<b>Details almost always matter for being right about something.,Highly disagree,55/150,Somewhat agree,3,1698178756293,1698178765915,\Somewhat agree\,\Somewhat agree\,\3\,1698178765538,1698178765538,9245,9245,9622,buq,qns-item-noham,55,423154,0.0-1.0-0.54
"<b>The most important thing in politics is winning, not convincing people.",Highly disagree,56/150,Highly disagree,1,1698178765917,1698178773135,\Highly disagree\,\Highly disagree\,\1\,1698178772271,1698178772271,6354,6354,7218,buq,qns-item-noham,56,430374,0.0-1.0-0.55
<b>Having conflicting beliefs means you haven?t thought about them enough.,Highly disagree,57/150,Somewhat agree,3,1698178773137,1698178777138,\Somewhat agree\,\Somewhat agree\,\3\,1698178776591,1698178776591,3454,3454,4001,buq,qns-item-noham,57,434377,0.0-1.0-0.56
<b>Other people have sometimes convinced me to change my mind on important topics.,Highly disagree,58/150,Somewhat agree,3,1698178777140,1698178780763,\Somewhat agree\,\Somewhat agree\,\3\,1698178780425,1698178780425,3285,3285,3623,buq,qns-item-noham,58,438002,0.0-1.0-0.57
<b>I do not often change my political opinions.,Highly disagree,59/150,Highly agree,4,1698178780766,1698178783651,\Highly agree\,\Highly agree\,\4\,1698178783136,1698178783136,2370,2370,2885,buq,qns-item-noham,59,440891,0.0-1.0-0.58
<b>Thinking about how different things relate to one another is critical in life.,Highly disagree,60/150,Highly agree,4,1698178783653,1698178789154,\Highly agree\,\Highly agree\,\4\,1698178788746,1698178788746,5093,5093,5501,buq,qns-item-noham,60,446393,0.0-1.0-0.59
<b>True beliefs can have unfortunate implications.,Highly disagree,61/150,Somewhat agree,3,1698178789155,1698178795192,\Somewhat agree\,\Somewhat agree\,\3\,1698178794774,1698178794774,5619,5619,6037,buq,qns-item-noham,61,452431,0.0-1.0-0.60
<b>It?s difficult to not have at least some conflicting beliefs.,Highly disagree,62/150,Somewhat agree,3,1698178795193,1698178799809,\Somewhat agree\,\Somewhat agree\,\3\,1698178799363,1698178799363,4170,4170,4616,buq,qns-item-noham,62,457049,0.0-1.0-0.61
"<b>When I learn new things, I think deeply about how my opinions should change.",Highly disagree,63/150,Somewhat agree,3,1698178799811,1698178804050,\Somewhat agree\,\Somewhat agree\,\3\,1698178803733,1698178803733,3922,3922,4239,buq,qns-item-noham,63,461289,0.0-1.0-0.62
<b>I think a lot about how to interpret different sorts of evidence.,Highly disagree,64/150,Somewhat agree,3,1698178804051,1698178807228,\Somewhat agree\,\Somewhat agree\,\3\,1698178806840,1698178806840,2789,2789,3177,buq,qns-item-noham,64,464467,0.0-1.0-0.63
<b>Politics is about thinking together and finding compromises.,Highly disagree,65/150,Highly disagree,1,1698178807230,1698178812739,\Highly disagree\,\Highly disagree\,\1\,1698178812352,1698178812352,5122,5122,5509,buq,qns-item-noham,65,469979,0.0-1.0-0.64
<b>Wishful thinking causes a lot of problems.,Highly disagree,66/150,Somewhat agree,3,1698178812741,1698178816652,\Somewhat agree\,\Somewhat agree\,\3\,1698178816325,1698178816325,3584,3584,3911,buq,qns-item-noham,66,473891,0.0-1.0-0.65
<b>I judge a food item only once I try it many times.,Highly disagree,67/150,Somewhat disagree,2,1698178816653,1698178901016,\Somewhat disagree\,\Somewhat disagree\,\2\,1698178900678,1698178900678,84025,84025,84363,buq,qns-item-noham,67,558255,0.0-1.0-0.66
"<b>When a person holds conflicting beliefs, they should really try to figure out what?s wrong.",Highly disagree,68/150,Somewhat agree,3,1698178901018,1698178907282,\Somewhat agree\,\Somewhat agree\,\3\,1698178906936,1698178906936,5918,5918,6264,buq,qns-item-noham,68,564521,0.0-1.0-0.67
<b>Knowing what?s important in life is easy.,Highly disagree,69/150,Highly disagree,1,1698178907284,1698178909725,\Highly disagree\,\Highly disagree\,\1\,1698178909388,1698178909388,2104,2104,2441,buq,qns-item-noham,69,566964,0.0-1.0-0.68
<b>Lots of smart people disagree about basic political questions.,Highly disagree,70/150,Highly agree,4,1698178909727,1698178913410,\Highly agree\,\Highly agree\,\4\,1698178912954,1698178912954,3227,3227,3683,buq,qns-item-noham,70,570649,0.0-1.0-0.69
<b>I swim across the Atlantic Ocean to get to work every day.,Highly disagree,71/150,Highly disagree,1,1698178913412,1698178916092,\Highly disagree\,\Highly disagree\,\1\,1698178915693,1698178915693,2281,2281,2680,buq,qns-item-noham,71,573331,0.0-1.0-0.70
"<b>Sometimes, you just have to ignore evidence that you know is wrong.",Highly disagree,72/150,Somewhat disagree,2,1698178916093,1698178922000,\Somewhat disagree\,\Somewhat disagree\,\2\,1698178921443,1698178921443,5350,5350,5907,buq,qns-item-noham,72,579239,0.0-1.0-0.71
<b>I have had some false beliefs.,Highly disagree,73/150,Somewhat agree,3,1698178922002,1698178924085,\Somewhat agree\,\Somewhat agree\,\3\,1698178923818,1698178923818,1816,1816,2083,buq,qns-item-noham,73,581324,0.0-1.0-0.72
"<b>If one friend does something that upsets me, I sometimes start to distrust people in general.",Highly disagree,74/150,Somewhat agree,3,1698178924086,1698178928634,\Somewhat agree\,\Somewhat agree\,\3\,1698178928328,1698178928328,4242,4242,4548,buq,qns-item-noham,74,585873,0.0-1.0-0.73
<b>I easily apply what I learn in one situation to another.,Highly disagree,75/150,Highly agree,4,1698178928636,1698178932675,\Highly agree\,\Highly agree\,\4\,1698178932410,1698178932410,3774,3774,4039,buq,qns-item-noham,75,589914,0.0-1.0-0.74
<b>The facts about most important matters are easy to find.,Highly disagree,76/150,Somewhat disagree,2,1698178932677,1698178941316,\Somewhat disagree\,\Somewhat disagree\,\2\,1698178941028,1698178941028,8351,8351,8639,buq,qns-item-noham,76,598555,0.0-1.0-0.75
<b>It?s better to know what?s true than to know what?s moral.,Highly disagree,77/150,Somewhat agree,3,1698178941318,1698178944890,\Somewhat agree\,\Somewhat agree\,\3\,1698178944513,1698178944513,3195,3195,3572,buq,qns-item-noham,77,602129,0.0-1.0-0.76
<b>It?s good to be skeptical of people you agree with.,Highly disagree,78/150,Somewhat agree,3,1698178944892,1698178948746,\Somewhat agree\,\Somewhat agree\,\3\,1698178948377,1698178948377,3485,3485,3854,buq,qns-item-noham,78,605985,0.0-1.0-0.77
<b>Sometimes reasonable beliefs are wrong.,Highly disagree,79/150,Highly agree,4,1698178948748,1698178951852,\Highly agree\,\Highly agree\,\4\,1698178951474,1698178951474,2726,2726,3104,buq,qns-item-noham,79,609091,0.0-1.0-0.78
<b>I used to think the world was less complicated than I do now.,Highly disagree,80/150,Highly agree,4,1698178951854,1698178955447,\Highly agree\,\Highly agree\,\4\,1698178955080,1698178955080,3226,3226,3593,buq,qns-item-noham,80,612686,0.0-1.0-0.79
<b>People are usually completely right or completely wrong.,Highly disagree,81/150,Somewhat disagree,2,1698178955449,1698178958446,\Somewhat disagree\,\Somewhat disagree\,\2\,1698178958167,1698178958167,2718,2718,2997,buq,qns-item-noham,81,615685,0.0-1.0-0.80
<b>I spend a lot of time considering alternatives to my beliefs.,Highly disagree,82/150,Somewhat agree,3,1698178958448,1698178961911,\Somewhat agree\,\Somewhat agree\,\3\,1698178961544,1698178961544,3096,3096,3463,buq,qns-item-noham,82,619150,0.0-1.0-0.81
"<b>Political enemies need to be defeated, not convinced.",Highly disagree,83/150,Highly agree,4,1698178961913,1698178967284,\Highly agree\,\Highly agree\,\4\,1698178966698,1698178966698,4785,4785,5371,buq,qns-item-noham,83,624523,0.0-1.0-0.82
"<b>When forming an opinion about a restaurant, I am more swayed by my  latest meal there than  previous meals I?ve had there.",Highly disagree,84/150,Highly agree,4,1698178967286,1698178972179,\Highly agree\,\Highly agree\,\4\,1698178971782,1698178971782,4496,4496,4893,buq,qns-item-noham,84,629418,0.0-1.0-0.83
<b>I try to remain skeptical about most topics.,Highly disagree,85/150,Highly agree,4,1698178972181,1698178976152,\Highly agree\,\Highly agree\,\4\,1698178975814,1698178975814,3633,3633,3971,buq,qns-item-noham,85,633391,0.0-1.0-0.84
<b>Being wrong is usually obvious in retrospect.,Highly disagree,86/150,Somewhat disagree,2,1698178976153,1698178980640,\Somewhat disagree\,\Somewhat disagree\,\2\,1698178979875,1698178979875,3722,3722,4487,buq,qns-item-noham,86,637879,0.0-1.0-0.85
<b>It can be hard to realize that my beliefs are in conflict.,Highly disagree,87/150,Somewhat disagree,2,1698178980641,1698178984911,\Somewhat disagree\,\Somewhat disagree\,\2\,1698178984572,1698178984572,3931,3931,4270,buq,qns-item-noham,87,642150,0.0-1.0-0.86
<b>I form my political views only after meticulously gathering historical and present information about their policies.,Highly disagree,88/150,Somewhat disagree,2,1698178984912,1698179021285,\Somewhat disagree\,\Somewhat disagree\,\2\,1698179020898,1698179020898,35986,35986,36373,buq,qns-item-noham,88,678524,0.0-1.0-0.87
<b>Skeptical people are usually just bad-tempered.,Highly disagree,89/150,Highly disagree,1,1698179021287,1698179024105,\Highly disagree\,\Highly disagree\,\1\,1698179023608,1698179023608,2321,2321,2818,buq,qns-item-noham,89,681345,0.0-1.0-0.88
<b>It is difficult for me to remember the last time I was surprised by politics.,Highly disagree,90/150,Highly disagree,1,1698179024107,1698179028784,\Highly disagree\,\Highly disagree\,\1\,1698179028426,1698179028426,4319,4319,4677,buq,qns-item-noham,90,686023,0.0-1.0-0.89
"<b>When I find out I?m wrong, I think a lot about my related beliefs.",Highly disagree,91/150,Somewhat disagree,2,1698179028786,1698179031970,\Somewhat disagree\,\Somewhat disagree\,\2\,1698179031702,1698179031702,2916,2916,3184,buq,qns-item-noham,91,689209,0.0-1.0-0.90
"<b>If the political party I support messes up, it makes me think you can?t trust anyone these days",Highly disagree,92/150,Somewhat disagree,2,1698179031972,1698179037552,\Somewhat disagree\,\Somewhat disagree\,\2\,1698179037224,1698179037224,5252,5252,5580,buq,qns-item-noham,92,694791,0.0-1.0-0.91
<b>People?s brains turn off when they talk about politics.,Highly disagree,93/150,Somewhat agree,3,1698179037553,1698179040600,\Somewhat agree\,\Somewhat agree\,\3\,1698179040303,1698179040303,2750,2750,3047,buq,qns-item-noham,93,697839,0.0-1.0-0.92
<b>People who are wrong are usually just ignoring the obvious.,Highly disagree,94/150,Somewhat agree,3,1698179040602,1698179043560,\Somewhat agree\,\Somewhat agree\,\3\,1698179043214,1698179043214,2612,2612,2958,buq,qns-item-noham,94,700799,0.0-1.0-0.93
"<b>The world isn?t that complicated, but it?s still hard to figure out how it works.",Highly disagree,95/150,Highly disagree,1,1698179043561,1698179046533,\Highly disagree\,\Highly disagree\,\1\,1698179046183,1698179046183,2622,2622,2972,buq,qns-item-noham,95,703772,0.0-1.0-0.94
"<b>When forming my views on people, I rely more on what they are like now rather than rely on my past experience with them.",Highly disagree,96/150,Highly agree,4,1698179046535,1698179054931,\Highly agree\,\Highly agree\,\4\,1698179054445,1698179054445,7910,7910,8396,buq,qns-item-noham,96,712170,0.0-1.0-0.95
"<b>When people contradict my beliefs, I usually know about their evidence already.",Highly disagree,97/150,Somewhat agree,3,1698179054933,1698179059092,\Somewhat agree\,\Somewhat agree\,\3\,1698179058784,1698179058784,3851,3851,4159,buq,qns-item-noham,97,716331,0.0-1.0-0.96
<b>Being wrong is a matter of degree.,Highly disagree,98/150,Somewhat disagree,2,1698179059094,1698179062995,\Somewhat disagree\,\Somewhat disagree\,\2\,1698179062538,1698179062538,3444,3444,3901,buq,qns-item-noham,98,720234,0.0-1.0-0.97
<b>Figuring out what?s true and what?s false mainly requires a strong moral compass.,Highly disagree,99/150,Somewhat disagree,2,1698179062996,1698179066650,\Somewhat disagree\,\Somewhat disagree\,\2\,1698179066382,1698179066382,3386,3386,3654,buq,qns-item-noham,99,723889,0.0-1.0-0.98
<b>Most of the beliefs people have are at least somewhat understandable.,Highly disagree,100/150,Somewhat agree,3,1698179066652,1698179069460,\Somewhat agree\,\Somewhat agree\,\3\,1698179069163,1698179069163,2511,2511,2808,buq,qns-item-noham,100,726699,0.0-1.0-0.99
"<b>Usually I?m wrong about simple things, not complicated ones.",Highly disagree,101/150,Somewhat agree,3,1698179069461,1698179074277,\Somewhat agree\,\Somewhat agree\,\3\,1698179073978,1698179073978,4517,4517,4816,buq,qns-item-noham,101,731516,0.0-1.0-0.100
<b>Getting all the information I want about important things is hard.,Highly disagree,102/150,Somewhat agree,3,1698179074278,1698179077970,\Somewhat agree\,\Somewhat agree\,\3\,1698179077693,1698179077693,3415,3415,3692,buq,qns-item-noham,102,735210,0.0-1.0-0.101
<b>Most false beliefs spread because people try to deceive one another.,Highly disagree,103/150,Highly agree,4,1698179077972,1698179081337,\Highly agree\,\Highly agree\,\4\,1698179080930,1698179080930,2958,2958,3365,buq,qns-item-noham,103,738576,0.0-1.0-0.102
<b>I can usually find something to agree with in most people?s beliefs.,Highly disagree,104/150,Somewhat agree,3,1698179081339,1698179085299,\Somewhat agree\,\Somewhat agree\,\3\,1698179085002,1698179085002,3663,3663,3960,buq,qns-item-noham,104,742538,0.0-1.0-0.103
<b>I only form my views of people once I get to know them very well.,Highly disagree,105/150,Highly agree,4,1698179085301,1698179088129,\Highly agree\,\Highly agree\,\4\,1698179087673,1698179087673,2372,2372,2828,buq,qns-item-noham,105,745369,0.0-1.0-0.104
"<b>When people tell me important things about the world, I usually believe them.",Highly disagree,106/150,Highly disagree,1,1698179088131,1698179125993,\Highly disagree\,\Highly disagree\,\1\,1698179125645,1698179125645,37514,37514,37862,buq,qns-item-noham,106,783232,0.0-1.0-0.105
"<b>If a friend does something that upsets me, it reminds me what an unpredictable place the world is.",Highly disagree,107/150,Somewhat disagree,2,1698179125994,1698179129727,\Somewhat disagree\,\Somewhat disagree\,\2\,1698179129408,1698179129408,3414,3414,3733,buq,qns-item-noham,107,786966,0.0-1.0-0.106
<b>Having some conflicting beliefs is inevitable.,Highly disagree,108/150,Somewhat agree,3,1698179129728,1698179132964,\Somewhat agree\,\Somewhat agree\,\3\,1698179132280,1698179132280,2552,2552,3236,buq,qns-item-noham,108,790203,0.0-1.0-0.107
<b>People are wrong because they haven?t thought much about things.,Highly disagree,109/150,Somewhat agree,3,1698179132965,1698179135605,\Somewhat agree\,\Somewhat agree\,\3\,1698179135318,1698179135318,2353,2353,2640,buq,qns-item-noham,109,792844,0.0-1.0-0.108
<b>People tend to believe whatever is good for their friends.,Highly disagree,110/150,Somewhat agree,3,1698179135607,1698179138058,\Somewhat agree\,\Somewhat agree\,\3\,1698179137731,1698179137731,2124,2124,2451,buq,qns-item-noham,110,795298,0.0-1.0-0.109
"<b>When I talk about important topics, I try to make sure people know I?m not always right.",Highly disagree,111/150,Highly agree,4,1698179138060,1698179142070,\Highly agree\,\Highly agree\,\4\,1698179141733,1698179141733,3673,3673,4010,buq,qns-item-noham,111,799309,0.0-1.0-0.110
<b>I used to be more certain my beliefs were true.,Highly disagree,112/150,Somewhat agree,3,1698179142072,1698179145052,\Somewhat agree\,\Somewhat agree\,\3\,1698179144731,1698179144731,2659,2659,2980,buq,qns-item-noham,112,802291,0.0-1.0-0.111
<b>It?s often pretty easy to figure out whether something is true based on who said it.,Highly disagree,113/150,Somewhat agree,3,1698179145055,1698179148705,\Somewhat agree\,\Somewhat agree\,\3\,1698179148407,1698179148407,3352,3352,3650,buq,qns-item-noham,113,805944,0.0-1.0-0.112
<b>Having bad food in my favorite restaurant will make me think the restaurant is no longer good.,Highly disagree,114/150,Somewhat agree,3,1698179148707,1698179152925,\Somewhat agree\,\Somewhat agree\,\3\,1698179152638,1698179152638,3931,3931,4218,buq,qns-item-noham,114,810164,0.0-1.0-0.113
<b>I transform into a hummingbird every day.,Highly disagree,115/150,Highly disagree,1,1698179152926,1698179155249,\Highly disagree\,\Highly disagree\,\1\,1698179154950,1698179154950,2024,2024,2323,buq,qns-item-noham,115,812488,0.0-1.0-0.114
"<b>Unfortunately, when people are wrong, it?s usually because they?re bad.",Highly disagree,116/150,Somewhat disagree,2,1698179155251,1698179158219,\Somewhat disagree\,\Somewhat disagree\,\2\,1698179157891,1698179157891,2640,2640,2968,buq,qns-item-noham,116,815458,0.0-1.0-0.115
<b>I think a lot about arguments against my views.,Highly disagree,117/150,Somewhat agree,3,1698179158221,1698179161336,\Somewhat agree\,\Somewhat agree\,\3\,1698179161078,1698179161078,2857,2857,3115,buq,qns-item-noham,117,818575,0.0-1.0-0.116
<b>Details tend to matter a lot for knowing whether a policy is good.,Highly disagree,118/150,Somewhat agree,3,1698179161338,1698179165815,\Somewhat agree\,\Somewhat agree\,\3\,1698179165528,1698179165528,4190,4190,4477,buq,qns-item-noham,118,823054,0.0-1.0-0.117
<b>Personal experience is usually more important than facts and figures.,Highly disagree,119/150,Somewhat agree,3,1698179165817,1698179174375,\Somewhat agree\,\Somewhat agree\,\3\,1698179174048,1698179174048,8231,8231,8558,buq,qns-item-noham,119,831614,0.0-1.0-0.118
<b>I?ve been tricked before about important matters.,Highly disagree,120/150,Somewhat agree,3,1698179174377,1698179177117,\Somewhat agree\,\Somewhat agree\,\3\,1698179176839,1698179176839,2462,2462,2740,buq,qns-item-noham,120,834356,0.0-1.0-0.119
<b>I would need to be totally wowed if I were to change my opinion of a restaurant I don?t like.,Highly disagree,121/150,Somewhat disagree,2,1698179177119,1698179336720,\Somewhat disagree\,\Somewhat disagree\,\2\,1698179336223,1698179336223,159104,159104,159601,buq,qns-item-noham,121,993959,0.0-1.0-0.120
<b>I care a lot about politics.,Highly disagree,122/150,Somewhat disagree,2,1698179336722,1698179338795,\Somewhat disagree\,\Somewhat disagree\,\2\,1698179338506,1698179338506,1784,1784,2073,buq,qns-item-noham,122,996034,0.0-1.0-0.121
<b>People with conflicting beliefs usually have some facts they disagree on.,Highly disagree,123/150,Somewhat agree,3,1698179338797,1698179341904,\Somewhat agree\,\Somewhat agree\,\3\,1698179341606,1698179341606,2809,2809,3107,buq,qns-item-noham,123,999143,0.0-1.0-0.122
<b>There are some topics I?ve been really wrong about.,Highly disagree,124/150,Somewhat agree,3,1698179341906,1698179344396,\Somewhat agree\,\Somewhat agree\,\3\,1698179344108,1698179344108,2202,2202,2490,buq,qns-item-noham,124,1001635,0.0-1.0-0.123
<b>Most beliefs can be supported with at least some evidence.,Highly disagree,125/150,Somewhat agree,3,1698179344397,1698179375595,\Somewhat agree\,\Somewhat agree\,\3\,1698179375356,1698179375356,30959,30959,31198,buq,qns-item-noham,125,1032834,0.0-1.0-0.124
<b>Other people make life out to be more complicated than it really is.,Highly disagree,126/150,Somewhat disagree,2,1698179375596,1698179378862,\Somewhat disagree\,\Somewhat disagree\,\2\,1698179378593,1698179378593,2997,2997,3266,buq,qns-item-noham,126,1036101,0.0-1.0-0.125
"<b>My political views are being shaped continuously as I gather more information, rather than relying on what I?ve known to be true of my party in the past. ",Highly disagree,127/150,Somewhat agree,3,1698179378863,1698179384017,\Somewhat agree\,\Somewhat agree\,\3\,1698179383590,1698179383590,4727,4727,5154,buq,qns-item-noham,127,1041256,0.0-1.0-0.126
<b>It?s pretty unusual for true things to seem false.,Highly disagree,128/150,Somewhat disagree,2,1698179384019,1698179388981,\Somewhat disagree\,\Somewhat disagree\,\2\,1698179388713,1698179388713,4694,4694,4962,buq,qns-item-noham,128,1046220,0.0-1.0-0.127
"<b>Policy details don?t matter much, just the big picture.",Highly disagree,129/150,Highly disagree,1,1698179388983,1698179391812,\Highly disagree\,\Highly disagree\,\1\,1698179391474,1698179391474,2491,2491,2829,buq,qns-item-noham,129,1049051,0.0-1.0-0.128
<b>I know my friends so well they can hardly ever surprise me.,Highly disagree,130/150,Highly disagree,1,1698179391813,1698179394671,\Highly disagree\,\Highly disagree\,\1\,1698179393967,1698179393967,2154,2154,2858,buq,qns-item-noham,130,1051911,0.0-1.0-0.129
"<b>When I talk to people, I often think about why they have the beliefs they do.",Highly disagree,131/150,Somewhat agree,3,1698179394673,1698179398456,\Somewhat agree\,\Somewhat agree\,\3\,1698179398187,1698179398187,3514,3514,3783,buq,qns-item-noham,131,1055695,0.0-1.0-0.130
<b>I do not often change my views on people.,Highly disagree,132/150,Somewhat agree,3,1698179398458,1698179400690,\Somewhat agree\,\Somewhat agree\,\3\,1698179400363,1698179400363,1905,1905,2232,buq,qns-item-noham,132,1057929,0.0-1.0-0.131
<b>I often wish I had more time to spend figuring out what?s true and what?s false in life.,Highly disagree,133/150,Somewhat agree,3,1698179400692,1698179403957,\Somewhat agree\,\Somewhat agree\,\3\,1698179403708,1698179403708,3016,3016,3265,buq,qns-item-noham,133,1061196,0.0-1.0-0.132
<b>I?m more certain about my beliefs than I used to be.,Highly disagree,134/150,Somewhat disagree,2,1698179403959,1698179407155,\Somewhat disagree\,\Somewhat disagree\,\2\,1698179406917,1698179406917,2958,2958,3196,buq,qns-item-noham,134,1064394,0.0-1.0-0.133
"<b>Whenever I find out new information, I update my views on politics accordingly.",Highly disagree,135/150,Somewhat agree,3,1698179407158,1698179411564,\Somewhat agree\,\Somewhat agree\,\3\,1698179411317,1698179411317,4159,4159,4406,buq,qns-item-noham,135,1068803,0.0-1.0-0.134
<b>People often tell falsehoods unintentionally.,Highly disagree,136/150,Highly agree,4,1698179411566,1698179413709,\Highly agree\,\Highly agree\,\4\,1698179413402,1698179413402,1836,1836,2143,buq,qns-item-noham,136,1070948,0.0-1.0-0.135
<b>Most people don?t know much about most things.,Highly disagree,137/150,Highly agree,4,1698179413711,1698179415993,\Highly agree\,\Highly agree\,\4\,1698179415704,1698179415704,1993,1993,2282,buq,qns-item-noham,137,1073232,0.0-1.0-0.136
"<b>If I find out something new about someone, I easily change my views about them.",Highly disagree,138/150,Highly disagree,1,1698179415995,1698179419360,\Highly disagree\,\Highly disagree\,\1\,1698179419032,1698179419032,3037,3037,3365,buq,qns-item-noham,138,1076599,0.0-1.0-0.137
<b>Having true beliefs is difficult.,Highly disagree,139/150,Somewhat agree,3,1698179419361,1698179422151,\Somewhat agree\,\Somewhat agree\,\3\,1698179421893,1698179421893,2532,2532,2790,buq,qns-item-noham,139,1079390,0.0-1.0-0.138
<b>I don?t try new foods since I know I won?t like them.,Highly disagree,140/150,Highly disagree,1,1698179422153,1698179424444,\Highly disagree\,\Highly disagree\,\1\,1698179424138,1698179424138,1985,1985,2291,buq,qns-item-noham,140,1081683,0.0-1.0-0.139
<b>It?s easy to figure out what?s true or false based on who?s saying it.,Highly disagree,141/150,Somewhat agree,3,1698179424446,1698179604502,\Somewhat agree\,\Somewhat agree\,\3\,1698179604222,1698179604222,179776,179776,180056,buq,qns-item-noham,141,1261741,0.0-1.0-0.140
<b>False things have seemed true to me many times.,Highly disagree,142/150,Somewhat agree,3,1698179604504,1698179606835,\Somewhat agree\,\Somewhat agree\,\3\,1698179606547,1698179606547,2043,2043,2331,buq,qns-item-noham,142,1264074,0.0-1.0-0.141
<b>It?s pretty easy to sort out what?s true and what?s false in life.,Highly disagree,143/150,Somewhat disagree,2,1698179606837,1698179613073,\Somewhat disagree\,\Somewhat disagree\,\2\,1698179612783,1698179612783,5946,5946,6236,buq,qns-item-noham,143,1270312,0.0-1.0-0.142
<b>Knowing lots of statistics about something is usually important for understanding it.,Highly disagree,144/150,Somewhat disagree,2,1698179613075,1698179616657,\Somewhat disagree\,\Somewhat disagree\,\2\,1698179616368,1698179616368,3293,3293,3582,buq,qns-item-noham,144,1273896,0.0-1.0-0.143
<b>Other people trick each other a lot.,Highly disagree,145/150,Highly agree,4,1698179616659,1698179618582,\Highly agree\,\Highly agree\,\4\,1698179618196,1698179618196,1537,1537,1923,buq,qns-item-noham,145,1275821,0.0-1.0-0.144
<b>I would need to learn a lot about a person for my opinion of them to be swayed.,Highly disagree,146/150,Somewhat agree,3,1698179618584,1698179623518,\Somewhat agree\,\Somewhat agree\,\3\,1698179623171,1698179623171,4587,4587,4934,buq,qns-item-noham,146,1280758,0.0-1.0-0.145
<b>People can?t usually trick me when it comes to topics I care about.,Highly disagree,147/150,Somewhat agree,3,1698179623521,1698179626200,\Somewhat agree\,\Somewhat agree\,\3\,1698179625754,1698179625754,2233,2233,2679,buq,qns-item-noham,147,1283439,0.0-1.0-0.146
<b>I do not often change my views on food.,Highly disagree,148/150,Somewhat agree,3,1698179626202,1698179629210,\Somewhat agree\,\Somewhat agree\,\3\,1698179628882,1698179628882,2680,2680,3008,buq,qns-item-noham,148,1286449,0.0-1.0-0.147
<b>Specific policies are often very important to me.,Highly disagree,149/150,Somewhat disagree,2,1698179629212,1698179632606,\Somewhat disagree\,\Somewhat disagree\,\2\,1698179632227,1698179632227,3015,3015,3394,buq,qns-item-noham,149,1289845,0.0-1.0-0.148
<b>Most people are woefully under-informed.,Highly disagree,150/150,Highly agree,4,1698179632608,1698179635048,\Highly agree\,\Highly agree\,\4\,1698179634680,1698179634680,2072,2072,2440,buq,qns-item-noham,150,1292287,0.0-1.0-0.149
