Question,qns_options,quest_num,answer,answer_num,question_load_timestamp,next_btn_timestamp,text_selected,final_text_selected,option_num_selected,preview_timestamps,final_text_selected_time_stamp,rt_first_option_click,rt_final_option_click,rt_submit_click,questionnaire,trial_type,trial_index,time_elapsed,internal_node_id
<b>Considering other people?s perspectives can help us figure out what?s true or false.,Highly disagree,1/150,Somewhat agree,3,1698178495111,1698178500169,\Somewhat agree\,\Somewhat agree\,\3\,1698178499071,1698178499071,3960,3960,5058,buq,qns-item-noham,1,9636,0.0-1.0-0.0
<b>Knowing what?s true and knowing what to do about it are usually basically the same.,Highly disagree,2/150,Somewhat agree,3,1698178500171,1698178503389,\Somewhat agree\,\Somewhat agree\,\3\,1698178502659,1698178502659,2488,2488,3218,buq,qns-item-noham,2,12856,0.0-1.0-0.1
<b>Most people just believe whatever is convenient for them.,Highly disagree,3/150,Somewhat agree,3,1698178503394,1698178505900,\Somewhat agree\,\Somewhat agree\,\3\,1698178505341,1698178505341,1947,1947,2506,buq,qns-item-noham,3,15367,0.0-1.0-0.2
<b>Even people who are wrong about most things can be right sometimes.,Highly disagree,4/150,Highly agree,4,1698178505902,1698178508517,\Highly agree\,\Highly agree\,\4\,1698178507807,1698178507807,1905,1905,2615,buq,qns-item-noham,4,17984,0.0-1.0-0.3
"<b>If the political party I support does something that upsets me, then the party may have changed, and I need to re-evaluate my support.",Highly disagree,5/150,Somewhat disagree,2,1698178508518,1698178514646,\Somewhat disagree\,\Somewhat disagree\,\2\,1698178512523,1698178512523,4005,4005,6128,buq,qns-item-noham,5,24113,0.0-1.0-0.4
"<b>When people disagree, one side is usually completely right.",Highly disagree,6/150,Somewhat disagree,2,1698178514653,1698178517309,\Somewhat disagree\,\Somewhat disagree\,\2\,1698178516710,1698178516710,2057,2057,2656,buq,qns-item-noham,6,26776,0.0-1.0-0.5
<b>People have lots of false beliefs.,Highly disagree,7/150,Somewhat agree,3,1698178517311,1698178520159,\Somewhat agree\,\Somewhat agree\,\3\,1698178519167,1698178519167,1856,1856,2848,buq,qns-item-noham,7,29626,0.0-1.0-0.6
<b>Having some big beliefs helps me sort out minor ones.,Highly disagree,8/150,Somewhat agree,3,1698178520160,1698178524573,\Somewhat agree\,\Somewhat agree\,\3\,1698178523701,1698178523701,3541,3541,4413,buq,qns-item-noham,8,34040,0.0-1.0-0.7
<b>Political questions are usually pretty complicated.,Highly disagree,9/150,Highly agree,4,1698178524574,1698178528293,\Highly agree\,\Highly agree\,\4\,1698178527727,1698178527727,3153,3153,3719,buq,qns-item-noham,9,37760,0.0-1.0-0.8
<b>Figuring out what?s important in life requires learning a lot of facts.,Highly disagree,10/150,Somewhat agree,3,1698178528296,1698178530846,\Somewhat agree\,\Somewhat agree\,\3\,1698178530063,1698178530063,1767,1767,2550,buq,qns-item-noham,10,40313,0.0-1.0-0.9
<b>It is difficult for me to remember the last time I was surprised by politics.,Highly disagree,11/150,Highly disagree,1,1698178530848,1698178533874,\Highly disagree\,\Highly disagree\,\1\,1698178533182,1698178533182,2334,2334,3026,buq,qns-item-noham,11,43341,0.0-1.0-0.10
<b>People?s false beliefs are understandable.,Highly disagree,12/150,Somewhat disagree,2,1698178533875,1698178536019,\Somewhat disagree\,\Somewhat disagree\,\2\,1698178535437,1698178535437,1562,1562,2144,buq,qns-item-noham,12,45486,0.0-1.0-0.11
<b>I spend a lot of time trying to be informed about politics.,Highly disagree,13/150,Somewhat agree,3,1698178536021,1698178538071,\Somewhat agree\,\Somewhat agree\,\3\,1698178537555,1698178537555,1534,1534,2050,buq,qns-item-noham,13,47538,0.0-1.0-0.12
<b>I think a lot about whether my beliefs are right.,Highly disagree,14/150,Somewhat agree,3,1698178538073,1698178540254,\Somewhat agree\,\Somewhat agree\,\3\,1698178539534,1698178539534,1461,1461,2181,buq,qns-item-noham,14,49721,0.0-1.0-0.13
<b>Statistics can be pretty misleading sometimes.,Highly disagree,15/150,Highly disagree,1,1698178540256,1698178543091,\Highly disagree\,\Highly disagree\,\1\,1698178542493,1698178542493,2237,2237,2835,buq,qns-item-noham,15,52558,0.0-1.0-0.14
<b>Figuring out what?s true and what?s false takes a lot of time and effort.,Highly disagree,16/150,Somewhat disagree,2,1698178543093,1698178546283,\Somewhat disagree\,\Somewhat disagree\,\2\,1698178545701,1698178545701,2608,2608,3190,buq,qns-item-noham,16,55750,0.0-1.0-0.15
"<b>If a friend does something bad to me, it was likely an error on their part.",Highly disagree,17/150,Somewhat disagree,2,1698178546285,1698178548764,\Somewhat disagree\,\Somewhat disagree\,\2\,1698178548150,1698178548150,1865,1865,2479,buq,qns-item-noham,17,58232,0.0-1.0-0.16
<b>I have lots of beliefs that I?m only sort of sure about.,Highly disagree,18/150,Highly disagree,1,1698178548767,1698178551423,\Highly disagree\,\Highly disagree\,\1\,1698178550817,1698178550817,2050,2050,2656,buq,qns-item-noham,18,60890,0.0-1.0-0.17
"<b>If I go to my favorite restaurant and the food is surprisingly bad, it reminds me there are many disappointments in life.",Highly disagree,19/150,Somewhat agree,3,1698178551425,1698178555012,\Somewhat agree\,\Somewhat agree\,\3\,1698178554364,1698178554364,2939,2939,3587,buq,qns-item-noham,19,64479,0.0-1.0-0.18
<b>Sometimes my beliefs are inconvenient for me.,Highly disagree,20/150,Somewhat agree,3,1698178555014,1698178557138,\Somewhat agree\,\Somewhat agree\,\3\,1698178556459,1698178556459,1445,1445,2124,buq,qns-item-noham,20,66605,0.0-1.0-0.19
<b>Paying attention to multiple news sources is important.,Highly disagree,21/150,Highly agree,4,1698178557140,1698178559475,\Highly agree\,\Highly agree\,\4\,1698178558818,1698178558818,1678,1678,2335,buq,qns-item-noham,21,68942,0.0-1.0-0.20
"<b>If you are paying attention, please select ?Somewhat agree?",Highly disagree,22/150,Somewhat agree,3,1698178559476,1698178562158,\Somewhat agree\,\Somewhat agree\,\3\,1698178561195,1698178561195,1719,1719,2682,buq,qns-item-noham,22,71625,0.0-1.0-0.21
"<b>When I talk to others, I often worry I?ll convince them of something I didn?t mean to.",Highly disagree,23/150,Highly disagree,1,1698178562159,1698178566399,\Somewhat disagree\,\Highly disagree\,\2\,1698178564977,1698178565849,2818,3690,4240,buq,qns-item-noham,23,75866,0.0-1.0-0.22
<b>I would need to learn something utterly shocking about my party in order to change my political views.,Highly disagree,24/150,Somewhat agree,3,1698178566402,1698178569930,\Somewhat agree\,\Somewhat agree\,\3\,1698178569308,1698178569308,2906,2906,3528,buq,qns-item-noham,24,79397,0.0-1.0-0.23
"<b>When I have new experiences, I tend to think of them as unique.",Highly disagree,25/150,Highly agree,4,1698178569932,1698178572614,\Highly agree\,\Highly agree\,\4\,1698178571984,1698178571984,2052,2052,2682,buq,qns-item-noham,25,82081,0.0-1.0-0.24
<b>Reading lots of things is important for understanding the world.,Highly disagree,26/150,Highly agree,4,1698178572616,1698178574852,\Highly agree\,\Highly agree\,\4\,1698178574238,1698178574238,1622,1622,2236,buq,qns-item-noham,26,84320,0.0-1.0-0.25
<b>The world is complicated.,Highly disagree,27/150,Highly agree,4,1698178574854,1698178576590,\Highly agree\,\Highly agree\,\4\,1698178575911,1698178575911,1057,1057,1736,buq,qns-item-noham,27,86057,0.0-1.0-0.26
<b>I change my mind about specific policies pretty frequently.,Highly disagree,28/150,Somewhat disagree,2,1698178576591,1698178579402,\Somewhat disagree\,\Somewhat disagree\,\2\,1698178578708,1698178578708,2117,2117,2811,buq,qns-item-noham,28,88869,0.0-1.0-0.27
"<b>If a politician in my political party supports something I disagree with, I give them the benefit of the doubt, as such issues often involve hidden complexities that aren?t obvious.   ",Highly disagree,29/150,Somewhat disagree,2,1698178579404,1698178584341,\Highly disagree\,\Somewhat disagree\,\1\,1698178583169,1698178583700,3765,4296,4937,buq,qns-item-noham,29,93808,0.0-1.0-0.28
<b>People?s bad politics are usually motivated by hatefulness.,Highly disagree,30/150,Highly agree,4,1698178584343,1698178586522,\Highly agree\,\Highly agree\,\4\,1698178585892,1698178585892,1549,1549,2179,buq,qns-item-noham,30,95989,0.0-1.0-0.29
"<b>Most new experiences are just like old ones, but a little bit different.",Highly disagree,31/150,Somewhat agree,3,1698178586524,1698178588802,\Somewhat agree\,\Somewhat agree\,\3\,1698178588131,1698178588131,1607,1607,2278,buq,qns-item-noham,31,98269,0.0-1.0-0.30
<b>I think a lot about how to reconcile my beliefs with one another.,Highly disagree,32/150,Somewhat disagree,2,1698178588805,1698178590838,\Somewhat disagree\,\Somewhat disagree\,\2\,1698178590295,1698178590295,1490,1490,2033,buq,qns-item-noham,32,100305,0.0-1.0-0.31
<b>Personal experience rarely leads people astray.,Highly disagree,33/150,Somewhat agree,3,1698178590840,1698178593053,\Somewhat agree\,\Somewhat agree\,\3\,1698178592511,1698178592511,1671,1671,2213,buq,qns-item-noham,33,102520,0.0-1.0-0.32
<b>I might have false beliefs about important topics.,Highly disagree,34/150,Somewhat disagree,2,1698178593055,1698178595176,\Somewhat disagree\,\Somewhat disagree\,\2\,1698178594532,1698178594532,1477,1477,2121,buq,qns-item-noham,34,104643,0.0-1.0-0.33
"<b>If a good friend of mine does something unexpected that upsets me, I feel like I don?t know them anymore.",Highly disagree,35/150,Somewhat disagree,2,1698178595178,1698178598450,\Somewhat disagree\,\Somewhat disagree\,\2\,1698178597877,1698178597877,2699,2699,3272,buq,qns-item-noham,35,107918,0.0-1.0-0.34
<b>Other people?s beliefs are often incoherent.,Highly disagree,36/150,Somewhat disagree,2,1698178598452,1698178600511,\Somewhat disagree\,\Somewhat disagree\,\2\,1698178599994,1698178599994,1542,1542,2059,buq,qns-item-noham,36,109978,0.0-1.0-0.35
<b>It?s important to have friends who think about things differently than I do.,Highly disagree,37/150,Somewhat agree,3,1698178600513,1698178602708,\Somewhat agree\,\Somewhat agree\,\3\,1698178602193,1698178602193,1680,1680,2195,buq,qns-item-noham,37,112175,0.0-1.0-0.36
"<b>Every now and then, a new experience will unsettle beliefs I?ve had for a while.",Highly disagree,38/150,Somewhat agree,3,1698178602709,1698178605327,\Somewhat agree\,\Somewhat agree\,\3\,1698178604738,1698178604738,2029,2029,2618,buq,qns-item-noham,38,114794,0.0-1.0-0.37
<b>Some policies I agree with in principle are so bad I don?t support them. ,Highly disagree,39/150,Somewhat disagree,2,1698178605329,1698178608666,\Somewhat disagree\,\Somewhat disagree\,\2\,1698178608141,1698178608141,2812,2812,3337,buq,qns-item-noham,39,118134,0.0-1.0-0.38
<b>I?m pretty sure I?ve accidentally spread false information.,Highly disagree,40/150,Somewhat disagree,2,1698178608669,1698178610723,\Somewhat disagree\,\Somewhat disagree\,\2\,1698178610027,1698178610027,1358,1358,2054,buq,qns-item-noham,40,120190,0.0-1.0-0.39
"<b>If I go to my favorite restaurant and the food is unexpectedly bad, then they have changed owners.",Highly disagree,41/150,Somewhat disagree,2,1698178610725,1698178613579,\Somewhat disagree\,\Somewhat disagree\,\2\,1698178612942,1698178612942,2217,2217,2854,buq,qns-item-noham,41,123046,0.0-1.0-0.40
"<b>In politics, it?s important to trust your friends and family.",Highly disagree,42/150,Highly disagree,1,1698178613581,1698178616263,\Somewhat disagree\,\Highly disagree\,\2\,1698178615083,1698178615696,1502,2115,2682,buq,qns-item-noham,42,125730,0.0-1.0-0.41
<b>It?s OK to have some conflicting beliefs.,Highly disagree,43/150,Somewhat agree,3,1698178616265,1698178618145,\Somewhat agree\,\Somewhat agree\,\3\,1698178617628,1698178617628,1363,1363,1880,buq,qns-item-noham,43,127612,0.0-1.0-0.42
<b>Sometimes the details of a matter seem to conflict with the big picture.,Highly disagree,44/150,Somewhat agree,3,1698178618147,1698178620401,\Somewhat agree\,\Somewhat agree\,\3\,1698178619601,1698178619601,1454,1454,2254,buq,qns-item-noham,44,129868,0.0-1.0-0.43
<b>Listening to people I disagree with makes my opinions better.,Highly disagree,45/150,Somewhat agree,3,1698178620403,1698178623376,\Somewhat agree\,\Somewhat agree\,\3\,1698178622616,1698178622616,2213,2213,2973,buq,qns-item-noham,45,132843,0.0-1.0-0.44
<b>Policies that sound bad are sometimes fine when you find out about their details.,Highly disagree,46/150,Somewhat disagree,2,1698178623378,1698178626524,\Somewhat disagree\,\Somewhat disagree\,\2\,1698178625855,1698178625855,2477,2477,3146,buq,qns-item-noham,46,135991,0.0-1.0-0.45
"<b>The world is always changing, so my beliefs are sometimes out-dated.",Highly disagree,47/150,Somewhat agree,3,1698178626525,1698178629751,\Somewhat agree\,\Somewhat agree\,\3\,1698178629210,1698178629210,2685,2685,3226,buq,qns-item-noham,47,139218,0.0-1.0-0.46
"<b>If I receive a bad meal at my favorite restaurant and the food is surprisingly bad, I do not think much of it, and assume the chef is just having an ?off? day.",Highly disagree,48/150,Highly agree,4,1698178629753,1698178634592,\Highly agree\,\Highly agree\,\4\,1698178633258,1698178633258,3505,3505,4839,buq,qns-item-noham,48,144059,0.0-1.0-0.47
"<b>False information is unavoidable, to some extent.",Highly disagree,49/150,Highly agree,4,1698178634596,1698178637275,\Somewhat agree\,\Highly agree\,\3\,1698178635933,1698178636717,1337,2121,2679,buq,qns-item-noham,49,146742,0.0-1.0-0.48
<b>My moral compass sometimes makes it harder to determine what?s true.,Highly disagree,50/150,Somewhat agree,3,1698178637278,1698178640474,\Somewhat agree\,\Somewhat agree\,\3\,1698178639860,1698178639860,2582,2582,3196,buq,qns-item-noham,50,149941,0.0-1.0-0.49
"<b>When you disagree with someone, it?s important to listen to them carefully.",Highly disagree,51/150,Somewhat agree,3,1698178640476,1698178642549,\Somewhat agree\,\Somewhat agree\,\3\,1698178641808,1698178641808,1332,1332,2073,buq,qns-item-noham,51,152016,0.0-1.0-0.50
<b>Evidence pointing in the wrong direction isn?t really evidence at all.,Highly disagree,52/150,Somewhat disagree,2,1698178642550,1698178646431,\Somewhat disagree\,\Somewhat disagree\,\2\,1698178645258,1698178645258,2708,2708,3881,buq,qns-item-noham,52,155898,0.0-1.0-0.51
"<b>If the political party I support messes up, it makes me think politics is rotten.",Highly disagree,53/150,Highly agree,4,1698178646434,1698178650042,\Highly agree\,\Highly agree\,\4\,1698178649251,1698178649251,2817,2817,3608,buq,qns-item-noham,53,159509,0.0-1.0-0.52
<b>Lots of important topics can only really be understood by some groups of people.,Highly disagree,54/150,Highly disagree,1,1698178650044,1698178653445,\Highly disagree\,\Highly disagree\,\1\,1698178652783,1698178652783,2739,2739,3401,buq,qns-item-noham,54,162912,0.0-1.0-0.53
<b>Details almost always matter for being right about something.,Highly disagree,55/150,Somewhat agree,3,1698178653446,1698178656574,\Somewhat agree\,\Somewhat agree\,\3\,1698178656019,1698178656019,2573,2573,3128,buq,qns-item-noham,55,166041,0.0-1.0-0.54
"<b>The most important thing in politics is winning, not convincing people.",Highly disagree,56/150,Highly disagree,1,1698178656575,1698178658858,\Highly disagree\,\Highly disagree\,\1\,1698178658199,1698178658199,1624,1624,2283,buq,qns-item-noham,56,168325,0.0-1.0-0.55
<b>Having conflicting beliefs means you haven?t thought about them enough.,Highly disagree,57/150,Somewhat disagree,2,1698178658859,1698178661737,\Somewhat disagree\,\Somewhat disagree\,\2\,1698178661084,1698178661084,2225,2225,2878,buq,qns-item-noham,57,171204,0.0-1.0-0.56
<b>Other people have sometimes convinced me to change my mind on important topics.,Highly disagree,58/150,Highly agree,4,1698178661738,1698178664867,\Somewhat agree\,\Highly agree\,\3\,1698178663461,1698178664163,1723,2425,3129,buq,qns-item-noham,58,174334,0.0-1.0-0.57
<b>I do not often change my political opinions.,Highly disagree,59/150,Somewhat agree,3,1698178664869,1698178667453,\Somewhat disagree\,\Somewhat agree\,\2\,1698178665990,1698178666895,1121,2026,2584,buq,qns-item-noham,59,176920,0.0-1.0-0.58
<b>Thinking about how different things relate to one another is critical in life.,Highly disagree,60/150,Highly agree,4,1698178667455,1698178669917,\Highly agree\,\Highly agree\,\4\,1698178669215,1698178669215,1760,1760,2462,buq,qns-item-noham,60,179384,0.0-1.0-0.59
<b>True beliefs can have unfortunate implications.,Highly disagree,61/150,Somewhat agree,3,1698178669919,1698178673337,\Somewhat disagree\,\Somewhat agree\,\2\,1698178671898,1698178672496,1979,2577,3418,buq,qns-item-noham,61,182804,0.0-1.0-0.60
<b>It?s difficult to not have at least some conflicting beliefs.,Highly disagree,62/150,Somewhat agree,3,1698178673340,1698178675339,\Somewhat agree\,\Somewhat agree\,\3\,1698178674621,1698178674621,1281,1281,1999,buq,qns-item-noham,62,184806,0.0-1.0-0.61
"<b>When I learn new things, I think deeply about how my opinions should change.",Highly disagree,63/150,Somewhat agree,3,1698178675340,1698178677424,\Somewhat agree\,\Somewhat agree\,\3\,1698178676884,1698178676884,1544,1544,2084,buq,qns-item-noham,63,186891,0.0-1.0-0.62
<b>I think a lot about how to interpret different sorts of evidence.,Highly disagree,64/150,Somewhat agree,3,1698178677426,1698178680335,\Somewhat agree\,\Somewhat agree\,\3\,1698178679753,1698178679753,2327,2327,2909,buq,qns-item-noham,64,189802,0.0-1.0-0.63
<b>Politics is about thinking together and finding compromises.,Highly disagree,65/150,Somewhat disagree,2,1698178680342,1698178683211,\Somewhat disagree\,\Somewhat disagree\,\2\,1698178682162,1698178682162,1820,1820,2869,buq,qns-item-noham,65,192678,0.0-1.0-0.64
<b>Wishful thinking causes a lot of problems.,Highly disagree,66/150,Highly agree,4,1698178683228,1698178685049,\Highly agree\,\Highly agree\,\4\,1698178684513,1698178684513,1285,1285,1821,buq,qns-item-noham,66,194516,0.0-1.0-0.65
<b>I judge a food item only once I try it many times.,Highly disagree,67/150,Somewhat disagree,2,1698178685051,1698178687518,\Somewhat disagree\,\Somewhat disagree\,\2\,1698178687002,1698178687002,1951,1951,2467,buq,qns-item-noham,67,196985,0.0-1.0-0.66
"<b>When a person holds conflicting beliefs, they should really try to figure out what?s wrong.",Highly disagree,68/150,Somewhat agree,3,1698178687520,1698178690185,\Somewhat agree\,\Somewhat agree\,\3\,1698178689523,1698178689523,2003,2003,2665,buq,qns-item-noham,68,199652,0.0-1.0-0.67
<b>Knowing what?s important in life is easy.,Highly disagree,69/150,Somewhat disagree,2,1698178690187,1698178692368,\Somewhat disagree\,\Somewhat disagree\,\2\,1698178691835,1698178691835,1648,1648,2181,buq,qns-item-noham,69,201835,0.0-1.0-0.68
<b>Lots of smart people disagree about basic political questions.,Highly disagree,70/150,Somewhat agree,3,1698178692369,1698178694421,\Somewhat agree\,\Somewhat agree\,\3\,1698178693782,1698178693782,1413,1413,2052,buq,qns-item-noham,70,203888,0.0-1.0-0.69
<b>I swim across the Atlantic Ocean to get to work every day.,Highly disagree,71/150,Highly disagree,1,1698178694423,1698178697759,\Highly disagree\,\Highly disagree\,\1\,1698178696371,1698178696371,1948,1948,3336,buq,qns-item-noham,71,207226,0.0-1.0-0.70
"<b>Sometimes, you just have to ignore evidence that you know is wrong.",Highly disagree,72/150,Somewhat disagree,2,1698178697761,1698178700824,\Somewhat disagree\,\Somewhat disagree\,\2\,1698178699901,1698178699901,2140,2140,3063,buq,qns-item-noham,72,210291,0.0-1.0-0.71
<b>I have had some false beliefs.,Highly disagree,73/150,Somewhat agree,3,1698178700826,1698178702818,\Somewhat agree\,\Somewhat agree\,\3\,1698178702284,1698178702284,1458,1458,1992,buq,qns-item-noham,73,212285,0.0-1.0-0.72
"<b>If one friend does something that upsets me, I sometimes start to distrust people in general.",Highly disagree,74/150,Somewhat agree,3,1698178702820,1698178706025,\Somewhat agree\,\Somewhat agree\,\3\,1698178705403,1698178705403,2583,2583,3205,buq,qns-item-noham,74,215492,0.0-1.0-0.73
<b>I easily apply what I learn in one situation to another.,Highly disagree,75/150,Highly agree,4,1698178706026,1698178708407,\Highly agree\,\Highly agree\,\4\,1698178707812,1698178707812,1786,1786,2381,buq,qns-item-noham,75,217874,0.0-1.0-0.74
<b>The facts about most important matters are easy to find.,Highly disagree,76/150,Highly agree,4,1698178708409,1698178710350,\Highly agree\,\Highly agree\,\4\,1698178709768,1698178709768,1359,1359,1941,buq,qns-item-noham,76,219817,0.0-1.0-0.75
<b>It?s better to know what?s true than to know what?s moral.,Highly disagree,77/150,Somewhat agree,3,1698178710352,1698178713179,\Somewhat agree\,\Somewhat agree\,\3\,1698178712573,1698178712573,2221,2221,2827,buq,qns-item-noham,77,222646,0.0-1.0-0.76
<b>It?s good to be skeptical of people you agree with.,Highly disagree,78/150,Somewhat agree,3,1698178713181,1698178715062,\Somewhat agree\,\Somewhat agree\,\3\,1698178714471,1698178714471,1290,1290,1881,buq,qns-item-noham,78,224529,0.0-1.0-0.77
<b>Sometimes reasonable beliefs are wrong.,Highly disagree,79/150,Somewhat agree,3,1698178715064,1698178717125,\Somewhat agree\,\Somewhat agree\,\3\,1698178716436,1698178716436,1372,1372,2061,buq,qns-item-noham,79,226592,0.0-1.0-0.78
<b>I used to think the world was less complicated than I do now.,Highly disagree,80/150,Highly agree,4,1698178717126,1698178719200,\Highly agree\,\Highly agree\,\4\,1698178718546,1698178718546,1420,1420,2074,buq,qns-item-noham,80,228667,0.0-1.0-0.79
<b>People are usually completely right or completely wrong.,Highly disagree,81/150,Somewhat disagree,2,1698178719202,1698178721559,\Somewhat disagree\,\Somewhat disagree\,\2\,1698178720888,1698178720888,1686,1686,2357,buq,qns-item-noham,81,231026,0.0-1.0-0.80
<b>I spend a lot of time considering alternatives to my beliefs.,Highly disagree,82/150,Somewhat disagree,2,1698178721561,1698178724081,\Somewhat disagree\,\Somewhat disagree\,\2\,1698178723491,1698178723491,1930,1930,2520,buq,qns-item-noham,82,233548,0.0-1.0-0.81
"<b>Political enemies need to be defeated, not convinced.",Highly disagree,83/150,Highly disagree,1,1698178724083,1698178728299,\Highly disagree\,\Highly disagree\,\1\,1698178727687,1698178727687,3604,3604,4216,buq,qns-item-noham,83,237766,0.0-1.0-0.82
"<b>When forming an opinion about a restaurant, I am more swayed by my  latest meal there than  previous meals I?ve had there.",Highly disagree,84/150,Somewhat disagree,2,1698178728301,1698178732547,\Somewhat disagree\,\Somewhat disagree\,\2\,1698178731784,1698178731784,3483,3483,4246,buq,qns-item-noham,84,242014,0.0-1.0-0.83
<b>I try to remain skeptical about most topics.,Highly disagree,85/150,Somewhat agree,3,1698178732548,1698178734256,\Somewhat agree\,\Somewhat agree\,\3\,1698178733690,1698178733690,1142,1142,1708,buq,qns-item-noham,85,243723,0.0-1.0-0.84
<b>Being wrong is usually obvious in retrospect.,Highly disagree,86/150,Somewhat agree,3,1698178734258,1698178736552,\Somewhat agree\,\Somewhat agree\,\3\,1698178736034,1698178736034,1776,1776,2294,buq,qns-item-noham,86,246019,0.0-1.0-0.85
<b>It can be hard to realize that my beliefs are in conflict.,Highly disagree,87/150,Somewhat agree,3,1698178736554,1698178738580,\Somewhat agree\,\Somewhat agree\,\3\,1698178737990,1698178737990,1436,1436,2026,buq,qns-item-noham,87,248047,0.0-1.0-0.86
<b>I form my political views only after meticulously gathering historical and present information about their policies.,Highly disagree,88/150,Somewhat disagree,2,1698178738581,1698178741485,\Somewhat disagree\,\Somewhat disagree\,\2\,1698178740875,1698178740875,2294,2294,2904,buq,qns-item-noham,88,250952,0.0-1.0-0.87
<b>Skeptical people are usually just bad-tempered.,Highly disagree,89/150,Somewhat disagree,2,1698178741486,1698178743784,\Somewhat disagree\,\Somewhat disagree\,\2\,1698178743219,1698178743219,1733,1733,2298,buq,qns-item-noham,89,253251,0.0-1.0-0.88
<b>It is difficult for me to remember the last time I was surprised by politics.,Highly disagree,90/150,Somewhat disagree,2,1698178743786,1698178748003,\Somewhat disagree\,\Somewhat disagree\,\2\,1698178746597,1698178746597,2811,2811,4217,buq,qns-item-noham,90,257471,0.0-1.0-0.89
"<b>When I find out I?m wrong, I think a lot about my related beliefs.",Highly disagree,91/150,Somewhat agree,3,1698178748006,1698178750241,\Somewhat agree\,\Somewhat agree\,\3\,1698178749628,1698178749628,1622,1622,2235,buq,qns-item-noham,91,259708,0.0-1.0-0.90
"<b>If the political party I support messes up, it makes me think you can?t trust anyone these days",Highly disagree,92/150,Somewhat agree,3,1698178750242,1698178753025,\Somewhat agree\,\Somewhat agree\,\3\,1698178752391,1698178752391,2149,2149,2783,buq,qns-item-noham,92,262492,0.0-1.0-0.91
<b>People?s brains turn off when they talk about politics.,Highly disagree,93/150,Highly agree,4,1698178753027,1698178756092,\Highly agree\,\Highly agree\,\4\,1698178755462,1698178755462,2435,2435,3065,buq,qns-item-noham,93,265559,0.0-1.0-0.92
<b>People who are wrong are usually just ignoring the obvious.,Highly disagree,94/150,Somewhat agree,3,1698178756094,1698178760376,\Somewhat disagree\,\Somewhat agree\,\2\,1698178757733,1698178759786,1639,3692,4282,buq,qns-item-noham,94,269844,0.0-1.0-0.93
"<b>The world isn?t that complicated, but it?s still hard to figure out how it works.",Highly disagree,95/150,Somewhat disagree,2,1698178760379,1698178763185,\Somewhat disagree\,\Somewhat disagree\,\2\,1698178762606,1698178762606,2227,2227,2806,buq,qns-item-noham,95,272652,0.0-1.0-0.94
"<b>When forming my views on people, I rely more on what they are like now rather than rely on my past experience with them.",Highly disagree,96/150,Highly disagree,1,1698178763187,1698178767439,\Highly disagree\,\Highly disagree\,\1\,1698178766713,1698178766713,3526,3526,4252,buq,qns-item-noham,96,276906,0.0-1.0-0.95
"<b>When people contradict my beliefs, I usually know about their evidence already.",Highly disagree,97/150,Somewhat agree,3,1698178767441,1698178769898,\Somewhat agree\,\Somewhat agree\,\3\,1698178769016,1698178769016,1575,1575,2457,buq,qns-item-noham,97,279365,0.0-1.0-0.96
<b>Being wrong is a matter of degree.,Highly disagree,98/150,Somewhat disagree,2,1698178769899,1698178771868,\Somewhat disagree\,\Somewhat disagree\,\2\,1698178771359,1698178771359,1460,1460,1969,buq,qns-item-noham,98,281335,0.0-1.0-0.97
<b>Figuring out what?s true and what?s false mainly requires a strong moral compass.,Highly disagree,99/150,Somewhat agree,3,1698178771870,1698178774754,\Somewhat agree\,\Somewhat agree\,\3\,1698178773558,1698178773558,1688,1688,2884,buq,qns-item-noham,99,284221,0.0-1.0-0.98
<b>Most of the beliefs people have are at least somewhat understandable.,Highly disagree,100/150,Somewhat agree,3,1698178774756,1698178777291,\Somewhat agree\,\Somewhat agree\,\3\,1698178776499,1698178776499,1743,1743,2535,buq,qns-item-noham,100,286758,0.0-1.0-0.99
"<b>Usually I?m wrong about simple things, not complicated ones.",Highly disagree,101/150,Somewhat agree,3,1698178777292,1698178779547,\Somewhat agree\,\Somewhat agree\,\3\,1698178778754,1698178778754,1462,1462,2255,buq,qns-item-noham,101,289014,0.0-1.0-0.100
<b>Getting all the information I want about important things is hard.,Highly disagree,102/150,Highly agree,4,1698178779550,1698178781931,\Highly agree\,\Highly agree\,\4\,1698178781244,1698178781244,1694,1694,2381,buq,qns-item-noham,102,291398,0.0-1.0-0.101
<b>Most false beliefs spread because people try to deceive one another.,Highly disagree,103/150,Highly agree,4,1698178781933,1698178783878,\Highly agree\,\Highly agree\,\4\,1698178783247,1698178783247,1314,1314,1945,buq,qns-item-noham,103,293345,0.0-1.0-0.102
<b>I can usually find something to agree with in most people?s beliefs.,Highly disagree,104/150,Somewhat disagree,2,1698178783879,1698178786270,\Somewhat disagree\,\Somewhat disagree\,\2\,1698178785730,1698178785730,1851,1851,2391,buq,qns-item-noham,104,295737,0.0-1.0-0.103
<b>I only form my views of people once I get to know them very well.,Highly disagree,105/150,Somewhat agree,3,1698178786272,1698178788532,\Somewhat agree\,\Somewhat agree\,\3\,1698178788025,1698178788025,1753,1753,2260,buq,qns-item-noham,105,297999,0.0-1.0-0.104
"<b>When people tell me important things about the world, I usually believe them.",Highly disagree,106/150,Somewhat disagree,2,1698178788533,1698178790803,\Somewhat disagree\,\Somewhat disagree\,\2\,1698178790158,1698178790158,1625,1625,2270,buq,qns-item-noham,106,300270,0.0-1.0-0.105
"<b>If a friend does something that upsets me, it reminds me what an unpredictable place the world is.",Highly disagree,107/150,Somewhat agree,3,1698178790805,1698178793002,\Somewhat agree\,\Somewhat agree\,\3\,1698178792388,1698178792388,1583,1583,2197,buq,qns-item-noham,107,302469,0.0-1.0-0.106
<b>Having some conflicting beliefs is inevitable.,Highly disagree,108/150,Somewhat agree,3,1698178793003,1698178794724,\Somewhat agree\,\Somewhat agree\,\3\,1698178794117,1698178794117,1114,1114,1721,buq,qns-item-noham,108,304191,0.0-1.0-0.107
<b>People are wrong because they haven?t thought much about things.,Highly disagree,109/150,Somewhat disagree,2,1698178794726,1698178796822,\Somewhat disagree\,\Somewhat disagree\,\2\,1698178796292,1698178796292,1566,1566,2096,buq,qns-item-noham,109,306289,0.0-1.0-0.108
<b>People tend to believe whatever is good for their friends.,Highly disagree,110/150,Somewhat agree,3,1698178796824,1698178798748,\Somewhat agree\,\Somewhat agree\,\3\,1698178798150,1698178798150,1326,1326,1924,buq,qns-item-noham,110,308215,0.0-1.0-0.109
"<b>When I talk about important topics, I try to make sure people know I?m not always right.",Highly disagree,111/150,Somewhat agree,3,1698178798750,1698178801407,\Somewhat agree\,\Somewhat agree\,\3\,1698178800720,1698178800720,1970,1970,2657,buq,qns-item-noham,111,310874,0.0-1.0-0.110
<b>I used to be more certain my beliefs were true.,Highly disagree,112/150,Somewhat agree,3,1698178801408,1698178804212,\Somewhat agree\,\Somewhat agree\,\3\,1698178803658,1698178803658,2250,2250,2804,buq,qns-item-noham,112,313679,0.0-1.0-0.111
<b>It?s often pretty easy to figure out whether something is true based on who said it.,Highly disagree,113/150,Somewhat disagree,2,1698178804214,1698178807642,\Somewhat disagree\,\Somewhat disagree\,\2\,1698178807008,1698178807008,2794,2794,3428,buq,qns-item-noham,113,317109,0.0-1.0-0.112
<b>Having bad food in my favorite restaurant will make me think the restaurant is no longer good.,Highly disagree,114/150,Somewhat disagree,2,1698178807643,1698178810750,\Somewhat disagree\,\Somewhat disagree\,\2\,1698178810055,1698178810055,2412,2412,3107,buq,qns-item-noham,114,320217,0.0-1.0-0.113
<b>I transform into a hummingbird every day.,Highly disagree,115/150,Highly disagree,1,1698178810751,1698178812843,\Highly disagree\,\Highly disagree\,\1\,1698178812158,1698178812158,1407,1407,2092,buq,qns-item-noham,115,322310,0.0-1.0-0.114
"<b>Unfortunately, when people are wrong, it?s usually because they?re bad.",Highly disagree,116/150,Somewhat disagree,2,1698178812845,1698178815308,\Somewhat disagree\,\Somewhat disagree\,\2\,1698178814565,1698178814565,1720,1720,2463,buq,qns-item-noham,116,324776,0.0-1.0-0.115
<b>I think a lot about arguments against my views.,Highly disagree,117/150,Somewhat agree,3,1698178815311,1698178817458,\Somewhat agree\,\Somewhat agree\,\3\,1698178816860,1698178816860,1549,1549,2147,buq,qns-item-noham,117,326925,0.0-1.0-0.116
<b>Details tend to matter a lot for knowing whether a policy is good.,Highly disagree,118/150,Highly agree,4,1698178817460,1698178821055,\Somewhat agree\,\Highly agree\,\3\,1698178819923,1698178820515,2463,3055,3595,buq,qns-item-noham,118,330522,0.0-1.0-0.117
<b>Personal experience is usually more important than facts and figures.,Highly disagree,119/150,Somewhat agree,3,1698178821058,1698178823842,\Somewhat agree\,\Somewhat agree\,\3\,1698178823319,1698178823319,2261,2261,2784,buq,qns-item-noham,119,333309,0.0-1.0-0.118
<b>I?ve been tricked before about important matters.,Highly disagree,120/150,Highly agree,4,1698178823844,1698178826170,\Highly agree\,\Highly agree\,\4\,1698178825364,1698178825364,1520,1520,2326,buq,qns-item-noham,120,335637,0.0-1.0-0.119
<b>I would need to be totally wowed if I were to change my opinion of a restaurant I don?t like.,Highly disagree,121/150,Somewhat agree,3,1698178826172,1698178828773,\Somewhat agree\,\Somewhat agree\,\3\,1698178828239,1698178828239,2067,2067,2601,buq,qns-item-noham,121,338240,0.0-1.0-0.120
<b>I care a lot about politics.,Highly disagree,122/150,Somewhat agree,3,1698178828775,1698178830389,\Somewhat agree\,\Somewhat agree\,\3\,1698178829880,1698178829880,1105,1105,1614,buq,qns-item-noham,122,339856,0.0-1.0-0.121
<b>People with conflicting beliefs usually have some facts they disagree on.,Highly disagree,123/150,Somewhat agree,3,1698178830391,1698178832636,\Somewhat agree\,\Somewhat agree\,\3\,1698178831956,1698178831956,1565,1565,2245,buq,qns-item-noham,123,342103,0.0-1.0-0.122
<b>There are some topics I?ve been really wrong about.,Highly disagree,124/150,Somewhat agree,3,1698178832637,1698178834518,\Somewhat agree\,\Somewhat agree\,\3\,1698178833977,1698178833977,1340,1340,1881,buq,qns-item-noham,124,343986,0.0-1.0-0.123
<b>Most beliefs can be supported with at least some evidence.,Highly disagree,125/150,Somewhat agree,3,1698178834521,1698178836915,\Somewhat agree\,\Somewhat agree\,\3\,1698178836321,1698178836321,1800,1800,2394,buq,qns-item-noham,125,346382,0.0-1.0-0.124
<b>Other people make life out to be more complicated than it really is.,Highly disagree,126/150,Somewhat disagree,2,1698178836917,1698178839344,\Somewhat disagree\,\Somewhat disagree\,\2\,1698178838713,1698178838713,1796,1796,2427,buq,qns-item-noham,126,348811,0.0-1.0-0.125
"<b>My political views are being shaped continuously as I gather more information, rather than relying on what I?ve known to be true of my party in the past. ",Highly disagree,127/150,Highly agree,4,1698178839347,1698178842528,\Highly agree\,\Highly agree\,\4\,1698178841396,1698178841396,2049,2049,3181,buq,qns-item-noham,127,351995,0.0-1.0-0.126
<b>It?s pretty unusual for true things to seem false.,Highly disagree,128/150,Somewhat disagree,2,1698178842531,1698178844997,\Somewhat disagree\,\Somewhat disagree\,\2\,1698178844127,1698178844127,1596,1596,2466,buq,qns-item-noham,128,354464,0.0-1.0-0.127
"<b>Policy details don?t matter much, just the big picture.",Highly disagree,129/150,Somewhat disagree,2,1698178844999,1698178846933,\Somewhat disagree\,\Somewhat disagree\,\2\,1698178846398,1698178846398,1399,1399,1934,buq,qns-item-noham,129,356400,0.0-1.0-0.128
<b>I know my friends so well they can hardly ever surprise me.,Highly disagree,130/150,Somewhat agree,3,1698178846935,1698178848767,\Somewhat agree\,\Somewhat agree\,\3\,1698178848193,1698178848193,1258,1258,1832,buq,qns-item-noham,130,358234,0.0-1.0-0.129
"<b>When I talk to people, I often think about why they have the beliefs they do.",Highly disagree,131/150,Somewhat agree,3,1698178848770,1698178856036,\Somewhat agree\,\Somewhat agree\,\3\,1698178855349,1698178855349,6579,6579,7266,buq,qns-item-noham,131,365503,0.0-1.0-0.130
<b>I do not often change my views on people.,Highly disagree,132/150,Somewhat agree,3,1698178856037,1698178858470,\Somewhat agree\,\Somewhat agree\,\3\,1698178857920,1698178857920,1883,1883,2433,buq,qns-item-noham,132,367937,0.0-1.0-0.131
<b>I often wish I had more time to spend figuring out what?s true and what?s false in life.,Highly disagree,133/150,Somewhat disagree,2,1698178858472,1698178861517,\Somewhat disagree\,\Somewhat disagree\,\2\,1698178860740,1698178860740,2268,2268,3045,buq,qns-item-noham,133,370984,0.0-1.0-0.132
<b>I?m more certain about my beliefs than I used to be.,Highly disagree,134/150,Somewhat disagree,2,1698178861518,1698178863622,\Somewhat disagree\,\Somewhat disagree\,\2\,1698178862995,1698178862995,1477,1477,2104,buq,qns-item-noham,134,373090,0.0-1.0-0.133
"<b>Whenever I find out new information, I update my views on politics accordingly.",Highly disagree,135/150,Somewhat agree,3,1698178863624,1698178866039,\Somewhat agree\,\Somewhat agree\,\3\,1698178865412,1698178865412,1788,1788,2415,buq,qns-item-noham,135,375506,0.0-1.0-0.134
<b>People often tell falsehoods unintentionally.,Highly disagree,136/150,Highly agree,4,1698178866040,1698178868622,\Highly agree\,\Highly agree\,\4\,1698178867780,1698178867780,1740,1740,2582,buq,qns-item-noham,136,378089,0.0-1.0-0.135
<b>Most people don?t know much about most things.,Highly disagree,137/150,Highly agree,4,1698178868624,1698178871297,\Somewhat agree\,\Highly agree\,\3\,1698178870132,1698178870600,1508,1976,2673,buq,qns-item-noham,137,380764,0.0-1.0-0.136
"<b>If I find out something new about someone, I easily change my views about them.",Highly disagree,138/150,Somewhat agree,3,1698178871300,1698178873486,\Somewhat agree\,\Somewhat agree\,\3\,1698178872896,1698178872896,1596,1596,2186,buq,qns-item-noham,138,382953,0.0-1.0-0.137
<b>Having true beliefs is difficult.,Highly disagree,139/150,Somewhat disagree,2,1698178873488,1698178875401,\Somewhat disagree\,\Somewhat disagree\,\2\,1698178874787,1698178874787,1299,1299,1913,buq,qns-item-noham,139,384869,0.0-1.0-0.138
<b>I don?t try new foods since I know I won?t like them.,Highly disagree,140/150,Somewhat disagree,2,1698178875403,1698178877789,\Somewhat disagree\,\Somewhat disagree\,\2\,1698178877139,1698178877139,1736,1736,2386,buq,qns-item-noham,140,387256,0.0-1.0-0.139
<b>It?s easy to figure out what?s true or false based on who?s saying it.,Highly disagree,141/150,Somewhat disagree,2,1698178877791,1698178879998,\Somewhat disagree\,\Somewhat disagree\,\2\,1698178879453,1698178879453,1662,1662,2207,buq,qns-item-noham,141,389465,0.0-1.0-0.140
<b>False things have seemed true to me many times.,Highly disagree,142/150,Somewhat agree,3,1698178879999,1698178882106,\Somewhat agree\,\Somewhat agree\,\3\,1698178881406,1698178881406,1407,1407,2107,buq,qns-item-noham,142,391573,0.0-1.0-0.141
<b>It?s pretty easy to sort out what?s true and what?s false in life.,Highly disagree,143/150,Somewhat disagree,2,1698178882107,1698178884041,\Somewhat disagree\,\Somewhat disagree\,\2\,1698178883525,1698178883525,1418,1418,1934,buq,qns-item-noham,143,393508,0.0-1.0-0.142
<b>Knowing lots of statistics about something is usually important for understanding it.,Highly disagree,144/150,Somewhat agree,3,1698178884042,1698178886174,\Somewhat agree\,\Somewhat agree\,\3\,1698178885383,1698178885383,1341,1341,2132,buq,qns-item-noham,144,395641,0.0-1.0-0.143
<b>Other people trick each other a lot.,Highly disagree,145/150,Highly agree,4,1698178886175,1698178888373,\Highly agree\,\Highly agree\,\4\,1698178887735,1698178887735,1560,1560,2198,buq,qns-item-noham,145,397840,0.0-1.0-0.144
<b>I would need to learn a lot about a person for my opinion of them to be swayed.,Highly disagree,146/150,Somewhat agree,3,1698178888375,1698178890587,\Somewhat agree\,\Somewhat agree\,\3\,1698178890087,1698178890087,1712,1712,2212,buq,qns-item-noham,146,400054,0.0-1.0-0.145
<b>People can?t usually trick me when it comes to topics I care about.,Highly disagree,147/150,Somewhat agree,3,1698178890589,1698178893330,\Somewhat agree\,\Somewhat agree\,\3\,1698178892803,1698178892803,2214,2214,2741,buq,qns-item-noham,147,402797,0.0-1.0-0.146
<b>I do not often change my views on food.,Highly disagree,148/150,Somewhat agree,3,1698178893331,1698178895802,\Somewhat agree\,\Somewhat agree\,\3\,1698178894920,1698178894920,1589,1589,2471,buq,qns-item-noham,148,405269,0.0-1.0-0.147
<b>Specific policies are often very important to me.,Highly disagree,149/150,Somewhat agree,3,1698178895803,1698178897831,\Somewhat agree\,\Somewhat agree\,\3\,1698178897312,1698178897312,1509,1509,2028,buq,qns-item-noham,149,407298,0.0-1.0-0.148
<b>Most people are woefully under-informed.,Highly disagree,150/150,Highly agree,4,1698178897832,1698178899883,\Highly agree\,\Highly agree\,\4\,1698178899310,1698178899310,1478,1478,2051,buq,qns-item-noham,150,409350,0.0-1.0-0.149
