Question,qns_options,quest_num,answer,answer_num,question_load_timestamp,next_btn_timestamp,text_selected,final_text_selected,option_num_selected,preview_timestamps,final_text_selected_time_stamp,rt_first_option_click,rt_final_option_click,rt_submit_click,questionnaire,trial_type,trial_index,time_elapsed,internal_node_id
<b>Considering other people?s perspectives can help us figure out what?s true or false.,Highly disagree,1/150,Somewhat agree,3,1698179830487,1698179838588,\Somewhat agree\,\Somewhat agree\,\3\,1698179837297,1698179837297,6810,6810,8101,buq,qns-item-noham,1,13325,0.0-1.0-0.0
<b>Knowing what?s true and knowing what to do about it are usually basically the same.,Highly disagree,2/150,Somewhat disagree,2,1698179838590,1698179847080,\Somewhat disagree\,\Somewhat disagree\,\2\,1698179846457,1698179846457,7867,7867,8490,buq,qns-item-noham,2,21818,0.0-1.0-0.1
<b>Most people just believe whatever is convenient for them.,Highly disagree,3/150,Somewhat agree,3,1698179847086,1698179850616,\Somewhat agree\,\Somewhat agree\,\3\,1698179849796,1698179849796,2710,2710,3530,buq,qns-item-noham,3,25353,0.0-1.0-0.2
<b>Even people who are wrong about most things can be right sometimes.,Highly disagree,4/150,Somewhat agree,3,1698179850619,1698179856910,\Somewhat agree\,\Somewhat agree\,\3\,1698179856389,1698179856389,5770,5770,6291,buq,qns-item-noham,4,31647,0.0-1.0-0.3
"<b>If the political party I support does something that upsets me, then the party may have changed, and I need to re-evaluate my support.",Highly disagree,5/150,Somewhat agree,3,1698179856913,1698179862616,\Somewhat agree\,\Somewhat agree\,\3\,1698179861985,1698179861985,5072,5072,5703,buq,qns-item-noham,5,37353,0.0-1.0-0.4
"<b>When people disagree, one side is usually completely right.",Highly disagree,6/150,Somewhat disagree,2,1698179862618,1698179865844,\Somewhat disagree\,\Somewhat disagree\,\2\,1698179865156,1698179865156,2538,2538,3226,buq,qns-item-noham,6,40581,0.0-1.0-0.5
<b>People have lots of false beliefs.,Highly disagree,7/150,Highly agree,4,1698179865847,1698179868600,\Highly agree\,\Highly agree\,\4\,1698179868013,1698179868013,2166,2166,2753,buq,qns-item-noham,7,43337,0.0-1.0-0.6
<b>Having some big beliefs helps me sort out minor ones.,Highly disagree,8/150,Somewhat agree,3,1698179868602,1698179871893,\Somewhat agree\,\Somewhat agree\,\3\,1698179871502,1698179871502,2900,2900,3291,buq,qns-item-noham,8,46630,0.0-1.0-0.7
<b>Political questions are usually pretty complicated.,Highly disagree,9/150,Somewhat disagree,2,1698179871897,1698179875314,\Somewhat disagree\,\Somewhat disagree\,\2\,1698179874751,1698179874751,2854,2854,3417,buq,qns-item-noham,9,50051,0.0-1.0-0.8
<b>Figuring out what?s important in life requires learning a lot of facts.,Highly disagree,10/150,Highly agree,4,1698179875316,1698179878486,\Highly agree\,\Highly agree\,\4\,1698179877906,1698179877906,2590,2590,3170,buq,qns-item-noham,10,53223,0.0-1.0-0.9
<b>It is difficult for me to remember the last time I was surprised by politics.,Highly disagree,11/150,Highly disagree,1,1698179878492,1698179883581,\Highly disagree\,\Highly disagree\,\1\,1698179882762,1698179882762,4270,4270,5089,buq,qns-item-noham,11,58318,0.0-1.0-0.10
<b>People?s false beliefs are understandable.,Highly disagree,12/150,Somewhat agree,3,1698179883583,1698179887252,\Somewhat agree\,\Somewhat agree\,\3\,1698179886107,1698179886107,2524,2524,3669,buq,qns-item-noham,12,61989,0.0-1.0-0.11
<b>I spend a lot of time trying to be informed about politics.,Highly disagree,13/150,Somewhat disagree,2,1698179887255,1698179891268,\Somewhat disagree\,\Somewhat disagree\,\2\,1698179890549,1698179890549,3294,3294,4013,buq,qns-item-noham,13,66005,0.0-1.0-0.12
<b>I think a lot about whether my beliefs are right.,Highly disagree,14/150,Somewhat agree,3,1698179891270,1698179893834,\Somewhat agree\,\Somewhat agree\,\3\,1698179893543,1698179893543,2273,2273,2564,buq,qns-item-noham,14,68571,0.0-1.0-0.13
<b>Statistics can be pretty misleading sometimes.,Highly disagree,15/150,Somewhat disagree,2,1698179893837,1698179897028,\Somewhat disagree\,\Somewhat disagree\,\2\,1698179896575,1698179896575,2738,2738,3191,buq,qns-item-noham,15,71765,0.0-1.0-0.14
<b>Figuring out what?s true and what?s false takes a lot of time and effort.,Highly disagree,16/150,Somewhat agree,3,1698179897030,1698179900438,\Somewhat agree\,\Somewhat agree\,\3\,1698179900047,1698179900047,3017,3017,3408,buq,qns-item-noham,16,75175,0.0-1.0-0.15
"<b>If a friend does something bad to me, it was likely an error on their part.",Highly disagree,17/150,Somewhat disagree,2,1698179900440,1698179905345,\Somewhat disagree\,\Somewhat disagree\,\2\,1698179904854,1698179904854,4414,4414,4905,buq,qns-item-noham,17,80082,0.0-1.0-0.16
<b>I have lots of beliefs that I?m only sort of sure about.,Highly disagree,18/150,Somewhat agree,3,1698179905347,1698179909398,\Somewhat agree\,\Somewhat agree\,\3\,1698179908902,1698179908902,3555,3555,4051,buq,qns-item-noham,18,84135,0.0-1.0-0.17
"<b>If I go to my favorite restaurant and the food is surprisingly bad, it reminds me there are many disappointments in life.",Highly disagree,19/150,Somewhat agree,3,1698179909401,1698179914526,\Somewhat agree\,\Somewhat agree\,\3\,1698179914091,1698179914091,4690,4690,5125,buq,qns-item-noham,19,89263,0.0-1.0-0.18
<b>Sometimes my beliefs are inconvenient for me.,Highly disagree,20/150,Somewhat agree,3,1698179914529,1698179916885,\Somewhat agree\,\Somewhat agree\,\3\,1698179916593,1698179916593,2064,2064,2356,buq,qns-item-noham,20,91622,0.0-1.0-0.19
<b>Paying attention to multiple news sources is important.,Highly disagree,21/150,Highly agree,4,1698179916888,1698179920530,\Highly agree\,\Highly agree\,\4\,1698179919889,1698179919889,3001,3001,3642,buq,qns-item-noham,21,95267,0.0-1.0-0.20
"<b>If you are paying attention, please select ?Somewhat agree?",Highly disagree,22/150,Somewhat agree,3,1698179920532,1698179923989,\Somewhat agree\,\Somewhat agree\,\3\,1698179922970,1698179922970,2438,2438,3457,buq,qns-item-noham,22,98726,0.0-1.0-0.21
"<b>When I talk to others, I often worry I?ll convince them of something I didn?t mean to.",Highly disagree,23/150,Somewhat disagree,2,1698179923991,1698179927563,\Somewhat disagree\,\Somewhat disagree\,\2\,1698179927199,1698179927199,3208,3208,3572,buq,qns-item-noham,23,102300,0.0-1.0-0.22
<b>I would need to learn something utterly shocking about my party in order to change my political views.,Highly disagree,24/150,Highly agree,4,1698179927565,1698179932720,\Highly agree\,\Highly agree\,\4\,1698179932050,1698179932050,4485,4485,5155,buq,qns-item-noham,24,107457,0.0-1.0-0.23
"<b>When I have new experiences, I tend to think of them as unique.",Highly disagree,25/150,Highly agree,4,1698179932722,1698179935853,\Highly agree\,\Highly agree\,\4\,1698179935386,1698179935386,2664,2664,3131,buq,qns-item-noham,25,110590,0.0-1.0-0.24
<b>Reading lots of things is important for understanding the world.,Highly disagree,26/150,Highly agree,4,1698179935855,1698179939763,\Highly agree\,\Highly agree\,\4\,1698179939288,1698179939288,3433,3433,3908,buq,qns-item-noham,26,114500,0.0-1.0-0.25
<b>The world is complicated.,Highly disagree,27/150,Highly agree,4,1698179939765,1698179941635,\Highly agree\,\Highly agree\,\4\,1698179941089,1698179941089,1324,1324,1870,buq,qns-item-noham,27,116372,0.0-1.0-0.26
<b>I change my mind about specific policies pretty frequently.,Highly disagree,28/150,Somewhat disagree,2,1698179941638,1698179945455,\Somewhat disagree\,\Somewhat disagree\,\2\,1698179944649,1698179944649,3011,3011,3817,buq,qns-item-noham,28,120192,0.0-1.0-0.27
"<b>If a politician in my political party supports something I disagree with, I give them the benefit of the doubt, as such issues often involve hidden complexities that aren?t obvious.   ",Highly disagree,29/150,Somewhat agree,3,1698179945457,1698179951157,\Somewhat agree\,\Somewhat agree\,\3\,1698179950484,1698179950484,5027,5027,5700,buq,qns-item-noham,29,125894,0.0-1.0-0.28
<b>People?s bad politics are usually motivated by hatefulness.,Highly disagree,30/150,Somewhat agree,3,1698179951160,1698179955882,\Somewhat agree\,\Somewhat agree\,\3\,1698179955075,1698179955075,3915,3915,4722,buq,qns-item-noham,30,130619,0.0-1.0-0.29
"<b>Most new experiences are just like old ones, but a little bit different.",Highly disagree,31/150,Somewhat disagree,2,1698179955885,1698179960072,\Somewhat disagree\,\Somewhat disagree\,\2\,1698179959642,1698179959642,3757,3757,4187,buq,qns-item-noham,31,134809,0.0-1.0-0.30
<b>I think a lot about how to reconcile my beliefs with one another.,Highly disagree,32/150,Somewhat agree,3,1698179960074,1698179963203,\Somewhat agree\,\Somewhat agree\,\3\,1698179962737,1698179962737,2663,2663,3129,buq,qns-item-noham,32,137941,0.0-1.0-0.31
<b>Personal experience rarely leads people astray.,Highly disagree,33/150,Somewhat disagree,2,1698179963205,1698179968374,\Somewhat disagree\,\Somewhat disagree\,\2\,1698179967821,1698179967821,4616,4616,5169,buq,qns-item-noham,33,143111,0.0-1.0-0.32
<b>I might have false beliefs about important topics.,Highly disagree,34/150,Somewhat agree,3,1698179968376,1698179971533,\Somewhat agree\,\Somewhat agree\,\3\,1698179971137,1698179971137,2761,2761,3157,buq,qns-item-noham,34,146270,0.0-1.0-0.33
"<b>If a good friend of mine does something unexpected that upsets me, I feel like I don?t know them anymore.",Highly disagree,35/150,Somewhat agree,3,1698179971535,1698179976768,\Somewhat agree\,\Somewhat agree\,\3\,1698179976316,1698179976316,4781,4781,5233,buq,qns-item-noham,35,151505,0.0-1.0-0.34
<b>Other people?s beliefs are often incoherent.,Highly disagree,36/150,Somewhat agree,3,1698179976771,1698179980454,\Somewhat agree\,\Somewhat agree\,\3\,1698179979647,1698179979647,2876,2876,3683,buq,qns-item-noham,36,155191,0.0-1.0-0.35
<b>It?s important to have friends who think about things differently than I do.,Highly disagree,37/150,Highly agree,4,1698179980458,1698179984125,\Highly agree\,\Highly agree\,\4\,1698179983572,1698179983572,3114,3114,3667,buq,qns-item-noham,37,158862,0.0-1.0-0.36
"<b>Every now and then, a new experience will unsettle beliefs I?ve had for a while.",Highly disagree,38/150,Somewhat agree,3,1698179984127,1698179989172,\Somewhat agree\,\Somewhat agree\,\3\,1698179988555,1698179988555,4428,4428,5045,buq,qns-item-noham,38,163909,0.0-1.0-0.37
<b>Some policies I agree with in principle are so bad I don?t support them. ,Highly disagree,39/150,Somewhat agree,3,1698179989175,1698179994547,\Somewhat agree\,\Somewhat agree\,\3\,1698179993939,1698179993939,4764,4764,5372,buq,qns-item-noham,39,169284,0.0-1.0-0.38
<b>I?m pretty sure I?ve accidentally spread false information.,Highly disagree,40/150,Somewhat agree,3,1698179994549,1698179998523,\Somewhat agree\,\Somewhat agree\,\3\,1698179997611,1698179997611,3062,3062,3974,buq,qns-item-noham,40,173260,0.0-1.0-0.39
"<b>If I go to my favorite restaurant and the food is unexpectedly bad, then they have changed owners.",Highly disagree,41/150,Somewhat disagree,2,1698179998525,1698180005351,\Somewhat disagree\,\Somewhat disagree\,\2\,1698180004846,1698180004846,6321,6321,6826,buq,qns-item-noham,41,180088,0.0-1.0-0.40
"<b>In politics, it?s important to trust your friends and family.",Highly disagree,42/150,Somewhat agree,3,1698180005353,1698180009035,\Somewhat agree\,\Somewhat agree\,\3\,1698180008157,1698180008157,2804,2804,3682,buq,qns-item-noham,42,183772,0.0-1.0-0.41
<b>It?s OK to have some conflicting beliefs.,Highly disagree,43/150,Highly agree,4,1698180009039,1698180011469,\Highly agree\,\Highly agree\,\4\,1698180010884,1698180010884,1845,1845,2430,buq,qns-item-noham,43,186206,0.0-1.0-0.42
<b>Sometimes the details of a matter seem to conflict with the big picture.,Highly disagree,44/150,Somewhat agree,3,1698180011472,1698180014982,\Somewhat agree\,\Somewhat agree\,\3\,1698180014501,1698180014501,3029,3029,3510,buq,qns-item-noham,44,189719,0.0-1.0-0.43
<b>Listening to people I disagree with makes my opinions better.,Highly disagree,45/150,Somewhat agree,3,1698180014985,1698180019099,\Highly agree\,\Somewhat agree\,\4\,1698180017954,1698180018409,2969,3424,4114,buq,qns-item-noham,45,193836,0.0-1.0-0.44
<b>Policies that sound bad are sometimes fine when you find out about their details.,Highly disagree,46/150,Highly agree,4,1698180019102,1698180024974,\Highly agree\,\Highly agree\,\4\,1698180024003,1698180024003,4901,4901,5872,buq,qns-item-noham,46,199712,0.0-1.0-0.45
"<b>The world is always changing, so my beliefs are sometimes out-dated.",Highly disagree,47/150,Somewhat agree,3,1698180024977,1698180031025,\Somewhat agree\,\Somewhat agree\,\3\,1698180030471,1698180030471,5494,5494,6048,buq,qns-item-noham,47,205762,0.0-1.0-0.46
"<b>If I receive a bad meal at my favorite restaurant and the food is surprisingly bad, I do not think much of it, and assume the chef is just having an ?off? day.",Highly disagree,48/150,Somewhat agree,3,1698180031028,1698180057317,\Somewhat agree\,\Somewhat agree\,\3\,1698180056701,1698180056701,25673,25673,26289,buq,qns-item-noham,48,232054,0.0-1.0-0.47
"<b>False information is unavoidable, to some extent.",Highly disagree,49/150,Somewhat agree,3,1698180057320,1698180060121,\Somewhat agree\,\Somewhat agree\,\3\,1698180059679,1698180059679,2359,2359,2801,buq,qns-item-noham,49,234858,0.0-1.0-0.48
<b>My moral compass sometimes makes it harder to determine what?s true.,Highly disagree,50/150,Highly agree,4,1698180060123,1698180063580,\Highly agree\,\Highly agree\,\4\,1698180062988,1698180062988,2865,2865,3457,buq,qns-item-noham,50,238317,0.0-1.0-0.49
"<b>When you disagree with someone, it?s important to listen to them carefully.",Highly disagree,51/150,Highly agree,4,1698180063583,1698180066381,\Highly agree\,\Highly agree\,\4\,1698180065915,1698180065915,2332,2332,2798,buq,qns-item-noham,51,241118,0.0-1.0-0.50
<b>Evidence pointing in the wrong direction isn?t really evidence at all.,Highly disagree,52/150,Somewhat disagree,2,1698180066384,1698180069580,\Somewhat disagree\,\Somewhat disagree\,\2\,1698180069217,1698180069217,2833,2833,3196,buq,qns-item-noham,52,244317,0.0-1.0-0.51
"<b>If the political party I support messes up, it makes me think politics is rotten.",Highly disagree,53/150,Somewhat agree,3,1698180069582,1698180073543,\Somewhat agree\,\Somewhat agree\,\3\,1698180072971,1698180072971,3389,3389,3961,buq,qns-item-noham,53,248280,0.0-1.0-0.52
<b>Lots of important topics can only really be understood by some groups of people.,Highly disagree,54/150,Somewhat disagree,2,1698180073546,1698180077666,\Somewhat disagree\,\Somewhat disagree\,\2\,1698180076819,1698180076819,3273,3273,4120,buq,qns-item-noham,54,252403,0.0-1.0-0.53
<b>Details almost always matter for being right about something.,Highly disagree,55/150,Somewhat agree,3,1698180077668,1698180083858,\Somewhat agree\,\Somewhat agree\,\3\,1698180083330,1698180083330,5662,5662,6190,buq,qns-item-noham,55,258595,0.0-1.0-0.54
"<b>The most important thing in politics is winning, not convincing people.",Highly disagree,56/150,Highly disagree,1,1698180083860,1698180086849,\Highly disagree\,\Highly disagree\,\1\,1698180086193,1698180086193,2333,2333,2989,buq,qns-item-noham,56,261586,0.0-1.0-0.55
<b>Having conflicting beliefs means you haven?t thought about them enough.,Highly disagree,57/150,Somewhat disagree,2,1698180086851,1698180090815,\Somewhat disagree\,\Somewhat disagree\,\2\,1698180090261,1698180090261,3410,3410,3964,buq,qns-item-noham,57,265552,0.0-1.0-0.56
<b>Other people have sometimes convinced me to change my mind on important topics.,Highly disagree,58/150,Somewhat agree,3,1698180090817,1698180094931,\Somewhat agree\,\Somewhat agree\,\3\,1698180094519,1698180094519,3702,3702,4114,buq,qns-item-noham,58,269668,0.0-1.0-0.57
<b>I do not often change my political opinions.,Highly disagree,59/150,Highly agree,4,1698180094933,1698180097783,\Highly agree\,\Highly agree\,\4\,1698180097317,1698180097317,2384,2384,2850,buq,qns-item-noham,59,272520,0.0-1.0-0.58
<b>Thinking about how different things relate to one another is critical in life.,Highly disagree,60/150,Somewhat agree,3,1698180097785,1698180101366,\Somewhat agree\,\Somewhat agree\,\3\,1698180100827,1698180100827,3042,3042,3581,buq,qns-item-noham,60,276103,0.0-1.0-0.59
<b>True beliefs can have unfortunate implications.,Highly disagree,61/150,Somewhat agree,3,1698180101368,1698180104536,\Somewhat agree\,\Somewhat agree\,\3\,1698180104083,1698180104083,2715,2715,3168,buq,qns-item-noham,61,279273,0.0-1.0-0.60
<b>It?s difficult to not have at least some conflicting beliefs.,Highly disagree,62/150,Highly agree,4,1698180104538,1698180108909,\Highly agree\,\Highly agree\,\4\,1698180107417,1698180107417,2879,2879,4371,buq,qns-item-noham,62,283646,0.0-1.0-0.61
"<b>When I learn new things, I think deeply about how my opinions should change.",Highly disagree,63/150,Somewhat agree,3,1698180108911,1698180113833,\Somewhat agree\,\Somewhat agree\,\3\,1698180113003,1698180113003,4092,4092,4922,buq,qns-item-noham,63,288570,0.0-1.0-0.62
<b>I think a lot about how to interpret different sorts of evidence.,Highly disagree,64/150,Somewhat agree,3,1698180113836,1698180116940,\Somewhat agree\,\Somewhat agree\,\3\,1698180116436,1698180116436,2600,2600,3104,buq,qns-item-noham,64,291677,0.0-1.0-0.63
<b>Politics is about thinking together and finding compromises.,Highly disagree,65/150,Highly agree,4,1698180116943,1698180120058,\Highly agree\,\Highly agree\,\4\,1698180119570,1698180119570,2627,2627,3115,buq,qns-item-noham,65,294796,0.0-1.0-0.64
<b>Wishful thinking causes a lot of problems.,Highly disagree,66/150,Somewhat agree,3,1698180120061,1698180122525,\Somewhat agree\,\Somewhat agree\,\3\,1698180122210,1698180122210,2149,2149,2464,buq,qns-item-noham,66,297262,0.0-1.0-0.65
<b>I judge a food item only once I try it many times.,Highly disagree,67/150,Highly agree,4,1698180122527,1698180126589,\Highly agree\,\Highly agree\,\4\,1698180126013,1698180126013,3486,3486,4062,buq,qns-item-noham,67,301326,0.0-1.0-0.66
"<b>When a person holds conflicting beliefs, they should really try to figure out what?s wrong.",Highly disagree,68/150,Somewhat agree,3,1698180126591,1698180130385,\Somewhat agree\,\Somewhat agree\,\3\,1698180129895,1698180129895,3304,3304,3794,buq,qns-item-noham,68,305122,0.0-1.0-0.67
<b>Knowing what?s important in life is easy.,Highly disagree,69/150,Highly disagree,1,1698180130388,1698180133216,\Highly disagree\,\Highly disagree\,\1\,1698180132773,1698180132773,2385,2385,2828,buq,qns-item-noham,69,307953,0.0-1.0-0.68
<b>Lots of smart people disagree about basic political questions.,Highly disagree,70/150,Highly agree,4,1698180133219,1698180137141,\Highly agree\,\Highly agree\,\4\,1698180136659,1698180136659,3440,3440,3922,buq,qns-item-noham,70,311878,0.0-1.0-0.69
<b>I swim across the Atlantic Ocean to get to work every day.,Highly disagree,71/150,Highly disagree,1,1698180137144,1698180141780,\Highly disagree\,\Highly disagree\,\1\,1698180139425,1698180139425,2281,2281,4636,buq,qns-item-noham,71,316517,0.0-1.0-0.70
"<b>Sometimes, you just have to ignore evidence that you know is wrong.",Highly disagree,72/150,Somewhat agree,3,1698180141782,1698180146206,\Somewhat agree\,\Somewhat agree\,\3\,1698180145717,1698180145717,3935,3935,4424,buq,qns-item-noham,72,320943,0.0-1.0-0.71
<b>I have had some false beliefs.,Highly disagree,73/150,Somewhat agree,3,1698180146208,1698180148822,\Somewhat agree\,\Somewhat agree\,\3\,1698180148305,1698180148305,2097,2097,2614,buq,qns-item-noham,73,323559,0.0-1.0-0.72
"<b>If one friend does something that upsets me, I sometimes start to distrust people in general.",Highly disagree,74/150,Somewhat agree,3,1698180148825,1698180152319,\Somewhat agree\,\Somewhat agree\,\3\,1698180151878,1698180151878,3053,3053,3494,buq,qns-item-noham,74,327056,0.0-1.0-0.73
<b>I easily apply what I learn in one situation to another.,Highly disagree,75/150,Somewhat agree,3,1698180152321,1698180156507,\Somewhat agree\,\Somewhat agree\,\3\,1698180155637,1698180155637,3316,3316,4186,buq,qns-item-noham,75,331244,0.0-1.0-0.74
<b>The facts about most important matters are easy to find.,Highly disagree,76/150,Somewhat disagree,2,1698180156509,1698180161269,\Somewhat disagree\,\Somewhat disagree\,\2\,1698180160793,1698180160793,4284,4284,4760,buq,qns-item-noham,76,336006,0.0-1.0-0.75
<b>It?s better to know what?s true than to know what?s moral.,Highly disagree,77/150,Somewhat disagree,2,1698180161272,1698180165599,\Somewhat disagree\,\Somewhat disagree\,\2\,1698180165021,1698180165021,3749,3749,4327,buq,qns-item-noham,77,340336,0.0-1.0-0.76
<b>It?s good to be skeptical of people you agree with.,Highly disagree,78/150,Somewhat agree,3,1698180165602,1698180168185,\Somewhat agree\,\Somewhat agree\,\3\,1698180167504,1698180167504,1902,1902,2583,buq,qns-item-noham,78,342922,0.0-1.0-0.77
<b>Sometimes reasonable beliefs are wrong.,Highly disagree,79/150,Somewhat agree,3,1698180168188,1698180171829,\Somewhat agree\,\Somewhat agree\,\3\,1698180171031,1698180171031,2843,2843,3641,buq,qns-item-noham,79,346566,0.0-1.0-0.78
<b>I used to think the world was less complicated than I do now.,Highly disagree,80/150,Highly agree,4,1698180171831,1698180174745,\Highly agree\,\Highly agree\,\4\,1698180174168,1698180174168,2337,2337,2914,buq,qns-item-noham,80,349482,0.0-1.0-0.79
<b>People are usually completely right or completely wrong.,Highly disagree,81/150,Somewhat agree,3,1698180174747,1698180177678,\Somewhat agree\,\Somewhat agree\,\3\,1698180177123,1698180177123,2376,2376,2931,buq,qns-item-noham,81,352415,0.0-1.0-0.80
<b>I spend a lot of time considering alternatives to my beliefs.,Highly disagree,82/150,Somewhat agree,3,1698180177681,1698180180333,\Somewhat agree\,\Somewhat agree\,\3\,1698180179970,1698180179970,2289,2289,2652,buq,qns-item-noham,82,355070,0.0-1.0-0.81
"<b>Political enemies need to be defeated, not convinced.",Highly disagree,83/150,Somewhat disagree,2,1698180180336,1698180184743,\Somewhat disagree\,\Somewhat disagree\,\2\,1698180183912,1698180183912,3576,3576,4407,buq,qns-item-noham,83,359480,0.0-1.0-0.82
"<b>When forming an opinion about a restaurant, I am more swayed by my  latest meal there than  previous meals I?ve had there.",Highly disagree,84/150,Somewhat disagree,2,1698180184746,1698180191495,\Somewhat disagree\,\Somewhat disagree\,\2\,1698180191030,1698180191030,6284,6284,6749,buq,qns-item-noham,84,366232,0.0-1.0-0.83
<b>I try to remain skeptical about most topics.,Highly disagree,85/150,Somewhat agree,3,1698180191497,1698180194112,\Somewhat agree\,\Somewhat agree\,\3\,1698180193686,1698180193686,2189,2189,2615,buq,qns-item-noham,85,368849,0.0-1.0-0.84
<b>Being wrong is usually obvious in retrospect.,Highly disagree,86/150,Highly disagree,1,1698180194116,1698180196943,\Highly disagree\,\Highly disagree\,\1\,1698180196533,1698180196533,2417,2417,2827,buq,qns-item-noham,86,371681,0.0-1.0-0.85
<b>It can be hard to realize that my beliefs are in conflict.,Highly disagree,87/150,Somewhat agree,3,1698180196947,1698180202385,\Somewhat agree\,\Somewhat agree\,\3\,1698180201728,1698180201728,4781,4781,5438,buq,qns-item-noham,87,377122,0.0-1.0-0.86
<b>I form my political views only after meticulously gathering historical and present information about their policies.,Highly disagree,88/150,Somewhat agree,3,1698180202388,1698180206865,\Somewhat agree\,\Somewhat agree\,\3\,1698180206311,1698180206311,3923,3923,4477,buq,qns-item-noham,88,381602,0.0-1.0-0.87
<b>Skeptical people are usually just bad-tempered.,Highly disagree,89/150,Highly disagree,1,1698180206868,1698180209363,\Highly disagree\,\Highly disagree\,\1\,1698180208888,1698180208888,2020,2020,2495,buq,qns-item-noham,89,384100,0.0-1.0-0.88
<b>It is difficult for me to remember the last time I was surprised by politics.,Highly disagree,90/150,Somewhat agree,3,1698180209366,1698180213141,\Somewhat agree\,\Somewhat agree\,\3\,1698180212563,1698180212563,3197,3197,3775,buq,qns-item-noham,90,387878,0.0-1.0-0.89
"<b>When I find out I?m wrong, I think a lot about my related beliefs.",Highly disagree,91/150,Highly agree,4,1698180213143,1698180223051,\Highly agree\,\Highly agree\,\4\,1698180222482,1698180222482,9339,9339,9908,buq,qns-item-noham,91,397788,0.0-1.0-0.90
"<b>If the political party I support messes up, it makes me think you can?t trust anyone these days",Highly disagree,92/150,Somewhat agree,3,1698180223053,1698180227463,\Somewhat agree\,\Somewhat agree\,\3\,1698180226942,1698180226942,3889,3889,4410,buq,qns-item-noham,92,402200,0.0-1.0-0.91
<b>People?s brains turn off when they talk about politics.,Highly disagree,93/150,Somewhat disagree,2,1698180227465,1698180230709,\Somewhat disagree\,\Somewhat disagree\,\2\,1698180230211,1698180230211,2746,2746,3244,buq,qns-item-noham,93,405446,0.0-1.0-0.92
<b>People who are wrong are usually just ignoring the obvious.,Highly disagree,94/150,Highly agree,4,1698180230712,1698180237512,\Highly agree\,\Highly agree\,\4\,1698180237107,1698180237107,6395,6395,6800,buq,qns-item-noham,94,412249,0.0-1.0-0.93
"<b>The world isn?t that complicated, but it?s still hard to figure out how it works.",Highly disagree,95/150,Somewhat agree,3,1698180237514,1698180242628,\Somewhat agree\,\Somewhat agree\,\3\,1698180242129,1698180242129,4615,4615,5114,buq,qns-item-noham,95,417365,0.0-1.0-0.94
"<b>When forming my views on people, I rely more on what they are like now rather than rely on my past experience with them.",Highly disagree,96/150,Somewhat disagree,2,1698180242631,1698180249622,\Somewhat disagree\,\Somewhat disagree\,\2\,1698180249194,1698180249194,6563,6563,6991,buq,qns-item-noham,96,424359,0.0-1.0-0.95
"<b>When people contradict my beliefs, I usually know about their evidence already.",Highly disagree,97/150,Somewhat disagree,2,1698180249625,1698180253044,\Somewhat disagree\,\Somewhat disagree\,\2\,1698180252728,1698180252728,3103,3103,3419,buq,qns-item-noham,97,427782,0.0-1.0-0.96
<b>Being wrong is a matter of degree.,Highly disagree,98/150,Somewhat agree,3,1698180253046,1698180255594,\Somewhat agree\,\Somewhat agree\,\3\,1698180255254,1698180255254,2208,2208,2548,buq,qns-item-noham,98,430331,0.0-1.0-0.97
<b>Figuring out what?s true and what?s false mainly requires a strong moral compass.,Highly disagree,99/150,Somewhat agree,3,1698180255596,1698180259885,\Somewhat agree\,\Somewhat agree\,\3\,1698180259418,1698180259418,3822,3822,4289,buq,qns-item-noham,99,434622,0.0-1.0-0.98
<b>Most of the beliefs people have are at least somewhat understandable.,Highly disagree,100/150,Somewhat agree,3,1698180259887,1698180263695,\Somewhat agree\,\Somewhat agree\,\3\,1698180262940,1698180262940,3053,3053,3808,buq,qns-item-noham,100,438432,0.0-1.0-0.99
"<b>Usually I?m wrong about simple things, not complicated ones.",Highly disagree,101/150,Somewhat disagree,2,1698180263699,1698180266826,\Somewhat disagree\,\Somewhat disagree\,\2\,1698180266033,1698180266033,2334,2334,3127,buq,qns-item-noham,101,441563,0.0-1.0-0.100
<b>Getting all the information I want about important things is hard.,Highly disagree,102/150,Somewhat disagree,2,1698180266830,1698180270538,\Somewhat disagree\,\Somewhat disagree\,\2\,1698180270020,1698180270020,3190,3190,3708,buq,qns-item-noham,102,445276,0.0-1.0-0.101
<b>Most false beliefs spread because people try to deceive one another.,Highly disagree,103/150,Highly agree,4,1698180270542,1698180273542,\Highly agree\,\Highly agree\,\4\,1698180272914,1698180272914,2372,2372,3000,buq,qns-item-noham,103,448279,0.0-1.0-0.102
<b>I can usually find something to agree with in most people?s beliefs.,Highly disagree,104/150,Highly agree,4,1698180273545,1698180278448,\Highly agree\,\Highly agree\,\4\,1698180277892,1698180277892,4347,4347,4903,buq,qns-item-noham,104,453185,0.0-1.0-0.103
<b>I only form my views of people once I get to know them very well.,Highly disagree,105/150,Somewhat agree,3,1698180278451,1698180281485,\Somewhat agree\,\Somewhat agree\,\3\,1698180280939,1698180280939,2488,2488,3034,buq,qns-item-noham,105,456222,0.0-1.0-0.104
"<b>When people tell me important things about the world, I usually believe them.",Highly disagree,106/150,Somewhat agree,3,1698180281488,1698180284916,\Somewhat agree\,\Somewhat agree\,\3\,1698180284432,1698180284432,2944,2944,3428,buq,qns-item-noham,106,459653,0.0-1.0-0.105
"<b>If a friend does something that upsets me, it reminds me what an unpredictable place the world is.",Highly disagree,107/150,Somewhat agree,3,1698180284918,1698180288582,\Somewhat agree\,\Somewhat agree\,\3\,1698180288171,1698180288171,3253,3253,3664,buq,qns-item-noham,107,463319,0.0-1.0-0.106
<b>Having some conflicting beliefs is inevitable.,Highly disagree,108/150,Highly agree,4,1698180288585,1698180291400,\Highly agree\,\Highly agree\,\4\,1698180290923,1698180290923,2338,2338,2815,buq,qns-item-noham,108,466137,0.0-1.0-0.107
<b>People are wrong because they haven?t thought much about things.,Highly disagree,109/150,Somewhat agree,3,1698180291403,1698180293990,\Somewhat agree\,\Somewhat agree\,\3\,1698180293477,1698180293477,2074,2074,2587,buq,qns-item-noham,109,468727,0.0-1.0-0.108
<b>People tend to believe whatever is good for their friends.,Highly disagree,110/150,Somewhat agree,3,1698180293993,1698180297213,\Somewhat agree\,\Somewhat agree\,\3\,1698180296758,1698180296758,2765,2765,3220,buq,qns-item-noham,110,471950,0.0-1.0-0.109
"<b>When I talk about important topics, I try to make sure people know I?m not always right.",Highly disagree,111/150,Somewhat agree,3,1698180297216,1698180300878,\Somewhat agree\,\Somewhat agree\,\3\,1698180300482,1698180300482,3266,3266,3662,buq,qns-item-noham,111,475615,0.0-1.0-0.110
<b>I used to be more certain my beliefs were true.,Highly disagree,112/150,Somewhat disagree,2,1698180300881,1698180305122,\Somewhat disagree\,\Somewhat disagree\,\2\,1698180304582,1698180304582,3701,3701,4241,buq,qns-item-noham,112,479859,0.0-1.0-0.111
<b>It?s often pretty easy to figure out whether something is true based on who said it.,Highly disagree,113/150,Somewhat disagree,2,1698180305124,1698180309126,\Somewhat disagree\,\Somewhat disagree\,\2\,1698180308699,1698180308699,3575,3575,4002,buq,qns-item-noham,113,483863,0.0-1.0-0.112
<b>Having bad food in my favorite restaurant will make me think the restaurant is no longer good.,Highly disagree,114/150,Highly disagree,1,1698180309128,1698180312818,\Highly disagree\,\Highly disagree\,\1\,1698180312314,1698180312314,3186,3186,3690,buq,qns-item-noham,114,487555,0.0-1.0-0.113
<b>I transform into a hummingbird every day.,Highly disagree,115/150,Highly disagree,1,1698180312821,1698180315219,\Highly disagree\,\Highly disagree\,\1\,1698180314641,1698180314641,1820,1820,2398,buq,qns-item-noham,115,489956,0.0-1.0-0.114
"<b>Unfortunately, when people are wrong, it?s usually because they?re bad.",Highly disagree,116/150,Highly disagree,1,1698180315221,1698180318589,\Highly disagree\,\Highly disagree\,\1\,1698180317935,1698180317935,2714,2714,3368,buq,qns-item-noham,116,493326,0.0-1.0-0.115
<b>I think a lot about arguments against my views.,Highly disagree,117/150,Somewhat agree,3,1698180318592,1698180321380,\Somewhat agree\,\Somewhat agree\,\3\,1698180320940,1698180320940,2348,2348,2788,buq,qns-item-noham,117,496117,0.0-1.0-0.116
<b>Details tend to matter a lot for knowing whether a policy is good.,Highly disagree,118/150,Somewhat agree,3,1698180321382,1698180324073,\Somewhat agree\,\Somewhat agree\,\3\,1698180323417,1698180323417,2035,2035,2691,buq,qns-item-noham,118,498810,0.0-1.0-0.117
<b>Personal experience is usually more important than facts and figures.,Highly disagree,119/150,Somewhat agree,3,1698180324076,1698180327579,\Somewhat agree\,\Somewhat agree\,\3\,1698180326984,1698180326984,2908,2908,3503,buq,qns-item-noham,119,502316,0.0-1.0-0.118
<b>I?ve been tricked before about important matters.,Highly disagree,120/150,Highly agree,4,1698180327582,1698180330913,\Highly agree\,\Highly agree\,\4\,1698180330233,1698180330233,2651,2651,3331,buq,qns-item-noham,120,505650,0.0-1.0-0.119
<b>I would need to be totally wowed if I were to change my opinion of a restaurant I don?t like.,Highly disagree,121/150,Somewhat agree,3,1698180330916,1698180335403,\Somewhat agree\,\Somewhat agree\,\3\,1698180334541,1698180334541,3625,3625,4487,buq,qns-item-noham,121,510140,0.0-1.0-0.120
<b>I care a lot about politics.,Highly disagree,122/150,Somewhat agree,3,1698180335405,1698180337951,\Somewhat agree\,\Somewhat agree\,\3\,1698180337310,1698180337310,1905,1905,2546,buq,qns-item-noham,122,512689,0.0-1.0-0.121
<b>People with conflicting beliefs usually have some facts they disagree on.,Highly disagree,123/150,Somewhat agree,3,1698180337955,1698180343036,\Somewhat agree\,\Somewhat agree\,\3\,1698180341954,1698180341954,3999,3999,5081,buq,qns-item-noham,123,517773,0.0-1.0-0.122
<b>There are some topics I?ve been really wrong about.,Highly disagree,124/150,Somewhat agree,3,1698180343038,1698180345812,\Somewhat agree\,\Somewhat agree\,\3\,1698180345152,1698180345152,2114,2114,2774,buq,qns-item-noham,124,520549,0.0-1.0-0.123
<b>Most beliefs can be supported with at least some evidence.,Highly disagree,125/150,Highly agree,4,1698180345815,1698180348569,\Highly agree\,\Highly agree\,\4\,1698180348089,1698180348089,2274,2274,2754,buq,qns-item-noham,125,523306,0.0-1.0-0.124
<b>Other people make life out to be more complicated than it really is.,Highly disagree,126/150,Somewhat agree,3,1698180348572,1698180351549,\Somewhat agree\,\Somewhat agree\,\3\,1698180351108,1698180351108,2536,2536,2977,buq,qns-item-noham,126,526286,0.0-1.0-0.125
"<b>My political views are being shaped continuously as I gather more information, rather than relying on what I?ve known to be true of my party in the past. ",Highly disagree,127/150,Somewhat agree,3,1698180351552,1698180356138,\Somewhat agree\,\Somewhat agree\,\3\,1698180355664,1698180355664,4112,4112,4586,buq,qns-item-noham,127,530875,0.0-1.0-0.126
<b>It?s pretty unusual for true things to seem false.,Highly disagree,128/150,Somewhat disagree,2,1698180356141,1698180359580,\Somewhat disagree\,\Somewhat disagree\,\2\,1698180359177,1698180359177,3036,3036,3439,buq,qns-item-noham,128,534317,0.0-1.0-0.127
"<b>Policy details don?t matter much, just the big picture.",Highly disagree,129/150,Highly disagree,1,1698180359582,1698180362452,\Highly disagree\,\Highly disagree\,\1\,1698180361883,1698180361883,2301,2301,2870,buq,qns-item-noham,129,537189,0.0-1.0-0.128
<b>I know my friends so well they can hardly ever surprise me.,Highly disagree,130/150,Somewhat agree,3,1698180362454,1698180365922,\Somewhat agree\,\Somewhat agree\,\3\,1698180365279,1698180365279,2825,2825,3468,buq,qns-item-noham,130,540659,0.0-1.0-0.129
"<b>When I talk to people, I often think about why they have the beliefs they do.",Highly disagree,131/150,Somewhat agree,3,1698180365924,1698180369056,\Somewhat agree\,\Somewhat agree\,\3\,1698180368615,1698180368615,2691,2691,3132,buq,qns-item-noham,131,543793,0.0-1.0-0.130
<b>I do not often change my views on people.,Highly disagree,132/150,Somewhat agree,3,1698180369058,1698180372448,\Somewhat agree\,\Somewhat agree\,\3\,1698180371846,1698180371846,2788,2788,3390,buq,qns-item-noham,132,547185,0.0-1.0-0.131
<b>I often wish I had more time to spend figuring out what?s true and what?s false in life.,Highly disagree,133/150,Highly agree,4,1698180372451,1698180375970,\Highly agree\,\Highly agree\,\4\,1698180375404,1698180375404,2953,2953,3519,buq,qns-item-noham,133,550707,0.0-1.0-0.132
<b>I?m more certain about my beliefs than I used to be.,Highly disagree,134/150,Somewhat agree,3,1698180375972,1698180378486,\Somewhat agree\,\Somewhat agree\,\3\,1698180377805,1698180377805,1833,1833,2514,buq,qns-item-noham,134,553223,0.0-1.0-0.133
"<b>Whenever I find out new information, I update my views on politics accordingly.",Highly disagree,135/150,Somewhat agree,3,1698180378489,1698180381778,\Somewhat agree\,\Somewhat agree\,\3\,1698180380521,1698180380521,2032,2032,3289,buq,qns-item-noham,135,556515,0.0-1.0-0.134
<b>People often tell falsehoods unintentionally.,Highly disagree,136/150,Somewhat agree,3,1698180381780,1698180383918,\Somewhat agree\,\Somewhat agree\,\3\,1698180383357,1698180383357,1577,1577,2138,buq,qns-item-noham,136,558655,0.0-1.0-0.135
<b>Most people don?t know much about most things.,Highly disagree,137/150,Highly agree,4,1698180383921,1698180387155,\Highly agree\,\Highly agree\,\4\,1698180386600,1698180386600,2679,2679,3234,buq,qns-item-noham,137,561892,0.0-1.0-0.136
"<b>If I find out something new about someone, I easily change my views about them.",Highly disagree,138/150,Somewhat agree,3,1698180387157,1698180390647,\Somewhat agree\,\Somewhat agree\,\3\,1698180390346,1698180390346,3189,3189,3490,buq,qns-item-noham,138,565384,0.0-1.0-0.137
<b>Having true beliefs is difficult.,Highly disagree,139/150,Highly agree,4,1698180390649,1698180393075,\Highly agree\,\Highly agree\,\4\,1698180392687,1698180392687,2038,2038,2426,buq,qns-item-noham,139,567812,0.0-1.0-0.138
<b>I don?t try new foods since I know I won?t like them.,Highly disagree,140/150,Highly disagree,1,1698180393078,1698180395914,\Highly disagree\,\Highly disagree\,\1\,1698180395376,1698180395376,2298,2298,2836,buq,qns-item-noham,140,570651,0.0-1.0-0.139
<b>It?s easy to figure out what?s true or false based on who?s saying it.,Highly disagree,141/150,Highly disagree,1,1698180395917,1698180399321,\Highly disagree\,\Highly disagree\,\1\,1698180398830,1698180398830,2913,2913,3404,buq,qns-item-noham,141,574058,0.0-1.0-0.140
<b>False things have seemed true to me many times.,Highly disagree,142/150,Somewhat agree,3,1698180399324,1698180401936,\Somewhat agree\,\Somewhat agree\,\3\,1698180401307,1698180401307,1983,1983,2612,buq,qns-item-noham,142,576673,0.0-1.0-0.141
<b>It?s pretty easy to sort out what?s true and what?s false in life.,Highly disagree,143/150,Somewhat disagree,2,1698180401938,1698180405268,\Somewhat disagree\,\Somewhat disagree\,\2\,1698180404729,1698180404729,2791,2791,3330,buq,qns-item-noham,143,580005,0.0-1.0-0.142
<b>Knowing lots of statistics about something is usually important for understanding it.,Highly disagree,144/150,Somewhat agree,3,1698180405270,1698180410187,\Somewhat agree\,\Somewhat agree\,\3\,1698180408953,1698180408953,3683,3683,4917,buq,qns-item-noham,144,584924,0.0-1.0-0.143
<b>Other people trick each other a lot.,Highly disagree,145/150,Highly agree,4,1698180410189,1698180412535,\Highly agree\,\Highly agree\,\4\,1698180412062,1698180412062,1873,1873,2346,buq,qns-item-noham,145,587272,0.0-1.0-0.144
<b>I would need to learn a lot about a person for my opinion of them to be swayed.,Highly disagree,146/150,Highly agree,4,1698180412537,1698180416385,\Highly agree\,\Highly agree\,\4\,1698180415806,1698180415806,3269,3269,3848,buq,qns-item-noham,146,591122,0.0-1.0-0.145
<b>People can?t usually trick me when it comes to topics I care about.,Highly disagree,147/150,Highly agree,4,1698180416387,1698180419866,\Highly agree\,\Highly agree\,\4\,1698180419226,1698180419226,2839,2839,3479,buq,qns-item-noham,147,594604,0.0-1.0-0.146
<b>I do not often change my views on food.,Highly disagree,148/150,Highly disagree,1,1698180419869,1698180424205,\Highly disagree\,\Highly disagree\,\1\,1698180423567,1698180423567,3698,3698,4336,buq,qns-item-noham,148,598942,0.0-1.0-0.147
<b>Specific policies are often very important to me.,Highly disagree,149/150,Somewhat agree,3,1698180424208,1698180426394,\Somewhat agree\,\Somewhat agree\,\3\,1698180425965,1698180425965,1757,1757,2186,buq,qns-item-noham,149,601131,0.0-1.0-0.148
<b>Most people are woefully under-informed.,Highly disagree,150/150,Highly agree,4,1698180426397,1698180429347,\Highly agree\,\Highly agree\,\4\,1698180428769,1698180428769,2372,2372,2950,buq,qns-item-noham,150,604084,0.0-1.0-0.149
