Question,qns_options,quest_num,answer,answer_num,question_load_timestamp,next_btn_timestamp,text_selected,final_text_selected,option_num_selected,preview_timestamps,final_text_selected_time_stamp,rt_first_option_click,rt_final_option_click,rt_submit_click,questionnaire,trial_type,trial_index,time_elapsed,internal_node_id
<b>Considering other people?s perspectives can help us figure out what?s true or false.,Highly disagree,1/150,Highly agree,4,1698180232692,1698180243695,\Highly agree\,\Highly agree\,\4\,1698180242440,1698180242440,9748,9748,11003,buq,qns-item-noham,1,15139,0.0-1.0-0.0
<b>Knowing what?s true and knowing what to do about it are usually basically the same.,Highly disagree,2/150,Somewhat disagree,2,1698180243700,1698180251085,\Somewhat disagree\,\Somewhat disagree\,\2\,1698180250574,1698180250574,6874,6874,7385,buq,qns-item-noham,2,22529,0.0-1.0-0.1
<b>Most people just believe whatever is convenient for them.,Highly disagree,3/150,Highly agree,4,1698180251097,1698180257225,\Highly agree\,\Highly agree\,\4\,1698180256653,1698180256653,5556,5556,6128,buq,qns-item-noham,3,28669,0.0-1.0-0.2
<b>Even people who are wrong about most things can be right sometimes.,Highly disagree,4/150,Highly agree,4,1698180257229,1698180263276,\Highly agree\,\Highly agree\,\4\,1698180262642,1698180262642,5413,5413,6047,buq,qns-item-noham,4,34721,0.0-1.0-0.3
"<b>If the political party I support does something that upsets me, then the party may have changed, and I need to re-evaluate my support.",Highly disagree,5/150,Somewhat agree,3,1698180263281,1698180271539,\Somewhat agree\,\Somewhat agree\,\3\,1698180270993,1698180270993,7712,7712,8258,buq,qns-item-noham,5,42983,0.0-1.0-0.4
"<b>When people disagree, one side is usually completely right.",Highly disagree,6/150,Somewhat disagree,2,1698180271542,1698180278230,\Somewhat disagree\,\Somewhat disagree\,\2\,1698180277823,1698180277823,6281,6281,6688,buq,qns-item-noham,6,49674,0.0-1.0-0.5
<b>People have lots of false beliefs.,Highly disagree,7/150,Highly agree,4,1698180278234,1698180282942,\Highly agree\,\Highly agree\,\4\,1698180281965,1698180281965,3731,3731,4708,buq,qns-item-noham,7,54386,0.0-1.0-0.6
<b>Having some big beliefs helps me sort out minor ones.,Highly disagree,8/150,Somewhat agree,3,1698180282946,1698180298076,\Somewhat agree\,\Somewhat agree\,\3\,1698180297699,1698180297699,14753,14753,15130,buq,qns-item-noham,8,69520,0.0-1.0-0.7
<b>Political questions are usually pretty complicated.,Highly disagree,9/150,Somewhat agree,3,1698180298080,1698180308958,\Somewhat agree\,\Somewhat agree\,\3\,1698180308219,1698180308219,10139,10139,10878,buq,qns-item-noham,9,80402,0.0-1.0-0.8
<b>Figuring out what?s important in life requires learning a lot of facts.,Highly disagree,10/150,Highly agree,4,1698180308962,1698180314067,\Highly agree\,\Highly agree\,\4\,1698180313585,1698180313585,4623,4623,5105,buq,qns-item-noham,10,85511,0.0-1.0-0.9
<b>It is difficult for me to remember the last time I was surprised by politics.,Highly disagree,11/150,Highly disagree,1,1698180314070,1698180334945,\Highly disagree\,\Highly disagree\,\1\,1698180334238,1698180334238,20168,20168,20875,buq,qns-item-noham,11,106389,0.0-1.0-0.10
<b>People?s false beliefs are understandable.,Highly disagree,12/150,Somewhat disagree,2,1698180334948,1698180337920,\Somewhat disagree\,\Somewhat disagree\,\2\,1698180337547,1698180337547,2599,2599,2972,buq,qns-item-noham,12,109364,0.0-1.0-0.11
<b>I spend a lot of time trying to be informed about politics.,Highly disagree,13/150,Somewhat agree,3,1698180337925,1698180340954,\Somewhat agree\,\Somewhat agree\,\3\,1698180340423,1698180340423,2498,2498,3029,buq,qns-item-noham,13,112398,0.0-1.0-0.12
<b>I think a lot about whether my beliefs are right.,Highly disagree,14/150,Highly disagree,1,1698180340958,1698180347275,\Highly disagree\,\Highly disagree\,\1\,1698180346764,1698180346764,5806,5806,6317,buq,qns-item-noham,14,118719,0.0-1.0-0.13
<b>Statistics can be pretty misleading sometimes.,Highly disagree,15/150,Somewhat agree,3,1698180347278,1698180350286,\Somewhat agree\,\Somewhat agree\,\3\,1698180349857,1698180349857,2579,2579,3008,buq,qns-item-noham,15,121730,0.0-1.0-0.14
<b>Figuring out what?s true and what?s false takes a lot of time and effort.,Highly disagree,16/150,Somewhat agree,3,1698180350289,1698180357238,\Somewhat agree\,\Somewhat agree\,\3\,1698180356842,1698180356842,6553,6553,6949,buq,qns-item-noham,16,128682,0.0-1.0-0.15
"<b>If a friend does something bad to me, it was likely an error on their part.",Highly disagree,17/150,Somewhat agree,3,1698180357242,1698180371680,\Somewhat agree\,\Somewhat agree\,\3\,1698180371243,1698180371243,14001,14001,14438,buq,qns-item-noham,17,143125,0.0-1.0-0.16
<b>I have lots of beliefs that I?m only sort of sure about.,Highly disagree,18/150,Somewhat disagree,2,1698180371684,1698180374785,\Somewhat disagree\,\Somewhat disagree\,\2\,1698180374347,1698180374347,2663,2663,3101,buq,qns-item-noham,18,146229,0.0-1.0-0.17
"<b>If I go to my favorite restaurant and the food is surprisingly bad, it reminds me there are many disappointments in life.",Highly disagree,19/150,Somewhat agree,3,1698180374789,1698180397947,\Somewhat agree\,\Somewhat agree\,\3\,1698180397538,1698180397538,22749,22749,23158,buq,qns-item-noham,19,169391,0.0-1.0-0.18
<b>Sometimes my beliefs are inconvenient for me.,Highly disagree,20/150,Somewhat disagree,2,1698180397950,1698180404916,\Somewhat disagree\,\Somewhat disagree\,\2\,1698180404489,1698180404489,6539,6539,6966,buq,qns-item-noham,20,176360,0.0-1.0-0.19
<b>Paying attention to multiple news sources is important.,Highly disagree,21/150,Somewhat agree,3,1698180404919,1698180408095,\Somewhat agree\,\Somewhat agree\,\3\,1698180407626,1698180407626,2707,2707,3176,buq,qns-item-noham,21,179539,0.0-1.0-0.20
"<b>If you are paying attention, please select ?Somewhat agree?",Highly disagree,22/150,Somewhat agree,3,1698180408098,1698180413405,\Somewhat agree\,\Somewhat agree\,\3\,1698180411484,1698180411484,3386,3386,5307,buq,qns-item-noham,22,184850,0.0-1.0-0.21
"<b>When I talk to others, I often worry I?ll convince them of something I didn?t mean to.",Highly disagree,23/150,Somewhat disagree,2,1698180413408,1698180418299,\Somewhat disagree\,\Somewhat disagree\,\2\,1698180417914,1698180417914,4506,4506,4891,buq,qns-item-noham,23,189743,0.0-1.0-0.22
<b>I would need to learn something utterly shocking about my party in order to change my political views.,Highly disagree,24/150,Highly agree,4,1698180418302,1698180451388,\Somewhat agree\,\Highly agree\,\3\,1698180450384,1698180450951,32082,32649,33086,buq,qns-item-noham,24,222832,0.0-1.0-0.23
"<b>When I have new experiences, I tend to think of them as unique.",Highly disagree,25/150,Somewhat agree,3,1698180451392,1698180456008,\Somewhat agree\,\Somewhat agree\,\3\,1698180455592,1698180455592,4200,4200,4616,buq,qns-item-noham,25,227453,0.0-1.0-0.24
<b>Reading lots of things is important for understanding the world.,Highly disagree,26/150,Somewhat agree,3,1698180456012,1698180460600,\Somewhat agree\,\Somewhat agree\,\3\,1698180460238,1698180460238,4226,4226,4588,buq,qns-item-noham,26,232044,0.0-1.0-0.25
<b>The world is complicated.,Highly disagree,27/150,Highly agree,4,1698180460609,1698180463209,\Somewhat agree\,\Highly agree\,\3\,1698180462128,1698180462700,1519,2091,2600,buq,qns-item-noham,27,234653,0.0-1.0-0.26
<b>I change my mind about specific policies pretty frequently.,Highly disagree,28/150,Highly disagree,1,1698180463212,1698180466882,\Highly disagree\,\Highly disagree\,\1\,1698180466344,1698180466344,3132,3132,3670,buq,qns-item-noham,28,238326,0.0-1.0-0.27
"<b>If a politician in my political party supports something I disagree with, I give them the benefit of the doubt, as such issues often involve hidden complexities that aren?t obvious.   ",Highly disagree,29/150,Somewhat agree,3,1698180466885,1698180473592,\Somewhat agree\,\Somewhat agree\,\3\,1698180473065,1698180473065,6180,6180,6707,buq,qns-item-noham,29,245036,0.0-1.0-0.28
<b>People?s bad politics are usually motivated by hatefulness.,Highly disagree,30/150,Highly agree,4,1698180473601,1698180477852,\Highly agree\,\Highly agree\,\4\,1698180477375,1698180477375,3774,3774,4251,buq,qns-item-noham,30,249296,0.0-1.0-0.29
"<b>Most new experiences are just like old ones, but a little bit different.",Highly disagree,31/150,Somewhat agree,3,1698180477857,1698180490722,\Somewhat agree\,\Somewhat agree\,\3\,1698180490357,1698180490357,12500,12500,12865,buq,qns-item-noham,31,262166,0.0-1.0-0.30
<b>I think a lot about how to reconcile my beliefs with one another.,Highly disagree,32/150,Highly disagree,1,1698180490725,1698180497438,\Highly disagree\,\Highly disagree\,\1\,1698180496855,1698180496855,6130,6130,6713,buq,qns-item-noham,32,268882,0.0-1.0-0.31
<b>Personal experience rarely leads people astray.,Highly disagree,33/150,Somewhat agree,3,1698180497441,1698180502540,\Somewhat agree\,\Somewhat agree\,\3\,1698180502164,1698180502164,4723,4723,5099,buq,qns-item-noham,33,273984,0.0-1.0-0.32
<b>I might have false beliefs about important topics.,Highly disagree,34/150,Highly agree,4,1698180502544,1698180507179,\Highly agree\,\Highly agree\,\4\,1698180506638,1698180506638,4094,4094,4635,buq,qns-item-noham,34,278623,0.0-1.0-0.33
"<b>If a good friend of mine does something unexpected that upsets me, I feel like I don?t know them anymore.",Highly disagree,35/150,Somewhat disagree,2,1698180507185,1698180526440,\Somewhat disagree\,\Somewhat disagree\,\2\,1698180525918,1698180525918,18733,18733,19255,buq,qns-item-noham,35,297884,0.0-1.0-0.34
<b>Other people?s beliefs are often incoherent.,Highly disagree,36/150,Somewhat disagree,2,1698180526444,1698180532012,\Somewhat disagree\,\Somewhat disagree\,\2\,1698180531574,1698180531574,5130,5130,5568,buq,qns-item-noham,36,303457,0.0-1.0-0.35
<b>It?s important to have friends who think about things differently than I do.,Highly disagree,37/150,Highly agree,4,1698180532016,1698180535317,\Highly agree\,\Highly agree\,\4\,1698180534617,1698180534617,2601,2601,3301,buq,qns-item-noham,37,306761,0.0-1.0-0.36
"<b>Every now and then, a new experience will unsettle beliefs I?ve had for a while.",Highly disagree,38/150,Somewhat disagree,2,1698180535323,1698180542745,\Somewhat disagree\,\Somewhat disagree\,\2\,1698180542320,1698180542320,6997,6997,7422,buq,qns-item-noham,38,314189,0.0-1.0-0.37
<b>Some policies I agree with in principle are so bad I don?t support them. ,Highly disagree,39/150,Highly agree,4,1698180542749,1698180548741,\Highly agree\,\Highly agree\,\4\,1698180548180,1698180548180,5431,5431,5992,buq,qns-item-noham,39,320185,0.0-1.0-0.38
<b>I?m pretty sure I?ve accidentally spread false information.,Highly disagree,40/150,Somewhat agree,3,1698180548744,1698180551832,\Somewhat agree\,\Somewhat agree\,\3\,1698180551384,1698180551384,2640,2640,3088,buq,qns-item-noham,40,323276,0.0-1.0-0.39
"<b>If I go to my favorite restaurant and the food is unexpectedly bad, then they have changed owners.",Highly disagree,41/150,Somewhat disagree,2,1698180551834,1698180558252,\Somewhat disagree\,\Somewhat disagree\,\2\,1698180557834,1698180557834,6000,6000,6418,buq,qns-item-noham,41,329697,0.0-1.0-0.40
"<b>In politics, it?s important to trust your friends and family.",Highly disagree,42/150,Somewhat agree,3,1698180558264,1698180562561,\Somewhat agree\,\Somewhat agree\,\3\,1698180562165,1698180562165,3901,3901,4297,buq,qns-item-noham,42,334005,0.0-1.0-0.41
<b>It?s OK to have some conflicting beliefs.,Highly disagree,43/150,Highly agree,4,1698180562564,1698180565448,\Highly agree\,\Highly agree\,\4\,1698180564990,1698180564990,2426,2426,2884,buq,qns-item-noham,43,336892,0.0-1.0-0.42
<b>Sometimes the details of a matter seem to conflict with the big picture.,Highly disagree,44/150,Somewhat agree,3,1698180565451,1698180587568,\Somewhat agree\,\Somewhat agree\,\3\,1698180587139,1698180587139,21688,21688,22117,buq,qns-item-noham,44,359012,0.0-1.0-0.43
<b>Listening to people I disagree with makes my opinions better.,Highly disagree,45/150,Somewhat agree,3,1698180587571,1698180596277,\Somewhat agree\,\Somewhat agree\,\3\,1698180595498,1698180595498,7927,7927,8706,buq,qns-item-noham,45,367721,0.0-1.0-0.44
<b>Policies that sound bad are sometimes fine when you find out about their details.,Highly disagree,46/150,Somewhat agree,3,1698180596280,1698180610993,\Somewhat agree\,\Somewhat agree\,\3\,1698180610245,1698180610245,13965,13965,14713,buq,qns-item-noham,46,382437,0.0-1.0-0.45
"<b>The world is always changing, so my beliefs are sometimes out-dated.",Highly disagree,47/150,Somewhat agree,3,1698180610996,1698180615434,\Somewhat agree\,\Somewhat agree\,\3\,1698180614966,1698180614966,3970,3970,4438,buq,qns-item-noham,47,386878,0.0-1.0-0.46
"<b>If I receive a bad meal at my favorite restaurant and the food is surprisingly bad, I do not think much of it, and assume the chef is just having an ?off? day.",Highly disagree,48/150,Somewhat disagree,2,1698180615439,1698180623115,\Somewhat disagree\,\Somewhat disagree\,\2\,1698180622599,1698180622599,7160,7160,7676,buq,qns-item-noham,48,394559,0.0-1.0-0.47
"<b>False information is unavoidable, to some extent.",Highly disagree,49/150,Somewhat agree,3,1698180623118,1698180626488,\Somewhat agree\,\Somewhat agree\,\3\,1698180625984,1698180625984,2866,2866,3370,buq,qns-item-noham,49,397932,0.0-1.0-0.48
<b>My moral compass sometimes makes it harder to determine what?s true.,Highly disagree,50/150,Somewhat agree,3,1698180626497,1698180652152,\Somewhat disagree\,\Somewhat agree\,\2\,1698180651113,1698180651736,24616,25239,25655,buq,qns-item-noham,50,423596,0.0-1.0-0.49
"<b>When you disagree with someone, it?s important to listen to them carefully.",Highly disagree,51/150,Highly agree,4,1698180652156,1698180655928,\Highly agree\,\Highly agree\,\4\,1698180655252,1698180655252,3096,3096,3772,buq,qns-item-noham,51,427372,0.0-1.0-0.50
<b>Evidence pointing in the wrong direction isn?t really evidence at all.,Highly disagree,52/150,Somewhat disagree,2,1698180655932,1698180661564,\Somewhat disagree\,\Somewhat disagree\,\2\,1698180661184,1698180661184,5252,5252,5632,buq,qns-item-noham,52,433008,0.0-1.0-0.51
"<b>If the political party I support messes up, it makes me think politics is rotten.",Highly disagree,53/150,Highly disagree,1,1698180661568,1698180677766,\Somewhat disagree\,\Highly disagree\,\2\,1698180676633,1698180677287,15065,15719,16198,buq,qns-item-noham,53,449210,0.0-1.0-0.52
<b>Lots of important topics can only really be understood by some groups of people.,Highly disagree,54/150,Somewhat disagree,2,1698180677769,1698180682413,\Somewhat disagree\,\Somewhat disagree\,\2\,1698180681972,1698180681972,4203,4203,4644,buq,qns-item-noham,54,453857,0.0-1.0-0.53
<b>Details almost always matter for being right about something.,Highly disagree,55/150,Highly agree,4,1698180682423,1698180688176,\Highly agree\,\Highly agree\,\4\,1698180687668,1698180687668,5245,5245,5753,buq,qns-item-noham,55,459620,0.0-1.0-0.54
"<b>The most important thing in politics is winning, not convincing people.",Highly disagree,56/150,Highly disagree,1,1698180688185,1698180692556,\Highly disagree\,\Highly disagree\,\1\,1698180692126,1698180692126,3941,3941,4371,buq,qns-item-noham,56,464000,0.0-1.0-0.55
<b>Having conflicting beliefs means you haven?t thought about them enough.,Highly disagree,57/150,Somewhat disagree,2,1698180692565,1698180696753,\Somewhat disagree\,\Somewhat disagree\,\2\,1698180696326,1698180696326,3761,3761,4188,buq,qns-item-noham,57,468197,0.0-1.0-0.56
<b>Other people have sometimes convinced me to change my mind on important topics.,Highly disagree,58/150,Somewhat agree,3,1698180696756,1698180701104,\Somewhat agree\,\Somewhat agree\,\3\,1698180700687,1698180700687,3931,3931,4348,buq,qns-item-noham,58,472548,0.0-1.0-0.57
<b>I do not often change my political opinions.,Highly disagree,59/150,Highly agree,4,1698180701107,1698180705155,\Highly agree\,\Highly agree\,\4\,1698180703329,1698180703329,2222,2222,4048,buq,qns-item-noham,59,476599,0.0-1.0-0.58
<b>Thinking about how different things relate to one another is critical in life.,Highly disagree,60/150,Highly agree,4,1698180705161,1698180709678,\Highly agree\,\Highly agree\,\4\,1698180709189,1698180709189,4028,4028,4517,buq,qns-item-noham,60,481122,0.0-1.0-0.59
<b>True beliefs can have unfortunate implications.,Highly disagree,61/150,Highly agree,4,1698180709681,1698180715855,\Highly agree\,\Highly agree\,\4\,1698180714998,1698180714998,5317,5317,6174,buq,qns-item-noham,61,487299,0.0-1.0-0.60
<b>It?s difficult to not have at least some conflicting beliefs.,Highly disagree,62/150,Somewhat agree,3,1698180715859,1698180720347,\Somewhat agree\,\Somewhat agree\,\3\,1698180719878,1698180719878,4019,4019,4488,buq,qns-item-noham,62,491791,0.0-1.0-0.61
"<b>When I learn new things, I think deeply about how my opinions should change.",Highly disagree,63/150,Somewhat disagree,2,1698180720351,1698180759139,\Somewhat disagree\,\Somewhat disagree\,\2\,1698180758534,1698180758534,38183,38183,38788,buq,qns-item-noham,63,530583,0.0-1.0-0.62
<b>I think a lot about how to interpret different sorts of evidence.,Highly disagree,64/150,Somewhat agree,3,1698180759143,1698180772232,\Somewhat agree\,\Somewhat agree\,\3\,1698180771721,1698180771721,12578,12578,13089,buq,qns-item-noham,64,543676,0.0-1.0-0.63
<b>Politics is about thinking together and finding compromises.,Highly disagree,65/150,Highly disagree,1,1698180772235,1698180777401,\Highly disagree\,\Highly disagree\,\1\,1698180776776,1698180776776,4541,4541,5166,buq,qns-item-noham,65,548845,0.0-1.0-0.64
<b>Wishful thinking causes a lot of problems.,Highly disagree,66/150,Highly agree,4,1698180777404,1698180780164,\Highly agree\,\Highly agree\,\4\,1698180779625,1698180779625,2221,2221,2760,buq,qns-item-noham,66,551608,0.0-1.0-0.65
<b>I judge a food item only once I try it many times.,Highly disagree,67/150,Highly disagree,1,1698180780174,1698180784963,\Highly disagree\,\Highly disagree\,\1\,1698180784454,1698180784454,4280,4280,4789,buq,qns-item-noham,67,556407,0.0-1.0-0.66
"<b>When a person holds conflicting beliefs, they should really try to figure out what?s wrong.",Highly disagree,68/150,Somewhat agree,3,1698180784967,1698180790846,\Somewhat agree\,\Somewhat agree\,\3\,1698180790336,1698180790336,5369,5369,5879,buq,qns-item-noham,68,562290,0.0-1.0-0.67
<b>Knowing what?s important in life is easy.,Highly disagree,69/150,Somewhat agree,3,1698180790850,1698180794253,\Somewhat agree\,\Somewhat agree\,\3\,1698180793721,1698180793721,2871,2871,3403,buq,qns-item-noham,69,565697,0.0-1.0-0.68
<b>Lots of smart people disagree about basic political questions.,Highly disagree,70/150,Highly agree,4,1698180794257,1698180797859,\Highly agree\,\Highly agree\,\4\,1698180797123,1698180797123,2866,2866,3602,buq,qns-item-noham,70,569303,0.0-1.0-0.69
<b>I swim across the Atlantic Ocean to get to work every day.,Highly disagree,71/150,Highly disagree,1,1698180797866,1698180801616,\Highly disagree\,\Highly disagree\,\1\,1698180800543,1698180800543,2677,2677,3750,buq,qns-item-noham,71,573060,0.0-1.0-0.70
"<b>Sometimes, you just have to ignore evidence that you know is wrong.",Highly disagree,72/150,Highly agree,4,1698180801623,1698180808195,\Highly agree\,\Highly agree\,\4\,1698180807648,1698180807648,6025,6025,6572,buq,qns-item-noham,72,579639,0.0-1.0-0.71
<b>I have had some false beliefs.,Highly disagree,73/150,Somewhat agree,3,1698180808201,1698180811719,\Somewhat agree\,\Somewhat agree\,\3\,1698180811241,1698180811241,3040,3040,3518,buq,qns-item-noham,73,583163,0.0-1.0-0.72
"<b>If one friend does something that upsets me, I sometimes start to distrust people in general.",Highly disagree,74/150,Somewhat disagree,2,1698180811725,1698180816627,\Somewhat disagree\,\Somewhat disagree\,\2\,1698180816145,1698180816145,4420,4420,4902,buq,qns-item-noham,74,588071,0.0-1.0-0.73
<b>I easily apply what I learn in one situation to another.,Highly disagree,75/150,Somewhat agree,3,1698180816631,1698180821618,\Somewhat agree\,\Somewhat agree\,\3\,1698180821211,1698180821211,4580,4580,4987,buq,qns-item-noham,75,593062,0.0-1.0-0.74
<b>The facts about most important matters are easy to find.,Highly disagree,76/150,Somewhat agree,3,1698180821621,1698180831802,\Somewhat agree\,\Somewhat agree\,\3\,1698180831358,1698180831358,9737,9737,10181,buq,qns-item-noham,76,603246,0.0-1.0-0.75
<b>It?s better to know what?s true than to know what?s moral.,Highly disagree,77/150,Somewhat disagree,2,1698180831812,1698180839330,\Somewhat disagree\,\Somewhat disagree\,\2\,1698180838860,1698180838860,7048,7048,7518,buq,qns-item-noham,77,610774,0.0-1.0-0.76
<b>It?s good to be skeptical of people you agree with.,Highly disagree,78/150,Somewhat agree,3,1698180839334,1698180846502,\Somewhat agree\,\Somewhat agree\,\3\,1698180845852,1698180845852,6518,6518,7168,buq,qns-item-noham,78,617946,0.0-1.0-0.77
<b>Sometimes reasonable beliefs are wrong.,Highly disagree,79/150,Somewhat agree,3,1698180846506,1698180850154,\Somewhat agree\,\Somewhat agree\,\3\,1698180849224,1698180849224,2718,2718,3648,buq,qns-item-noham,79,621598,0.0-1.0-0.78
<b>I used to think the world was less complicated than I do now.,Highly disagree,80/150,Highly agree,4,1698180850165,1698180855782,\Highly agree\,\Highly agree\,\4\,1698180854838,1698180854838,4673,4673,5617,buq,qns-item-noham,80,627226,0.0-1.0-0.79
<b>People are usually completely right or completely wrong.,Highly disagree,81/150,Highly disagree,1,1698180855785,1698180858967,\Highly disagree\,\Highly disagree\,\1\,1698180858394,1698180858394,2609,2609,3182,buq,qns-item-noham,81,630411,0.0-1.0-0.80
<b>I spend a lot of time considering alternatives to my beliefs.,Highly disagree,82/150,Highly disagree,1,1698180858972,1698180863439,\Highly disagree\,\Highly disagree\,\1\,1698180862837,1698180862837,3865,3865,4467,buq,qns-item-noham,82,634883,0.0-1.0-0.81
"<b>Political enemies need to be defeated, not convinced.",Highly disagree,83/150,Somewhat disagree,2,1698180863449,1698180869246,\Highly disagree\,\Somewhat disagree\,\1\,1698180867248,1698180868624,3799,5175,5797,buq,qns-item-noham,83,640690,0.0-1.0-0.82
"<b>When forming an opinion about a restaurant, I am more swayed by my  latest meal there than  previous meals I?ve had there.",Highly disagree,84/150,Highly agree,4,1698180869251,1698180874815,\Highly agree\,\Highly agree\,\4\,1698180873879,1698180873879,4628,4628,5564,buq,qns-item-noham,84,646259,0.0-1.0-0.83
<b>I try to remain skeptical about most topics.,Highly disagree,85/150,Somewhat disagree,2,1698180874821,1698180878327,\Somewhat disagree\,\Somewhat disagree\,\2\,1698180877789,1698180877789,2968,2968,3506,buq,qns-item-noham,85,649771,0.0-1.0-0.84
<b>Being wrong is usually obvious in retrospect.,Highly disagree,86/150,Highly agree,4,1698180878336,1698180882813,\Highly agree\,\Highly agree\,\4\,1698180881971,1698180881971,3635,3635,4477,buq,qns-item-noham,86,654257,0.0-1.0-0.85
<b>It can be hard to realize that my beliefs are in conflict.,Highly disagree,87/150,Somewhat agree,3,1698180882817,1698180887277,\Somewhat agree\,\Somewhat agree\,\3\,1698180886681,1698180886681,3864,3864,4460,buq,qns-item-noham,87,658721,0.0-1.0-0.86
<b>I form my political views only after meticulously gathering historical and present information about their policies.,Highly disagree,88/150,Highly disagree,1,1698180887282,1698180892966,\Highly disagree\,\Highly disagree\,\1\,1698180892300,1698180892300,5018,5018,5684,buq,qns-item-noham,88,664410,0.0-1.0-0.87
<b>Skeptical people are usually just bad-tempered.,Highly disagree,89/150,Somewhat disagree,2,1698180892970,1698180897021,\Somewhat disagree\,\Somewhat disagree\,\2\,1698180896542,1698180896542,3572,3572,4051,buq,qns-item-noham,89,668465,0.0-1.0-0.88
<b>It is difficult for me to remember the last time I was surprised by politics.,Highly disagree,90/150,Highly disagree,1,1698180897034,1698180906093,\Highly disagree\,\Highly disagree\,\1\,1698180905377,1698180905377,8343,8343,9059,buq,qns-item-noham,90,677537,0.0-1.0-0.89
"<b>When I find out I?m wrong, I think a lot about my related beliefs.",Highly disagree,91/150,Highly disagree,1,1698180906097,1698180908896,\Highly disagree\,\Highly disagree\,\1\,1698180908344,1698180908344,2247,2247,2799,buq,qns-item-noham,91,680340,0.0-1.0-0.90
"<b>If the political party I support messes up, it makes me think you can?t trust anyone these days",Highly disagree,92/150,Somewhat disagree,2,1698180908900,1698180914777,\Somewhat disagree\,\Somewhat disagree\,\2\,1698180914308,1698180914308,5408,5408,5877,buq,qns-item-noham,92,686221,0.0-1.0-0.91
<b>People?s brains turn off when they talk about politics.,Highly disagree,93/150,Somewhat agree,3,1698180914780,1698180917694,\Somewhat agree\,\Somewhat agree\,\3\,1698180917277,1698180917277,2497,2497,2914,buq,qns-item-noham,93,689138,0.0-1.0-0.92
<b>People who are wrong are usually just ignoring the obvious.,Highly disagree,94/150,Somewhat agree,3,1698180917697,1698180922889,\Highly agree\,\Somewhat agree\,\4\,1698180921673,1698180922361,3976,4664,5192,buq,qns-item-noham,94,694333,0.0-1.0-0.93
"<b>The world isn?t that complicated, but it?s still hard to figure out how it works.",Highly disagree,95/150,Somewhat agree,3,1698180922893,1698180931433,\Somewhat agree\,\Somewhat agree\,\3\,1698180928042,1698180928042,5149,5149,8540,buq,qns-item-noham,95,702877,0.0-1.0-0.94
"<b>When forming my views on people, I rely more on what they are like now rather than rely on my past experience with them.",Highly disagree,96/150,Somewhat disagree,2,1698180931436,1698180957738,\Somewhat disagree\,\Somewhat disagree\,\2\,1698180957062,1698180957062,25626,25626,26302,buq,qns-item-noham,96,729182,0.0-1.0-0.95
"<b>When people contradict my beliefs, I usually know about their evidence already.",Highly disagree,97/150,Highly disagree,1,1698180957741,1698180962840,\Highly disagree\,\Highly disagree\,\1\,1698180962269,1698180962269,4528,4528,5099,buq,qns-item-noham,97,734284,0.0-1.0-0.96
<b>Being wrong is a matter of degree.,Highly disagree,98/150,Somewhat agree,3,1698180962845,1698180966103,\Somewhat agree\,\Somewhat agree\,\3\,1698180965705,1698180965705,2860,2860,3258,buq,qns-item-noham,98,737547,0.0-1.0-0.97
<b>Figuring out what?s true and what?s false mainly requires a strong moral compass.,Highly disagree,99/150,Somewhat agree,3,1698180966109,1698180970895,\Somewhat agree\,\Somewhat agree\,\3\,1698180970466,1698180970466,4357,4357,4786,buq,qns-item-noham,99,742339,0.0-1.0-0.98
<b>Most of the beliefs people have are at least somewhat understandable.,Highly disagree,100/150,Somewhat agree,3,1698180970898,1698180976187,\Somewhat agree\,\Somewhat agree\,\3\,1698180975582,1698180975582,4684,4684,5289,buq,qns-item-noham,100,747631,0.0-1.0-0.99
"<b>Usually I?m wrong about simple things, not complicated ones.",Highly disagree,101/150,Somewhat disagree,2,1698180976190,1698180982691,\Somewhat disagree\,\Somewhat disagree\,\2\,1698180982326,1698180982326,6136,6136,6501,buq,qns-item-noham,101,754135,0.0-1.0-0.100
<b>Getting all the information I want about important things is hard.,Highly disagree,102/150,Somewhat agree,3,1698180982694,1698181021428,\Somewhat agree\,\Somewhat agree\,\3\,1698181020999,1698181020999,38305,38305,38734,buq,qns-item-noham,102,792872,0.0-1.0-0.101
<b>Most false beliefs spread because people try to deceive one another.,Highly disagree,103/150,Highly agree,4,1698181021431,1698181026561,\Highly agree\,\Highly agree\,\4\,1698181025804,1698181025804,4373,4373,5130,buq,qns-item-noham,103,798005,0.0-1.0-0.102
<b>I can usually find something to agree with in most people?s beliefs.,Highly disagree,104/150,Somewhat agree,3,1698181026565,1698181031979,\Somewhat agree\,\Somewhat agree\,\3\,1698181031485,1698181031485,4920,4920,5414,buq,qns-item-noham,104,803424,0.0-1.0-0.103
<b>I only form my views of people once I get to know them very well.,Highly disagree,105/150,Somewhat disagree,2,1698181031990,1698181037229,\Somewhat disagree\,\Somewhat disagree\,\2\,1698181036766,1698181036766,4776,4776,5239,buq,qns-item-noham,105,808673,0.0-1.0-0.104
"<b>When people tell me important things about the world, I usually believe them.",Highly disagree,106/150,Somewhat disagree,2,1698181037236,1698181043096,\Highly disagree\,\Somewhat disagree\,\1\,1698181041452,1698181042514,4216,5278,5860,buq,qns-item-noham,106,814540,0.0-1.0-0.105
"<b>If a friend does something that upsets me, it reminds me what an unpredictable place the world is.",Highly disagree,107/150,Somewhat disagree,2,1698181043101,1698181049447,\Somewhat disagree\,\Somewhat disagree\,\2\,1698181049019,1698181049019,5918,5918,6346,buq,qns-item-noham,107,820892,0.0-1.0-0.106
<b>Having some conflicting beliefs is inevitable.,Highly disagree,108/150,Highly agree,4,1698181049451,1698181052683,\Highly agree\,\Highly agree\,\4\,1698181052099,1698181052099,2648,2648,3232,buq,qns-item-noham,108,824127,0.0-1.0-0.107
<b>People are wrong because they haven?t thought much about things.,Highly disagree,109/150,Highly disagree,1,1698181052686,1698181058290,\Highly disagree\,\Highly disagree\,\1\,1698181057898,1698181057898,5212,5212,5604,buq,qns-item-noham,109,829734,0.0-1.0-0.108
<b>People tend to believe whatever is good for their friends.,Highly disagree,110/150,Somewhat agree,3,1698181058294,1698181063119,\Somewhat disagree\,\Somewhat agree\,\2\,1698181061940,1698181062701,3646,4407,4825,buq,qns-item-noham,110,834563,0.0-1.0-0.109
"<b>When I talk about important topics, I try to make sure people know I?m not always right.",Highly disagree,111/150,Somewhat disagree,2,1698181063124,1698181109895,\Somewhat disagree\,\Somewhat disagree\,\2\,1698181109458,1698181109458,46334,46334,46771,buq,qns-item-noham,111,881339,0.0-1.0-0.110
<b>I used to be more certain my beliefs were true.,Highly disagree,112/150,Somewhat disagree,2,1698181109901,1698181115127,\Somewhat disagree\,\Somewhat disagree\,\2\,1698181114762,1698181114762,4861,4861,5226,buq,qns-item-noham,112,886571,0.0-1.0-0.111
<b>It?s often pretty easy to figure out whether something is true based on who said it.,Highly disagree,113/150,Somewhat agree,3,1698181115138,1698181119696,\Somewhat agree\,\Somewhat agree\,\3\,1698181119294,1698181119294,4156,4156,4558,buq,qns-item-noham,113,891140,0.0-1.0-0.112
<b>Having bad food in my favorite restaurant will make me think the restaurant is no longer good.,Highly disagree,114/150,Somewhat agree,3,1698181119699,1698181125291,\Somewhat agree\,\Somewhat agree\,\3\,1698181124844,1698181124844,5145,5145,5592,buq,qns-item-noham,114,896735,0.0-1.0-0.113
<b>I transform into a hummingbird every day.,Highly disagree,115/150,Highly disagree,1,1698181125302,1698181128173,\Highly disagree\,\Highly disagree\,\1\,1698181127491,1698181127491,2189,2189,2871,buq,qns-item-noham,115,899617,0.0-1.0-0.114
"<b>Unfortunately, when people are wrong, it?s usually because they?re bad.",Highly disagree,116/150,Somewhat disagree,2,1698181128182,1698181132163,\Somewhat disagree\,\Somewhat disagree\,\2\,1698181131757,1698181131757,3575,3575,3981,buq,qns-item-noham,116,903607,0.0-1.0-0.115
<b>I think a lot about arguments against my views.,Highly disagree,117/150,Somewhat disagree,2,1698181132167,1698181135608,\Somewhat disagree\,\Somewhat disagree\,\2\,1698181135193,1698181135193,3026,3026,3441,buq,qns-item-noham,117,907052,0.0-1.0-0.116
<b>Details tend to matter a lot for knowing whether a policy is good.,Highly disagree,118/150,Highly agree,4,1698181135617,1698181142190,\Highly agree\,\Highly agree\,\4\,1698181141587,1698181141587,5970,5970,6573,buq,qns-item-noham,118,913634,0.0-1.0-0.117
<b>Personal experience is usually more important than facts and figures.,Highly disagree,119/150,Somewhat disagree,2,1698181142194,1698181147724,\Somewhat disagree\,\Somewhat disagree\,\2\,1698181147307,1698181147307,5113,5113,5530,buq,qns-item-noham,119,919168,0.0-1.0-0.118
<b>I?ve been tricked before about important matters.,Highly disagree,120/150,Somewhat agree,3,1698181147728,1698181151472,\Highly agree\,\Somewhat agree\,\4\,1698181150099,1698181150941,2371,3213,3744,buq,qns-item-noham,120,922916,0.0-1.0-0.119
<b>I would need to be totally wowed if I were to change my opinion of a restaurant I don?t like.,Highly disagree,121/150,Highly agree,4,1698181151474,1698181163678,\Highly agree\,\Highly agree\,\4\,1698181163019,1698181163019,11545,11545,12204,buq,qns-item-noham,121,935122,0.0-1.0-0.120
<b>I care a lot about politics.,Highly disagree,122/150,Highly agree,4,1698181163683,1698181166260,\Highly agree\,\Highly agree\,\4\,1698181165697,1698181165697,2014,2014,2577,buq,qns-item-noham,122,937705,0.0-1.0-0.121
<b>People with conflicting beliefs usually have some facts they disagree on.,Highly disagree,123/150,Somewhat agree,3,1698181166264,1698181171646,\Somewhat agree\,\Somewhat agree\,\3\,1698181171179,1698181171179,4915,4915,5382,buq,qns-item-noham,123,943090,0.0-1.0-0.122
<b>There are some topics I?ve been really wrong about.,Highly disagree,124/150,Somewhat agree,3,1698181171649,1698181182336,\Somewhat agree\,\Somewhat agree\,\3\,1698181181878,1698181181878,10229,10229,10687,buq,qns-item-noham,124,953781,0.0-1.0-0.123
<b>Most beliefs can be supported with at least some evidence.,Highly disagree,125/150,Somewhat agree,3,1698181182339,1698181196812,\Somewhat agree\,\Somewhat agree\,\3\,1698181196274,1698181196274,13935,13935,14473,buq,qns-item-noham,125,968256,0.0-1.0-0.124
<b>Other people make life out to be more complicated than it really is.,Highly disagree,126/150,Somewhat disagree,2,1698181196815,1698181209523,\Somewhat disagree\,\Somewhat disagree\,\2\,1698181209101,1698181209101,12286,12286,12708,buq,qns-item-noham,126,980968,0.0-1.0-0.125
"<b>My political views are being shaped continuously as I gather more information, rather than relying on what I?ve known to be true of my party in the past. ",Highly disagree,127/150,Somewhat agree,3,1698181209528,1698181216455,\Somewhat agree\,\Somewhat agree\,\3\,1698181215946,1698181215946,6418,6418,6927,buq,qns-item-noham,127,987899,0.0-1.0-0.126
<b>It?s pretty unusual for true things to seem false.,Highly disagree,128/150,Somewhat disagree,2,1698181216458,1698181222377,\Somewhat disagree\,\Somewhat disagree\,\2\,1698181221908,1698181221908,5450,5450,5919,buq,qns-item-noham,128,993822,0.0-1.0-0.127
"<b>Policy details don?t matter much, just the big picture.",Highly disagree,129/150,Highly disagree,1,1698181222382,1698181227743,\Highly disagree\,\Highly disagree\,\1\,1698181226912,1698181226912,4530,4530,5361,buq,qns-item-noham,129,999187,0.0-1.0-0.128
<b>I know my friends so well they can hardly ever surprise me.,Highly disagree,130/150,Somewhat disagree,2,1698181227747,1698181232198,\Somewhat disagree\,\Somewhat disagree\,\2\,1698181231811,1698181231811,4064,4064,4451,buq,qns-item-noham,130,1003642,0.0-1.0-0.129
"<b>When I talk to people, I often think about why they have the beliefs they do.",Highly disagree,131/150,Highly disagree,1,1698181232200,1698181237958,\Highly disagree\,\Highly disagree\,\1\,1698181237520,1698181237520,5320,5320,5758,buq,qns-item-noham,131,1009402,0.0-1.0-0.130
<b>I do not often change my views on people.,Highly disagree,132/150,Highly agree,4,1698181237961,1698181245141,\Highly agree\,\Highly agree\,\4\,1698181244537,1698181244537,6576,6576,7180,buq,qns-item-noham,132,1016585,0.0-1.0-0.131
<b>I often wish I had more time to spend figuring out what?s true and what?s false in life.,Highly disagree,133/150,Somewhat disagree,2,1698181245145,1698181257559,\Somewhat disagree\,\Somewhat disagree\,\2\,1698181257081,1698181257081,11936,11936,12414,buq,qns-item-noham,133,1029003,0.0-1.0-0.132
<b>I?m more certain about my beliefs than I used to be.,Highly disagree,134/150,Highly agree,4,1698181257562,1698181260934,\Highly agree\,\Highly agree\,\4\,1698181260372,1698181260372,2810,2810,3372,buq,qns-item-noham,134,1032378,0.0-1.0-0.133
"<b>Whenever I find out new information, I update my views on politics accordingly.",Highly disagree,135/150,Somewhat agree,3,1698181260944,1698181271585,\Somewhat agree\,\Somewhat agree\,\3\,1698181271001,1698181271001,10057,10057,10641,buq,qns-item-noham,135,1043029,0.0-1.0-0.134
<b>People often tell falsehoods unintentionally.,Highly disagree,136/150,Somewhat disagree,2,1698181271589,1698181275282,\Somewhat disagree\,\Somewhat disagree\,\2\,1698181274551,1698181274551,2962,2962,3693,buq,qns-item-noham,136,1046726,0.0-1.0-0.135
<b>Most people don?t know much about most things.,Highly disagree,137/150,Highly agree,4,1698181275286,1698181278353,\Highly agree\,\Highly agree\,\4\,1698181277749,1698181277749,2463,2463,3067,buq,qns-item-noham,137,1049797,0.0-1.0-0.136
"<b>If I find out something new about someone, I easily change my views about them.",Highly disagree,138/150,Somewhat disagree,2,1698181278356,1698181289282,\Somewhat disagree\,\Somewhat disagree\,\2\,1698181288737,1698181288737,10381,10381,10926,buq,qns-item-noham,138,1060726,0.0-1.0-0.137
<b>Having true beliefs is difficult.,Highly disagree,139/150,Highly agree,4,1698181289295,1698181292571,\Highly agree\,\Highly agree\,\4\,1698181292010,1698181292010,2715,2715,3276,buq,qns-item-noham,139,1064015,0.0-1.0-0.138
<b>I don?t try new foods since I know I won?t like them.,Highly disagree,140/150,Highly disagree,1,1698181292574,1698181297484,\Highly disagree\,\Highly disagree\,\1\,1698181296881,1698181296881,4307,4307,4910,buq,qns-item-noham,140,1068928,0.0-1.0-0.139
<b>It?s easy to figure out what?s true or false based on who?s saying it.,Highly disagree,141/150,Somewhat agree,3,1698181297487,1698181301448,\Somewhat agree\,\Somewhat agree\,\3\,1698181300853,1698181300853,3366,3366,3961,buq,qns-item-noham,141,1072892,0.0-1.0-0.140
<b>False things have seemed true to me many times.,Highly disagree,142/150,Somewhat disagree,2,1698181301451,1698181312584,\Somewhat disagree\,\Somewhat disagree\,\2\,1698181312157,1698181312157,10706,10706,11133,buq,qns-item-noham,142,1084028,0.0-1.0-0.141
<b>It?s pretty easy to sort out what?s true and what?s false in life.,Highly disagree,143/150,Somewhat agree,3,1698181312587,1698181316282,\Somewhat agree\,\Somewhat agree\,\3\,1698181315800,1698181315800,3213,3213,3695,buq,qns-item-noham,143,1087726,0.0-1.0-0.142
<b>Knowing lots of statistics about something is usually important for understanding it.,Highly disagree,144/150,Somewhat agree,3,1698181316286,1698181340093,\Somewhat agree\,\Somewhat agree\,\3\,1698181339541,1698181339541,23255,23255,23807,buq,qns-item-noham,144,1111537,0.0-1.0-0.143
<b>Other people trick each other a lot.,Highly disagree,145/150,Somewhat disagree,2,1698181340098,1698181342948,\Somewhat disagree\,\Somewhat disagree\,\2\,1698181342418,1698181342418,2320,2320,2850,buq,qns-item-noham,145,1114392,0.0-1.0-0.144
<b>I would need to learn a lot about a person for my opinion of them to be swayed.,Highly disagree,146/150,Highly agree,4,1698181342953,1698181356334,\Highly agree\,\Highly agree\,\4\,1698181355273,1698181355273,12320,12320,13381,buq,qns-item-noham,146,1127778,0.0-1.0-0.145
<b>People can?t usually trick me when it comes to topics I care about.,Highly disagree,147/150,Highly agree,4,1698181356337,1698181360535,\Highly agree\,\Highly agree\,\4\,1698181360036,1698181360036,3699,3699,4198,buq,qns-item-noham,147,1131979,0.0-1.0-0.146
<b>I do not often change my views on food.,Highly disagree,148/150,Somewhat agree,3,1698181360539,1698181364087,\Somewhat agree\,\Somewhat agree\,\3\,1698181363649,1698181363649,3110,3110,3548,buq,qns-item-noham,148,1135531,0.0-1.0-0.147
<b>Specific policies are often very important to me.,Highly disagree,149/150,Somewhat agree,3,1698181364096,1698181368582,\Somewhat agree\,\Somewhat agree\,\3\,1698181367662,1698181367662,3566,3566,4486,buq,qns-item-noham,149,1140026,0.0-1.0-0.148
<b>Most people are woefully under-informed.,Highly disagree,150/150,Highly agree,4,1698181368589,1698181371439,\Highly agree\,\Highly agree\,\4\,1698181370788,1698181370788,2199,2199,2850,buq,qns-item-noham,150,1142883,0.0-1.0-0.149
