Question,qns_options,quest_num,answer,answer_num,question_load_timestamp,next_btn_timestamp,text_selected,final_text_selected,option_num_selected,preview_timestamps,final_text_selected_time_stamp,rt_first_option_click,rt_final_option_click,rt_submit_click,questionnaire,trial_type,trial_index,time_elapsed,internal_node_id
<b>Considering other people?s perspectives can help us figure out what?s true or false.,Highly disagree,1/150,Highly agree,4,1698240569125,1698240573443,\Highly agree\,\Highly agree\,\4\,1698240572282,1698240572282,3157,3157,4318,buq,qns-item-noham,1,6705,0.0-1.0-0.0
<b>Knowing what?s true and knowing what to do about it are usually basically the same.,Highly disagree,2/150,Highly disagree,1,1698240573446,1698240576390,\Highly disagree\,\Highly disagree\,\1\,1698240575552,1698240575552,2106,2106,2944,buq,qns-item-noham,2,9652,0.0-1.0-0.1
<b>Most people just believe whatever is convenient for them.,Highly disagree,3/150,Highly agree,4,1698240576391,1698240579473,\Somewhat agree\,\Highly agree\,\3\,1698240578283,1698240578786,1892,2395,3082,buq,qns-item-noham,3,12735,0.0-1.0-0.2
<b>Even people who are wrong about most things can be right sometimes.,Highly disagree,4/150,Highly agree,4,1698240579475,1698240581826,\Highly agree\,\Highly agree\,\4\,1698240581030,1698240581030,1555,1555,2351,buq,qns-item-noham,4,15088,0.0-1.0-0.3
"<b>If the political party I support does something that upsets me, then the party may have changed, and I need to re-evaluate my support.",Highly disagree,5/150,Somewhat disagree,2,1698240581827,1698240586580,\Somewhat disagree\,\Somewhat disagree\,\2\,1698240585920,1698240585920,4093,4093,4753,buq,qns-item-noham,5,19842,0.0-1.0-0.4
"<b>When people disagree, one side is usually completely right.",Highly disagree,6/150,Highly disagree,1,1698240586581,1698240588874,\Highly disagree\,\Highly disagree\,\1\,1698240588250,1698240588250,1669,1669,2293,buq,qns-item-noham,6,22136,0.0-1.0-0.5
<b>People have lots of false beliefs.,Highly disagree,7/150,Highly agree,4,1698240588875,1698240591204,\Highly agree\,\Highly agree\,\4\,1698240590509,1698240590509,1634,1634,2329,buq,qns-item-noham,7,24466,0.0-1.0-0.6
<b>Having some big beliefs helps me sort out minor ones.,Highly disagree,8/150,Highly agree,4,1698240591205,1698240593678,\Highly agree\,\Highly agree\,\4\,1698240592990,1698240592990,1785,1785,2473,buq,qns-item-noham,8,26940,0.0-1.0-0.7
<b>Political questions are usually pretty complicated.,Highly disagree,9/150,Highly agree,4,1698240593679,1698240596453,\Highly agree\,\Highly agree\,\4\,1698240595807,1698240595807,2128,2128,2774,buq,qns-item-noham,9,29715,0.0-1.0-0.8
<b>Figuring out what?s important in life requires learning a lot of facts.,Highly disagree,10/150,Highly agree,4,1698240596454,1698240598697,\Highly agree\,\Highly agree\,\4\,1698240598066,1698240598066,1612,1612,2243,buq,qns-item-noham,10,31959,0.0-1.0-0.9
<b>It is difficult for me to remember the last time I was surprised by politics.,Highly disagree,11/150,Highly disagree,1,1698240598698,1698240601336,\Highly disagree\,\Highly disagree\,\1\,1698240600777,1698240600777,2079,2079,2638,buq,qns-item-noham,11,34598,0.0-1.0-0.10
<b>People?s false beliefs are understandable.,Highly disagree,12/150,Somewhat disagree,2,1698240601338,1698240603445,\Somewhat disagree\,\Somewhat disagree\,\2\,1698240602770,1698240602770,1432,1432,2107,buq,qns-item-noham,12,36707,0.0-1.0-0.11
<b>I spend a lot of time trying to be informed about politics.,Highly disagree,13/150,Highly disagree,1,1698240603447,1698240609474,\Highly disagree\,\Highly disagree\,\1\,1698240608872,1698240608872,5425,5425,6027,buq,qns-item-noham,13,42736,0.0-1.0-0.12
<b>I think a lot about whether my beliefs are right.,Highly disagree,14/150,Highly agree,4,1698240609475,1698240611539,\Highly agree\,\Highly agree\,\4\,1698240610772,1698240610772,1297,1297,2064,buq,qns-item-noham,14,44801,0.0-1.0-0.13
<b>Statistics can be pretty misleading sometimes.,Highly disagree,15/150,Somewhat agree,3,1698240611540,1698240613826,\Somewhat agree\,\Somewhat agree\,\3\,1698240613174,1698240613174,1634,1634,2286,buq,qns-item-noham,15,47088,0.0-1.0-0.14
<b>Figuring out what?s true and what?s false takes a lot of time and effort.,Highly disagree,16/150,Highly agree,4,1698240613827,1698240615963,\Highly agree\,\Highly agree\,\4\,1698240615175,1698240615175,1348,1348,2136,buq,qns-item-noham,16,49225,0.0-1.0-0.15
"<b>If a friend does something bad to me, it was likely an error on their part.",Highly disagree,17/150,Somewhat disagree,2,1698240615964,1698240621040,\Somewhat agree\,\Somewhat disagree\,\3\,1698240619491,1698240620424,3527,4460,5076,buq,qns-item-noham,17,54302,0.0-1.0-0.16
<b>I have lots of beliefs that I?m only sort of sure about.,Highly disagree,18/150,Highly agree,4,1698240621042,1698240623341,\Highly agree\,\Highly agree\,\4\,1698240622703,1698240622703,1661,1661,2299,buq,qns-item-noham,18,56603,0.0-1.0-0.17
"<b>If I go to my favorite restaurant and the food is surprisingly bad, it reminds me there are many disappointments in life.",Highly disagree,19/150,Highly disagree,1,1698240623342,1698240628096,\Highly disagree\,\Highly disagree\,\1\,1698240626333,1698240626333,2991,2991,4754,buq,qns-item-noham,19,61358,0.0-1.0-0.18
<b>Sometimes my beliefs are inconvenient for me.,Highly disagree,20/150,Somewhat agree,3,1698240628097,1698240630362,\Somewhat agree\,\Somewhat agree\,\3\,1698240629738,1698240629738,1641,1641,2265,buq,qns-item-noham,20,63624,0.0-1.0-0.19
<b>Paying attention to multiple news sources is important.,Highly disagree,21/150,Highly agree,4,1698240630363,1698240632412,\Highly agree\,\Highly agree\,\4\,1698240631839,1698240631839,1476,1476,2049,buq,qns-item-noham,21,65674,0.0-1.0-0.20
"<b>If you are paying attention, please select ?Somewhat agree?",Highly disagree,22/150,Somewhat agree,3,1698240632414,1698240634485,\Somewhat agree\,\Somewhat agree\,\3\,1698240633803,1698240633803,1389,1389,2071,buq,qns-item-noham,22,67747,0.0-1.0-0.21
"<b>When I talk to others, I often worry I?ll convince them of something I didn?t mean to.",Highly disagree,23/150,Highly agree,4,1698240634486,1698240638061,\Highly agree\,\Highly agree\,\4\,1698240637381,1698240637381,2895,2895,3575,buq,qns-item-noham,23,71323,0.0-1.0-0.22
<b>I would need to learn something utterly shocking about my party in order to change my political views.,Highly disagree,24/150,Highly agree,4,1698240638062,1698240641661,\Highly agree\,\Highly agree\,\4\,1698240641024,1698240641024,2962,2962,3599,buq,qns-item-noham,24,74923,0.0-1.0-0.23
"<b>When I have new experiences, I tend to think of them as unique.",Highly disagree,25/150,Highly agree,4,1698240641662,1698240643869,\Highly agree\,\Highly agree\,\4\,1698240643218,1698240643218,1556,1556,2207,buq,qns-item-noham,25,77131,0.0-1.0-0.24
<b>Reading lots of things is important for understanding the world.,Highly disagree,26/150,Highly agree,4,1698240643870,1698240645999,\Highly agree\,\Highly agree\,\4\,1698240645289,1698240645289,1419,1419,2129,buq,qns-item-noham,26,79261,0.0-1.0-0.25
<b>The world is complicated.,Highly disagree,27/150,Highly agree,4,1698240646000,1698240647942,\Highly agree\,\Highly agree\,\4\,1698240647233,1698240647233,1233,1233,1942,buq,qns-item-noham,27,81204,0.0-1.0-0.26
<b>I change my mind about specific policies pretty frequently.,Highly disagree,28/150,Highly disagree,1,1698240647943,1698240650688,\Highly disagree\,\Highly disagree\,\1\,1698240650029,1698240650029,2086,2086,2745,buq,qns-item-noham,28,83950,0.0-1.0-0.27
"<b>If a politician in my political party supports something I disagree with, I give them the benefit of the doubt, as such issues often involve hidden complexities that aren?t obvious.   ",Highly disagree,29/150,Highly agree,4,1698240650690,1698240654990,\Highly agree\,\Highly agree\,\4\,1698240654346,1698240654346,3656,3656,4300,buq,qns-item-noham,29,88252,0.0-1.0-0.28
<b>People?s bad politics are usually motivated by hatefulness.,Highly disagree,30/150,Highly agree,4,1698240654992,1698240657406,\Highly agree\,\Highly agree\,\4\,1698240656819,1698240656819,1827,1827,2414,buq,qns-item-noham,30,90668,0.0-1.0-0.29
"<b>Most new experiences are just like old ones, but a little bit different.",Highly disagree,31/150,Highly agree,4,1698240657408,1698240660777,\Highly agree\,\Highly agree\,\4\,1698240660153,1698240660153,2745,2745,3369,buq,qns-item-noham,31,94039,0.0-1.0-0.30
<b>I think a lot about how to reconcile my beliefs with one another.,Highly disagree,32/150,Somewhat disagree,2,1698240660778,1698240664584,\Highly agree\,\Somewhat disagree\,\4\,1698240662670,1698240663982,1892,3204,3806,buq,qns-item-noham,32,97846,0.0-1.0-0.31
<b>Personal experience rarely leads people astray.,Highly disagree,33/150,Highly agree,4,1698240664585,1698240666850,\Highly agree\,\Highly agree\,\4\,1698240666219,1698240666219,1634,1634,2265,buq,qns-item-noham,33,100112,0.0-1.0-0.32
<b>I might have false beliefs about important topics.,Highly disagree,34/150,Highly agree,4,1698240666851,1698240669854,\Highly disagree\,\Highly agree\,\1\,1698240668708,1698240669281,1857,2430,3003,buq,qns-item-noham,34,103116,0.0-1.0-0.33
"<b>If a good friend of mine does something unexpected that upsets me, I feel like I don?t know them anymore.",Highly disagree,35/150,Highly disagree,1,1698240669855,1698240672894,\Highly disagree\,\Highly disagree\,\1\,1698240672285,1698240672285,2430,2430,3039,buq,qns-item-noham,35,106156,0.0-1.0-0.34
<b>Other people?s beliefs are often incoherent.,Highly disagree,36/150,Somewhat disagree,2,1698240672895,1698240675159,\Somewhat disagree\,\Somewhat disagree\,\2\,1698240674579,1698240674579,1684,1684,2264,buq,qns-item-noham,36,108421,0.0-1.0-0.35
<b>It?s important to have friends who think about things differently than I do.,Highly disagree,37/150,Highly agree,4,1698240675160,1698240677518,\Highly agree\,\Highly agree\,\4\,1698240676895,1698240676895,1735,1735,2358,buq,qns-item-noham,37,110780,0.0-1.0-0.36
"<b>Every now and then, a new experience will unsettle beliefs I?ve had for a while.",Highly disagree,38/150,Somewhat agree,3,1698240677519,1698240680071,\Somewhat agree\,\Somewhat agree\,\3\,1698240679454,1698240679454,1935,1935,2552,buq,qns-item-noham,38,113333,0.0-1.0-0.37
<b>Some policies I agree with in principle are so bad I don?t support them. ,Highly disagree,39/150,Highly agree,4,1698240680072,1698240685628,\Highly disagree\,\Highly agree\,\1\,1698240683671,1698240684954,3599,4882,5556,buq,qns-item-noham,39,118890,0.0-1.0-0.38
<b>I?m pretty sure I?ve accidentally spread false information.,Highly disagree,40/150,Somewhat agree,3,1698240685630,1698240687915,\Somewhat agree\,\Somewhat agree\,\3\,1698240687241,1698240687241,1611,1611,2285,buq,qns-item-noham,40,121177,0.0-1.0-0.39
"<b>If I go to my favorite restaurant and the food is unexpectedly bad, then they have changed owners.",Highly disagree,41/150,Highly disagree,1,1698240687916,1698240690610,\Highly disagree\,\Highly disagree\,\1\,1698240689951,1698240689951,2035,2035,2694,buq,qns-item-noham,41,123872,0.0-1.0-0.40
"<b>In politics, it?s important to trust your friends and family.",Highly disagree,42/150,Highly agree,4,1698240690611,1698240693027,\Highly agree\,\Highly agree\,\4\,1698240692324,1698240692324,1713,1713,2416,buq,qns-item-noham,42,126289,0.0-1.0-0.41
<b>It?s OK to have some conflicting beliefs.,Highly disagree,43/150,Highly agree,4,1698240693028,1698240695170,\Highly agree\,\Highly agree\,\4\,1698240694523,1698240694523,1495,1495,2142,buq,qns-item-noham,43,128432,0.0-1.0-0.42
<b>Sometimes the details of a matter seem to conflict with the big picture.,Highly disagree,44/150,Highly agree,4,1698240695171,1698240697528,\Highly agree\,\Highly agree\,\4\,1698240696852,1698240696852,1681,1681,2357,buq,qns-item-noham,44,130790,0.0-1.0-0.43
<b>Listening to people I disagree with makes my opinions better.,Highly disagree,45/150,Somewhat agree,3,1698240697529,1698240700684,\Somewhat agree\,\Somewhat agree\,\3\,1698240700064,1698240700064,2535,2535,3155,buq,qns-item-noham,45,133946,0.0-1.0-0.44
<b>Policies that sound bad are sometimes fine when you find out about their details.,Highly disagree,46/150,Highly agree,4,1698240700685,1698240711554,\Highly agree\,\Highly agree\,\4\,1698240710549,1698240710549,9864,9864,10869,buq,qns-item-noham,46,144816,0.0-1.0-0.45
"<b>The world is always changing, so my beliefs are sometimes out-dated.",Highly disagree,47/150,Highly agree,4,1698240711555,1698240713697,\Highly agree\,\Highly agree\,\4\,1698240712964,1698240712964,1409,1409,2142,buq,qns-item-noham,47,146959,0.0-1.0-0.46
"<b>If I receive a bad meal at my favorite restaurant and the food is surprisingly bad, I do not think much of it, and assume the chef is just having an ?off? day.",Highly disagree,48/150,Highly agree,4,1698240713698,1698240716918,\Highly agree\,\Highly agree\,\4\,1698240715878,1698240715878,2180,2180,3220,buq,qns-item-noham,48,150180,0.0-1.0-0.47
"<b>False information is unavoidable, to some extent.",Highly disagree,49/150,Highly agree,4,1698240716919,1698240719296,\Highly agree\,\Highly agree\,\4\,1698240718591,1698240718591,1672,1672,2377,buq,qns-item-noham,49,152558,0.0-1.0-0.48
<b>My moral compass sometimes makes it harder to determine what?s true.,Highly disagree,50/150,Highly agree,4,1698240719297,1698240721668,\Highly agree\,\Highly agree\,\4\,1698240720935,1698240720935,1638,1638,2371,buq,qns-item-noham,50,154930,0.0-1.0-0.49
"<b>When you disagree with someone, it?s important to listen to them carefully.",Highly disagree,51/150,Somewhat agree,3,1698240721669,1698240724133,\Somewhat agree\,\Somewhat agree\,\3\,1698240723478,1698240723478,1809,1809,2464,buq,qns-item-noham,51,157395,0.0-1.0-0.50
<b>Evidence pointing in the wrong direction isn?t really evidence at all.,Highly disagree,52/150,Somewhat disagree,2,1698240724134,1698240727588,\Somewhat disagree\,\Somewhat disagree\,\2\,1698240726962,1698240726962,2828,2828,3454,buq,qns-item-noham,52,160850,0.0-1.0-0.51
"<b>If the political party I support messes up, it makes me think politics is rotten.",Highly disagree,53/150,Highly disagree,1,1698240727589,1698240730615,\Highly disagree\,\Highly disagree\,\1\,1698240730046,1698240730046,2457,2457,3026,buq,qns-item-noham,53,163877,0.0-1.0-0.52
<b>Lots of important topics can only really be understood by some groups of people.,Highly disagree,54/150,Highly agree,4,1698240730617,1698240734897,\Highly agree\,\Highly agree\,\4\,1698240734292,1698240734292,3675,3675,4280,buq,qns-item-noham,54,168159,0.0-1.0-0.53
<b>Details almost always matter for being right about something.,Highly disagree,55/150,Highly agree,4,1698240734898,1698240737625,\Highly agree\,\Highly agree\,\4\,1698240736713,1698240736713,1815,1815,2727,buq,qns-item-noham,55,170887,0.0-1.0-0.54
"<b>The most important thing in politics is winning, not convincing people.",Highly disagree,56/150,Somewhat disagree,2,1698240737626,1698240745447,\Somewhat disagree\,\Somewhat disagree\,\2\,1698240744513,1698240744513,6887,6887,7821,buq,qns-item-noham,56,178709,0.0-1.0-0.55
<b>Having conflicting beliefs means you haven?t thought about them enough.,Highly disagree,57/150,Highly disagree,1,1698240745448,1698240764092,\Highly disagree\,\Highly disagree\,\1\,1698240763493,1698240763493,18045,18045,18644,buq,qns-item-noham,57,197354,0.0-1.0-0.56
<b>Other people have sometimes convinced me to change my mind on important topics.,Highly disagree,58/150,Somewhat agree,3,1698240764093,1698240767126,\Somewhat agree\,\Somewhat agree\,\3\,1698240766342,1698240766342,2249,2249,3033,buq,qns-item-noham,58,200388,0.0-1.0-0.57
<b>I do not often change my political opinions.,Highly disagree,59/150,Highly agree,4,1698240767127,1698240769840,\Highly agree\,\Highly agree\,\4\,1698240769149,1698240769149,2022,2022,2713,buq,qns-item-noham,59,203102,0.0-1.0-0.58
<b>Thinking about how different things relate to one another is critical in life.,Highly disagree,60/150,Highly agree,4,1698240769841,1698240772076,\Highly agree\,\Highly agree\,\4\,1698240771357,1698240771357,1516,1516,2235,buq,qns-item-noham,60,205338,0.0-1.0-0.59
<b>True beliefs can have unfortunate implications.,Highly disagree,61/150,Highly agree,4,1698240772077,1698240774085,\Highly agree\,\Highly agree\,\4\,1698240773395,1698240773395,1318,1318,2008,buq,qns-item-noham,61,207347,0.0-1.0-0.60
<b>It?s difficult to not have at least some conflicting beliefs.,Highly disagree,62/150,Highly agree,4,1698240774086,1698240776144,\Highly agree\,\Highly agree\,\4\,1698240775453,1698240775453,1367,1367,2058,buq,qns-item-noham,62,209406,0.0-1.0-0.61
"<b>When I learn new things, I think deeply about how my opinions should change.",Highly disagree,63/150,Somewhat agree,3,1698240776145,1698240778131,\Somewhat agree\,\Somewhat agree\,\3\,1698240777483,1698240777483,1338,1338,1986,buq,qns-item-noham,63,211393,0.0-1.0-0.62
<b>I think a lot about how to interpret different sorts of evidence.,Highly disagree,64/150,Highly agree,4,1698240778133,1698240780560,\Highly agree\,\Highly agree\,\4\,1698240779920,1698240779920,1787,1787,2427,buq,qns-item-noham,64,213822,0.0-1.0-0.63
<b>Politics is about thinking together and finding compromises.,Highly disagree,65/150,Highly agree,4,1698240780561,1698240783039,\Highly agree\,\Highly agree\,\4\,1698240782378,1698240782378,1817,1817,2478,buq,qns-item-noham,65,216301,0.0-1.0-0.64
<b>Wishful thinking causes a lot of problems.,Highly disagree,66/150,Highly disagree,1,1698240783041,1698240785084,\Highly disagree\,\Highly disagree\,\1\,1698240784393,1698240784393,1352,1352,2043,buq,qns-item-noham,66,218346,0.0-1.0-0.65
<b>I judge a food item only once I try it many times.,Highly disagree,67/150,Highly agree,4,1698240785085,1698240789116,\Highly disagree\,\Highly agree\,\1\,1698240787499,1698240788517,2414,3432,4031,buq,qns-item-noham,67,222378,0.0-1.0-0.66
"<b>When a person holds conflicting beliefs, they should really try to figure out what?s wrong.",Highly disagree,68/150,Highly agree,4,1698240789117,1698240802622,\Highly agree\,\Highly agree\,\4\,1698240801809,1698240801809,12692,12692,13505,buq,qns-item-noham,68,235884,0.0-1.0-0.67
<b>Knowing what?s important in life is easy.,Highly disagree,69/150,Somewhat disagree,2,1698240802623,1698240804844,\Somewhat disagree\,\Somewhat disagree\,\2\,1698240804246,1698240804246,1623,1623,2221,buq,qns-item-noham,69,238106,0.0-1.0-0.68
<b>Lots of smart people disagree about basic political questions.,Highly disagree,70/150,Highly agree,4,1698240804845,1698240807060,\Highly agree\,\Highly agree\,\4\,1698240806390,1698240806390,1545,1545,2215,buq,qns-item-noham,70,240322,0.0-1.0-0.69
<b>I swim across the Atlantic Ocean to get to work every day.,Highly disagree,71/150,Highly disagree,1,1698240807061,1698240809418,\Highly disagree\,\Highly disagree\,\1\,1698240808741,1698240808741,1680,1680,2357,buq,qns-item-noham,71,242680,0.0-1.0-0.70
"<b>Sometimes, you just have to ignore evidence that you know is wrong.",Highly disagree,72/150,Highly agree,4,1698240809419,1698240811519,\Highly agree\,\Highly agree\,\4\,1698240810914,1698240810914,1495,1495,2100,buq,qns-item-noham,72,244781,0.0-1.0-0.71
<b>I have had some false beliefs.,Highly disagree,73/150,Highly agree,4,1698240811521,1698240814425,\Highly agree\,\Highly agree\,\4\,1698240813777,1698240813777,2256,2256,2904,buq,qns-item-noham,73,247687,0.0-1.0-0.72
"<b>If one friend does something that upsets me, I sometimes start to distrust people in general.",Highly disagree,74/150,Highly disagree,1,1698240814426,1698240817446,\Highly disagree\,\Highly disagree\,\1\,1698240816840,1698240816840,2414,2414,3020,buq,qns-item-noham,74,250708,0.0-1.0-0.73
<b>I easily apply what I learn in one situation to another.,Highly disagree,75/150,Somewhat agree,3,1698240817448,1698240819975,\Somewhat agree\,\Somewhat agree\,\3\,1698240819338,1698240819338,1890,1890,2527,buq,qns-item-noham,75,253237,0.0-1.0-0.74
<b>The facts about most important matters are easy to find.,Highly disagree,76/150,Somewhat agree,3,1698240819976,1698240822310,\Somewhat agree\,\Somewhat agree\,\3\,1698240821731,1698240821731,1755,1755,2334,buq,qns-item-noham,76,255573,0.0-1.0-0.75
<b>It?s better to know what?s true than to know what?s moral.,Highly disagree,77/150,Highly agree,4,1698240822312,1698240824403,\Highly agree\,\Highly agree\,\4\,1698240823729,1698240823729,1417,1417,2091,buq,qns-item-noham,77,257665,0.0-1.0-0.76
<b>It?s good to be skeptical of people you agree with.,Highly disagree,78/150,Somewhat agree,3,1698240824404,1698240827849,\Highly agree\,\Somewhat agree\,\4\,1698240826144,1698240827254,1740,2850,3445,buq,qns-item-noham,78,261111,0.0-1.0-0.77
<b>Sometimes reasonable beliefs are wrong.,Highly disagree,79/150,Somewhat agree,3,1698240827850,1698240829618,\Somewhat agree\,\Somewhat agree\,\3\,1698240829024,1698240829024,1174,1174,1768,buq,qns-item-noham,79,262880,0.0-1.0-0.78
<b>I used to think the world was less complicated than I do now.,Highly disagree,80/150,Highly disagree,1,1698240829619,1698240832727,\Highly disagree\,\Highly disagree\,\1\,1698240832119,1698240832119,2500,2500,3108,buq,qns-item-noham,80,265989,0.0-1.0-0.79
<b>People are usually completely right or completely wrong.,Highly disagree,81/150,Highly disagree,1,1698240832728,1698240834848,\Highly disagree\,\Highly disagree\,\1\,1698240834282,1698240834282,1554,1554,2120,buq,qns-item-noham,81,268110,0.0-1.0-0.80
<b>I spend a lot of time considering alternatives to my beliefs.,Highly disagree,82/150,Highly disagree,1,1698240834849,1698240837763,\Highly disagree\,\Highly disagree\,\1\,1698240837198,1698240837198,2349,2349,2914,buq,qns-item-noham,82,271025,0.0-1.0-0.81
"<b>Political enemies need to be defeated, not convinced.",Highly disagree,83/150,Highly agree,4,1698240837765,1698240840307,\Highly agree\,\Highly agree\,\4\,1698240839691,1698240839691,1926,1926,2542,buq,qns-item-noham,83,273569,0.0-1.0-0.82
"<b>When forming an opinion about a restaurant, I am more swayed by my  latest meal there than  previous meals I?ve had there.",Highly disagree,84/150,Highly agree,4,1698240840308,1698240843710,\Highly agree\,\Highly agree\,\4\,1698240843087,1698240843087,2779,2779,3402,buq,qns-item-noham,84,276972,0.0-1.0-0.83
<b>I try to remain skeptical about most topics.,Highly disagree,85/150,Somewhat disagree,2,1698240843711,1698240845587,\Somewhat disagree\,\Somewhat disagree\,\2\,1698240845043,1698240845043,1332,1332,1876,buq,qns-item-noham,85,278849,0.0-1.0-0.84
<b>Being wrong is usually obvious in retrospect.,Highly disagree,86/150,Somewhat agree,3,1698240845588,1698240849291,\Somewhat agree\,\Somewhat agree\,\3\,1698240848711,1698240848711,3123,3123,3703,buq,qns-item-noham,86,282553,0.0-1.0-0.85
<b>It can be hard to realize that my beliefs are in conflict.,Highly disagree,87/150,Somewhat agree,3,1698240849292,1698240851375,\Somewhat agree\,\Somewhat agree\,\3\,1698240850853,1698240850853,1561,1561,2083,buq,qns-item-noham,87,284637,0.0-1.0-0.86
<b>I form my political views only after meticulously gathering historical and present information about their policies.,Highly disagree,88/150,Highly disagree,1,1698240851376,1698240855409,\Highly disagree\,\Highly disagree\,\1\,1698240854664,1698240854664,3288,3288,4033,buq,qns-item-noham,88,288671,0.0-1.0-0.87
<b>Skeptical people are usually just bad-tempered.,Highly disagree,89/150,Highly disagree,1,1698240855411,1698240857816,\Highly disagree\,\Highly disagree\,\1\,1698240857164,1698240857164,1753,1753,2405,buq,qns-item-noham,89,291078,0.0-1.0-0.88
<b>It is difficult for me to remember the last time I was surprised by politics.,Highly disagree,90/150,Highly disagree,1,1698240857817,1698240860481,\Highly disagree\,\Highly disagree\,\1\,1698240859944,1698240859944,2127,2127,2664,buq,qns-item-noham,90,293743,0.0-1.0-0.89
"<b>When I find out I?m wrong, I think a lot about my related beliefs.",Highly disagree,91/150,Somewhat disagree,2,1698240860482,1698240865991,\Somewhat disagree\,\Somewhat disagree\,\2\,1698240865109,1698240865109,4627,4627,5509,buq,qns-item-noham,91,299253,0.0-1.0-0.90
"<b>If the political party I support messes up, it makes me think you can?t trust anyone these days",Highly disagree,92/150,Highly disagree,1,1698240865992,1698240871442,\Highly disagree\,\Highly disagree\,\1\,1698240870711,1698240870711,4719,4719,5450,buq,qns-item-noham,92,304704,0.0-1.0-0.91
<b>People?s brains turn off when they talk about politics.,Highly disagree,93/150,Highly agree,4,1698240871444,1698240874121,\Highly agree\,\Highly agree\,\4\,1698240873527,1698240873527,2083,2083,2677,buq,qns-item-noham,93,307383,0.0-1.0-0.92
<b>People who are wrong are usually just ignoring the obvious.,Highly disagree,94/150,Somewhat agree,3,1698240874122,1698240877998,\Somewhat agree\,\Somewhat agree\,\3\,1698240876672,1698240876672,2550,2550,3876,buq,qns-item-noham,94,311260,0.0-1.0-0.93
"<b>The world isn?t that complicated, but it?s still hard to figure out how it works.",Highly disagree,95/150,Highly agree,4,1698240877999,1698240880963,\Highly agree\,\Highly agree\,\4\,1698240880240,1698240880240,2241,2241,2964,buq,qns-item-noham,95,314225,0.0-1.0-0.94
"<b>When forming my views on people, I rely more on what they are like now rather than rely on my past experience with them.",Highly disagree,96/150,Highly agree,4,1698240880965,1698240884631,\Highly agree\,\Highly agree\,\4\,1698240883521,1698240883521,2556,2556,3666,buq,qns-item-noham,96,317893,0.0-1.0-0.95
"<b>When people contradict my beliefs, I usually know about their evidence already.",Highly disagree,97/150,Highly disagree,1,1698240884632,1698240887898,\Highly disagree\,\Highly disagree\,\1\,1698240887347,1698240887347,2715,2715,3266,buq,qns-item-noham,97,321160,0.0-1.0-0.96
<b>Being wrong is a matter of degree.,Highly disagree,98/150,Highly agree,4,1698240887900,1698240890348,\Highly agree\,\Highly agree\,\4\,1698240889689,1698240889689,1789,1789,2448,buq,qns-item-noham,98,323610,0.0-1.0-0.97
<b>Figuring out what?s true and what?s false mainly requires a strong moral compass.,Highly disagree,99/150,Highly agree,4,1698240890349,1698240893034,\Highly agree\,\Highly agree\,\4\,1698240892390,1698240892390,2041,2041,2685,buq,qns-item-noham,99,326296,0.0-1.0-0.98
<b>Most of the beliefs people have are at least somewhat understandable.,Highly disagree,100/150,Highly agree,4,1698240893035,1698240895183,\Highly agree\,\Highly agree\,\4\,1698240894539,1698240894539,1504,1504,2148,buq,qns-item-noham,100,328445,0.0-1.0-0.99
"<b>Usually I?m wrong about simple things, not complicated ones.",Highly disagree,101/150,Highly disagree,1,1698240895184,1698240897927,\Highly disagree\,\Highly disagree\,\1\,1698240897383,1698240897383,2199,2199,2743,buq,qns-item-noham,101,331189,0.0-1.0-0.100
<b>Getting all the information I want about important things is hard.,Highly disagree,102/150,Highly disagree,1,1698240897929,1698240900335,\Highly disagree\,\Highly disagree\,\1\,1698240899719,1698240899719,1790,1790,2406,buq,qns-item-noham,102,333597,0.0-1.0-0.101
<b>Most false beliefs spread because people try to deceive one another.,Highly disagree,103/150,Highly agree,4,1698240900336,1698240903093,\Highly agree\,\Highly agree\,\4\,1698240902505,1698240902505,2169,2169,2757,buq,qns-item-noham,103,336355,0.0-1.0-0.102
<b>I can usually find something to agree with in most people?s beliefs.,Highly disagree,104/150,Highly agree,4,1698240903094,1698240905234,\Highly agree\,\Highly agree\,\4\,1698240904597,1698240904597,1503,1503,2140,buq,qns-item-noham,104,338496,0.0-1.0-0.103
<b>I only form my views of people once I get to know them very well.,Highly disagree,105/150,Highly agree,4,1698240905235,1698240907699,\Highly agree\,\Highly agree\,\4\,1698240907119,1698240907119,1884,1884,2464,buq,qns-item-noham,105,340961,0.0-1.0-0.104
"<b>When people tell me important things about the world, I usually believe them.",Highly disagree,106/150,Somewhat disagree,2,1698240907700,1698240910571,\Somewhat disagree\,\Somewhat disagree\,\2\,1698240910013,1698240910013,2313,2313,2871,buq,qns-item-noham,106,343833,0.0-1.0-0.105
"<b>If a friend does something that upsets me, it reminds me what an unpredictable place the world is.",Highly disagree,107/150,Highly disagree,1,1698240910572,1698240913100,\Highly disagree\,\Highly disagree\,\1\,1698240912391,1698240912391,1819,1819,2528,buq,qns-item-noham,107,346362,0.0-1.0-0.106
<b>Having some conflicting beliefs is inevitable.,Highly disagree,108/150,Highly agree,4,1698240913102,1698240916374,\Somewhat disagree\,\Highly agree\,\2\,1698240915228,1698240915730,2126,2628,3272,buq,qns-item-noham,108,349636,0.0-1.0-0.107
<b>People are wrong because they haven?t thought much about things.,Highly disagree,109/150,Somewhat agree,3,1698240916375,1698240921038,\Highly disagree\,\Somewhat agree\,\1\,1698240919419,1698240919978,3044,3603,4663,buq,qns-item-noham,109,354300,0.0-1.0-0.108
<b>People tend to believe whatever is good for their friends.,Highly disagree,110/150,Highly agree,4,1698240921039,1698240923438,\Highly agree\,\Highly agree\,\4\,1698240922808,1698240922808,1769,1769,2399,buq,qns-item-noham,110,356700,0.0-1.0-0.109
"<b>When I talk about important topics, I try to make sure people know I?m not always right.",Highly disagree,111/150,Somewhat agree,3,1698240923439,1698240926669,\Somewhat agree\,\Somewhat agree\,\3\,1698240926003,1698240926003,2564,2564,3230,buq,qns-item-noham,111,359931,0.0-1.0-0.110
<b>I used to be more certain my beliefs were true.,Highly disagree,112/150,Highly agree,4,1698240926670,1698240930968,\Highly agree\,\Highly agree\,\4\,1698240929907,1698240929907,3237,3237,4298,buq,qns-item-noham,112,364230,0.0-1.0-0.111
<b>It?s often pretty easy to figure out whether something is true based on who said it.,Highly disagree,113/150,Somewhat disagree,2,1698240930969,1698240933918,\Somewhat disagree\,\Somewhat disagree\,\2\,1698240933289,1698240933289,2320,2320,2949,buq,qns-item-noham,113,367180,0.0-1.0-0.112
<b>Having bad food in my favorite restaurant will make me think the restaurant is no longer good.,Highly disagree,114/150,Highly disagree,1,1698240933919,1698240936885,\Highly disagree\,\Highly disagree\,\1\,1698240936197,1698240936197,2278,2278,2966,buq,qns-item-noham,114,370147,0.0-1.0-0.113
<b>I transform into a hummingbird every day.,Highly disagree,115/150,Highly disagree,1,1698240936885,1698240938941,\Highly disagree\,\Highly disagree\,\1\,1698240938332,1698240938332,1447,1447,2056,buq,qns-item-noham,115,372203,0.0-1.0-0.114
"<b>Unfortunately, when people are wrong, it?s usually because they?re bad.",Highly disagree,116/150,Highly disagree,1,1698240938942,1698240941305,\Highly disagree\,\Highly disagree\,\1\,1698240940710,1698240940710,1768,1768,2363,buq,qns-item-noham,116,374567,0.0-1.0-0.115
<b>I think a lot about arguments against my views.,Highly disagree,117/150,Highly disagree,1,1698240941306,1698240943562,\Highly disagree\,\Highly disagree\,\1\,1698240942974,1698240942974,1668,1668,2256,buq,qns-item-noham,117,376824,0.0-1.0-0.116
<b>Details tend to matter a lot for knowing whether a policy is good.,Highly disagree,118/150,Highly agree,4,1698240943563,1698240945911,\Highly agree\,\Highly agree\,\4\,1698240945280,1698240945280,1717,1717,2348,buq,qns-item-noham,118,379173,0.0-1.0-0.117
<b>Personal experience is usually more important than facts and figures.,Highly disagree,119/150,Somewhat disagree,2,1698240945912,1698240948267,\Somewhat disagree\,\Somewhat disagree\,\2\,1698240947623,1698240947623,1711,1711,2355,buq,qns-item-noham,119,381529,0.0-1.0-0.118
<b>I?ve been tricked before about important matters.,Highly disagree,120/150,Somewhat agree,3,1698240948268,1698240951169,\Somewhat agree\,\Somewhat agree\,\3\,1698240950567,1698240950567,2299,2299,2901,buq,qns-item-noham,120,384431,0.0-1.0-0.119
<b>I would need to be totally wowed if I were to change my opinion of a restaurant I don?t like.,Highly disagree,121/150,Highly agree,4,1698240951170,1698240954772,\Highly agree\,\Highly agree\,\4\,1698240954171,1698240954171,3001,3001,3602,buq,qns-item-noham,121,388034,0.0-1.0-0.120
<b>I care a lot about politics.,Highly disagree,122/150,Somewhat disagree,2,1698240954773,1698240957115,\Somewhat disagree\,\Somewhat disagree\,\2\,1698240956563,1698240956563,1790,1790,2342,buq,qns-item-noham,122,390377,0.0-1.0-0.121
<b>People with conflicting beliefs usually have some facts they disagree on.,Highly disagree,123/150,Somewhat agree,3,1698240957116,1698240961263,\Highly agree\,\Somewhat agree\,\4\,1698240959680,1698240960597,2564,3481,4147,buq,qns-item-noham,123,394525,0.0-1.0-0.122
<b>There are some topics I?ve been really wrong about.,Highly disagree,124/150,Highly agree,4,1698240961264,1698240963440,\Highly agree\,\Highly agree\,\4\,1698240962782,1698240962782,1518,1518,2176,buq,qns-item-noham,124,396702,0.0-1.0-0.123
<b>Most beliefs can be supported with at least some evidence.,Highly disagree,125/150,Highly agree,4,1698240963441,1698240965790,\Highly agree\,\Highly agree\,\4\,1698240964923,1698240964923,1482,1482,2349,buq,qns-item-noham,125,399052,0.0-1.0-0.124
<b>Other people make life out to be more complicated than it really is.,Highly disagree,126/150,Somewhat agree,3,1698240965791,1698240974322,\Somewhat agree\,\Somewhat agree\,\3\,1698240973685,1698240973685,7894,7894,8531,buq,qns-item-noham,126,407584,0.0-1.0-0.125
"<b>My political views are being shaped continuously as I gather more information, rather than relying on what I?ve known to be true of my party in the past. ",Highly disagree,127/150,Somewhat agree,3,1698240974323,1698240979237,\Somewhat agree\,\Somewhat agree\,\3\,1698240978592,1698240978592,4269,4269,4914,buq,qns-item-noham,127,412499,0.0-1.0-0.126
<b>It?s pretty unusual for true things to seem false.,Highly disagree,128/150,Highly agree,4,1698240979238,1698240981701,\Highly agree\,\Highly agree\,\4\,1698240981057,1698240981057,1819,1819,2463,buq,qns-item-noham,128,414963,0.0-1.0-0.127
"<b>Policy details don?t matter much, just the big picture.",Highly disagree,129/150,Somewhat disagree,2,1698240981703,1698240983922,\Somewhat disagree\,\Somewhat disagree\,\2\,1698240983342,1698240983342,1639,1639,2219,buq,qns-item-noham,129,417184,0.0-1.0-0.128
<b>I know my friends so well they can hardly ever surprise me.,Highly disagree,130/150,Somewhat agree,3,1698240983923,1698240986917,\Highly agree\,\Somewhat agree\,\4\,1698240985670,1698240986344,1747,2421,2994,buq,qns-item-noham,130,420179,0.0-1.0-0.129
"<b>When I talk to people, I often think about why they have the beliefs they do.",Highly disagree,131/150,Somewhat agree,3,1698240986918,1698240990141,\Somewhat agree\,\Somewhat agree\,\3\,1698240989503,1698240989503,2585,2585,3223,buq,qns-item-noham,131,423403,0.0-1.0-0.130
<b>I do not often change my views on people.,Highly disagree,132/150,Somewhat disagree,2,1698240990142,1698240992633,\Somewhat disagree\,\Somewhat disagree\,\2\,1698240991982,1698240991982,1840,1840,2491,buq,qns-item-noham,132,425895,0.0-1.0-0.131
<b>I often wish I had more time to spend figuring out what?s true and what?s false in life.,Highly disagree,133/150,Highly agree,4,1698240992634,1698240995757,\Highly agree\,\Highly agree\,\4\,1698240995005,1698240995005,2371,2371,3123,buq,qns-item-noham,133,429019,0.0-1.0-0.132
<b>I?m more certain about my beliefs than I used to be.,Highly disagree,134/150,Highly agree,4,1698240995758,1698240998529,\Highly agree\,\Highly agree\,\4\,1698240997899,1698240997899,2141,2141,2771,buq,qns-item-noham,134,431791,0.0-1.0-0.133
"<b>Whenever I find out new information, I update my views on politics accordingly.",Highly disagree,135/150,Somewhat agree,3,1698240998530,1698241000714,\Somewhat agree\,\Somewhat agree\,\3\,1698240999991,1698240999991,1461,1461,2184,buq,qns-item-noham,135,433976,0.0-1.0-0.134
<b>People often tell falsehoods unintentionally.,Highly disagree,136/150,Highly agree,4,1698241000715,1698241003715,\Highly disagree\,\Highly agree\,\1\,1698241002312,1698241002993,1597,2278,3000,buq,qns-item-noham,136,436977,0.0-1.0-0.135
<b>Most people don?t know much about most things.,Highly disagree,137/150,Highly agree,4,1698241003717,1698241005807,\Highly agree\,\Highly agree\,\4\,1698241005113,1698241005113,1396,1396,2090,buq,qns-item-noham,137,439069,0.0-1.0-0.136
"<b>If I find out something new about someone, I easily change my views about them.",Highly disagree,138/150,Somewhat agree,3,1698241005809,1698241008329,\Somewhat agree\,\Somewhat agree\,\3\,1698241007527,1698241007527,1718,1718,2520,buq,qns-item-noham,138,441591,0.0-1.0-0.137
<b>Having true beliefs is difficult.,Highly disagree,139/150,Highly disagree,1,1698241008330,1698241010357,\Highly disagree\,\Highly disagree\,\1\,1698241009741,1698241009741,1411,1411,2027,buq,qns-item-noham,139,443619,0.0-1.0-0.138
<b>I don?t try new foods since I know I won?t like them.,Highly disagree,140/150,Highly disagree,1,1698241010358,1698241012413,\Highly disagree\,\Highly disagree\,\1\,1698241011790,1698241011790,1432,1432,2055,buq,qns-item-noham,140,445675,0.0-1.0-0.139
<b>It?s easy to figure out what?s true or false based on who?s saying it.,Highly disagree,141/150,Highly disagree,1,1698241012414,1698241014619,\Highly disagree\,\Highly disagree\,\1\,1698241014039,1698241014039,1625,1625,2205,buq,qns-item-noham,141,447881,0.0-1.0-0.140
<b>False things have seemed true to me many times.,Highly disagree,142/150,Highly agree,4,1698241014621,1698241017098,\Highly agree\,\Highly agree\,\4\,1698241016467,1698241016467,1846,1846,2477,buq,qns-item-noham,142,450360,0.0-1.0-0.141
<b>It?s pretty easy to sort out what?s true and what?s false in life.,Highly disagree,143/150,Somewhat disagree,2,1698241017099,1698241019311,\Somewhat disagree\,\Somewhat disagree\,\2\,1698241018753,1698241018753,1654,1654,2212,buq,qns-item-noham,143,452573,0.0-1.0-0.142
<b>Knowing lots of statistics about something is usually important for understanding it.,Highly disagree,144/150,Highly agree,4,1698241019312,1698241024771,\Highly agree\,\Highly agree\,\4\,1698241023510,1698241023510,4198,4198,5459,buq,qns-item-noham,144,458033,0.0-1.0-0.143
<b>Other people trick each other a lot.,Highly disagree,145/150,Somewhat agree,3,1698241024772,1698241026697,\Somewhat agree\,\Somewhat agree\,\3\,1698241026017,1698241026017,1245,1245,1925,buq,qns-item-noham,145,459959,0.0-1.0-0.144
<b>I would need to learn a lot about a person for my opinion of them to be swayed.,Highly disagree,146/150,Highly agree,4,1698241026698,1698241028995,\Highly agree\,\Highly agree\,\4\,1698241028252,1698241028252,1554,1554,2297,buq,qns-item-noham,146,462257,0.0-1.0-0.145
<b>People can?t usually trick me when it comes to topics I care about.,Highly disagree,147/150,Highly agree,4,1698241028996,1698241031790,\Highly agree\,\Highly agree\,\4\,1698241030809,1698241030809,1813,1813,2794,buq,qns-item-noham,147,465052,0.0-1.0-0.146
<b>I do not often change my views on food.,Highly disagree,148/150,Highly disagree,1,1698241031791,1698241033968,\Highly disagree\,\Highly disagree\,\1\,1698241033195,1698241033195,1404,1404,2177,buq,qns-item-noham,148,467230,0.0-1.0-0.147
<b>Specific policies are often very important to me.,Highly disagree,149/150,Somewhat agree,3,1698241033969,1698241036325,\Somewhat agree\,\Somewhat agree\,\3\,1698241035695,1698241035695,1726,1726,2356,buq,qns-item-noham,149,469587,0.0-1.0-0.148
<b>Most people are woefully under-informed.,Highly disagree,150/150,Somewhat agree,3,1698241036327,1698241039162,\Somewhat disagree\,\Somewhat agree\,\2\,1698241038031,1698241038532,1704,2205,2835,buq,qns-item-noham,150,472424,0.0-1.0-0.149
