Question,qns_options,quest_num,answer,answer_num,question_load_timestamp,next_btn_timestamp,text_selected,final_text_selected,option_num_selected,preview_timestamps,final_text_selected_time_stamp,rt_first_option_click,rt_final_option_click,rt_submit_click,questionnaire,trial_type,trial_index,time_elapsed,internal_node_id
<b>Considering other people?s perspectives can help us figure out what?s true or false.,Highly disagree,1/150,Somewhat disagree,2,1698241541972,1698241554175,\Somewhat disagree\,\Somewhat disagree\,\2\,1698241553079,1698241553079,11107,11107,12203,buq,qns-item-noham,1,25204,0.0-1.0-0.0
<b>Knowing what?s true and knowing what to do about it are usually basically the same.,Highly disagree,2/150,Somewhat disagree,2,1698241554182,1698241565638,\Somewhat disagree\,\Somewhat disagree\,\2\,1698241563782,1698241564154,9600,9972,11456,buq,qns-item-noham,2,36667,0.0-1.0-0.1
<b>Most people just believe whatever is convenient for them.,Highly disagree,3/150,Highly agree,4,1698241565643,1698242191937,\Highly agree\,\Highly agree\,\4\,1698242190907,1698242190907,625264,625264,626294,buq,qns-item-noham,3,662966,0.0-1.0-0.2
<b>Even people who are wrong about most things can be right sometimes.,Highly disagree,4/150,Somewhat disagree,2,1698242191939,1698242197586,\Somewhat disagree\,\Somewhat disagree\,\2\,1698242196695,1698242196695,4756,4756,5647,buq,qns-item-noham,4,668615,0.0-1.0-0.3
"<b>If the political party I support does something that upsets me, then the party may have changed, and I need to re-evaluate my support.",Highly disagree,5/150,Highly disagree,1,1698242197589,1698242231015,\Highly disagree\,\Highly disagree\,\1\,1698242230092,1698242230092,32503,32503,33426,buq,qns-item-noham,5,702044,0.0-1.0-0.4
"<b>When people disagree, one side is usually completely right.",Highly disagree,6/150,Somewhat disagree,2,1698242231017,1698242238949,\Somewhat disagree\,\Somewhat disagree\,\2\,1698242237956,1698242237956,6939,6939,7932,buq,qns-item-noham,6,709978,0.0-1.0-0.5
<b>People have lots of false beliefs.,Highly disagree,7/150,Somewhat agree,3,1698242238950,1698242242778,\Somewhat agree\,\Somewhat agree\,\3\,1698242241883,1698242241883,2933,2933,3828,buq,qns-item-noham,7,713807,0.0-1.0-0.6
<b>Having some big beliefs helps me sort out minor ones.,Highly disagree,8/150,Highly agree,4,1698242242780,1698242248741,\Highly agree\,\Highly agree\,\4\,1698242247525,1698242247525,4745,4745,5961,buq,qns-item-noham,8,719770,0.0-1.0-0.7
<b>Political questions are usually pretty complicated.,Highly disagree,9/150,Somewhat agree,3,1698242248744,1698242252553,\Somewhat agree\,\Somewhat agree\,\3\,1698242251262,1698242251262,2518,2518,3809,buq,qns-item-noham,9,723582,0.0-1.0-0.8
<b>Figuring out what?s important in life requires learning a lot of facts.,Highly disagree,10/150,Somewhat agree,3,1698242252555,1698242258724,\Somewhat agree\,\Somewhat agree\,\3\,1698242257886,1698242257886,5331,5331,6169,buq,qns-item-noham,10,729753,0.0-1.0-0.9
<b>It is difficult for me to remember the last time I was surprised by politics.,Highly disagree,11/150,Somewhat disagree,2,1698242258726,1698242264083,\Somewhat disagree\,\Somewhat disagree\,\2\,1698242262772,1698242262772,4046,4046,5357,buq,qns-item-noham,11,735112,0.0-1.0-0.10
<b>People?s false beliefs are understandable.,Highly disagree,12/150,Highly disagree,1,1698242264085,1698242309742,\Highly disagree\,\Highly disagree\,\1\,1698242308539,1698242308539,44454,44454,45657,buq,qns-item-noham,12,780771,0.0-1.0-0.11
<b>I spend a lot of time trying to be informed about politics.,Highly disagree,13/150,Somewhat agree,3,1698242309743,1698242316338,\Somewhat agree\,\Somewhat agree\,\3\,1698242315465,1698242315465,5722,5722,6595,buq,qns-item-noham,13,787367,0.0-1.0-0.12
<b>I think a lot about whether my beliefs are right.,Highly disagree,14/150,Somewhat agree,3,1698242316340,1698242320343,\Somewhat agree\,\Somewhat agree\,\3\,1698242318708,1698242318708,2368,2368,4003,buq,qns-item-noham,14,791372,0.0-1.0-0.13
<b>Statistics can be pretty misleading sometimes.,Highly disagree,15/150,Somewhat disagree,2,1698242320344,1698242504776,\Somewhat disagree\,\Somewhat disagree\,\2\,1698242503818,1698242503818,183474,183474,184432,buq,qns-item-noham,15,975805,0.0-1.0-0.14
<b>Figuring out what?s true and what?s false takes a lot of time and effort.,Highly disagree,16/150,Highly agree,4,1698242504780,1698242508605,\Highly agree\,\Highly agree\,\4\,1698242507455,1698242507455,2675,2675,3825,buq,qns-item-noham,16,979634,0.0-1.0-0.15
"<b>If a friend does something bad to me, it was likely an error on their part.",Highly disagree,17/150,Somewhat agree,3,1698242508606,1698242515342,\Somewhat agree\,\Somewhat agree\,\3\,1698242514482,1698242514482,5876,5876,6736,buq,qns-item-noham,17,986371,0.0-1.0-0.16
<b>I have lots of beliefs that I?m only sort of sure about.,Highly disagree,18/150,Somewhat agree,3,1698242515344,1698242519617,\Somewhat agree\,\Somewhat agree\,\3\,1698242518310,1698242518310,2966,2966,4273,buq,qns-item-noham,18,990646,0.0-1.0-0.17
"<b>If I go to my favorite restaurant and the food is surprisingly bad, it reminds me there are many disappointments in life.",Highly disagree,19/150,Highly agree,4,1698242519619,1698242525412,\Highly agree\,\Highly agree\,\4\,1698242524432,1698242524432,4813,4813,5793,buq,qns-item-noham,19,996441,0.0-1.0-0.18
<b>Sometimes my beliefs are inconvenient for me.,Highly disagree,20/150,Somewhat disagree,2,1698242525414,1698242529761,\Somewhat disagree\,\Somewhat disagree\,\2\,1698242528876,1698242528876,3462,3462,4347,buq,qns-item-noham,20,1000790,0.0-1.0-0.19
<b>Paying attention to multiple news sources is important.,Highly disagree,21/150,Somewhat agree,3,1698242529762,1698242533326,\Somewhat agree\,\Somewhat agree\,\3\,1698242532361,1698242532361,2599,2599,3564,buq,qns-item-noham,21,1004355,0.0-1.0-0.20
"<b>If you are paying attention, please select ?Somewhat agree?",Highly disagree,22/150,Somewhat agree,3,1698242533327,1698242538202,\Somewhat agree\,\Somewhat agree\,\3\,1698242537191,1698242537191,3864,3864,4875,buq,qns-item-noham,22,1009231,0.0-1.0-0.21
"<b>When I talk to others, I often worry I?ll convince them of something I didn?t mean to.",Highly disagree,23/150,Somewhat disagree,2,1698242538203,1698242545073,\Somewhat disagree\,\Somewhat disagree\,\2\,1698242544188,1698242544188,5985,5985,6870,buq,qns-item-noham,23,1016102,0.0-1.0-0.22
<b>I would need to learn something utterly shocking about my party in order to change my political views.,Highly disagree,24/150,Somewhat agree,3,1698242545074,1698242551456,\Somewhat agree\,\Somewhat agree\,\3\,1698242550521,1698242550521,5447,5447,6382,buq,qns-item-noham,24,1022485,0.0-1.0-0.23
"<b>When I have new experiences, I tend to think of them as unique.",Highly disagree,25/150,Highly agree,4,1698242551457,1698242557437,\Highly agree\,\Highly agree\,\4\,1698242556291,1698242556291,4834,4834,5980,buq,qns-item-noham,25,1028466,0.0-1.0-0.24
<b>Reading lots of things is important for understanding the world.,Highly disagree,26/150,Highly agree,4,1698242557438,1698242698816,\Highly agree\,\Highly agree\,\4\,1698242697368,1698242697368,139930,139930,141378,buq,qns-item-noham,26,1169845,0.0-1.0-0.25
<b>The world is complicated.,Highly disagree,27/150,Highly agree,4,1698242698820,1698242701736,\Highly agree\,\Highly agree\,\4\,1698242700513,1698242700513,1693,1693,2916,buq,qns-item-noham,27,1172765,0.0-1.0-0.26
<b>I change my mind about specific policies pretty frequently.,Highly disagree,28/150,Somewhat disagree,2,1698242701737,1698242706181,\Somewhat disagree\,\Somewhat disagree\,\2\,1698242704748,1698242704748,3011,3011,4444,buq,qns-item-noham,28,1177210,0.0-1.0-0.27
"<b>If a politician in my political party supports something I disagree with, I give them the benefit of the doubt, as such issues often involve hidden complexities that aren?t obvious.   ",Highly disagree,29/150,Somewhat disagree,2,1698242706183,1698242719207,\Somewhat disagree\,\Somewhat disagree\,\2\,1698242717896,1698242717896,11713,11713,13024,buq,qns-item-noham,29,1190236,0.0-1.0-0.28
<b>People?s bad politics are usually motivated by hatefulness.,Highly disagree,30/150,Somewhat disagree,2,1698242719210,1698242723757,\Somewhat disagree\,\Somewhat disagree\,\2\,1698242722796,1698242722796,3586,3586,4547,buq,qns-item-noham,30,1194786,0.0-1.0-0.29
"<b>Most new experiences are just like old ones, but a little bit different.",Highly disagree,31/150,Highly agree,4,1698242723758,1698242728238,\Highly agree\,\Highly agree\,\4\,1698242727056,1698242727056,3298,3298,4480,buq,qns-item-noham,31,1199268,0.0-1.0-0.30
<b>I think a lot about how to reconcile my beliefs with one another.,Highly disagree,32/150,Highly agree,4,1698242728241,1698242734900,\Highly agree\,\Highly agree\,\4\,1698242733762,1698242733762,5521,5521,6659,buq,qns-item-noham,32,1205929,0.0-1.0-0.31
<b>Personal experience rarely leads people astray.,Highly disagree,33/150,Somewhat agree,3,1698242734902,1698242869768,\Somewhat agree\,\Somewhat agree\,\3\,1698242868537,1698242868537,133635,133635,134866,buq,qns-item-noham,33,1340797,0.0-1.0-0.32
<b>I might have false beliefs about important topics.,Highly disagree,34/150,Somewhat agree,3,1698242869771,1698242874302,\Somewhat agree\,\Somewhat agree\,\3\,1698242872390,1698242872390,2619,2619,4531,buq,qns-item-noham,34,1345332,0.0-1.0-0.33
"<b>If a good friend of mine does something unexpected that upsets me, I feel like I don?t know them anymore.",Highly disagree,35/150,Highly agree,4,1698242874305,1698242881735,\Highly agree\,\Highly agree\,\4\,1698242879538,1698242879538,5233,5233,7430,buq,qns-item-noham,35,1352764,0.0-1.0-0.34
<b>Other people?s beliefs are often incoherent.,Highly disagree,36/150,Somewhat agree,3,1698242881736,1698242885127,\Somewhat agree\,\Somewhat agree\,\3\,1698242883957,1698242883957,2221,2221,3391,buq,qns-item-noham,36,1356156,0.0-1.0-0.35
<b>It?s important to have friends who think about things differently than I do.,Highly disagree,37/150,Somewhat disagree,2,1698242885130,1698242890207,\Somewhat disagree\,\Somewhat disagree\,\2\,1698242889120,1698242889120,3990,3990,5077,buq,qns-item-noham,37,1361236,0.0-1.0-0.36
"<b>Every now and then, a new experience will unsettle beliefs I?ve had for a while.",Highly disagree,38/150,Somewhat agree,3,1698242890209,1698242897361,\Somewhat agree\,\Somewhat agree\,\3\,1698242895013,1698242895013,4804,4804,7152,buq,qns-item-noham,38,1368390,0.0-1.0-0.37
<b>Some policies I agree with in principle are so bad I don?t support them. ,Highly disagree,39/150,Somewhat disagree,2,1698242897363,1698242908785,\Somewhat disagree\,\Somewhat disagree\,\2\,1698242907549,1698242907549,10186,10186,11422,buq,qns-item-noham,39,1379814,0.0-1.0-0.38
<b>I?m pretty sure I?ve accidentally spread false information.,Highly disagree,40/150,Somewhat agree,3,1698242908787,1698242912690,\Somewhat agree\,\Somewhat agree\,\3\,1698242911569,1698242911569,2782,2782,3903,buq,qns-item-noham,40,1383719,0.0-1.0-0.39
"<b>If I go to my favorite restaurant and the food is unexpectedly bad, then they have changed owners.",Highly disagree,41/150,Highly agree,4,1698242912692,1698242918905,\Highly agree\,\Highly agree\,\4\,1698242917846,1698242917846,5154,5154,6213,buq,qns-item-noham,41,1389934,0.0-1.0-0.40
"<b>In politics, it?s important to trust your friends and family.",Highly disagree,42/150,Somewhat disagree,2,1698242918906,1698242924820,\Somewhat disagree\,\Somewhat disagree\,\2\,1698242923596,1698242923596,4690,4690,5914,buq,qns-item-noham,42,1395849,0.0-1.0-0.41
<b>It?s OK to have some conflicting beliefs.,Highly disagree,43/150,Somewhat agree,3,1698242924826,1698242927988,\Somewhat agree\,\Somewhat agree\,\3\,1698242927040,1698242927040,2214,2214,3162,buq,qns-item-noham,43,1399017,0.0-1.0-0.42
<b>Sometimes the details of a matter seem to conflict with the big picture.,Highly disagree,44/150,Somewhat agree,3,1698242927990,1698242933976,\Somewhat agree\,\Somewhat agree\,\3\,1698242932779,1698242932779,4789,4789,5986,buq,qns-item-noham,44,1405005,0.0-1.0-0.43
<b>Listening to people I disagree with makes my opinions better.,Highly disagree,45/150,Somewhat disagree,2,1698242933978,1698242940933,\Somewhat disagree\,\Somewhat disagree\,\2\,1698242938819,1698242938819,4841,4841,6955,buq,qns-item-noham,45,1411962,0.0-1.0-0.44
<b>Policies that sound bad are sometimes fine when you find out about their details.,Highly disagree,46/150,Somewhat agree,3,1698242940935,1698242950146,\Somewhat agree\,\Somewhat agree\,\3\,1698242948721,1698242948721,7786,7786,9211,buq,qns-item-noham,46,1421175,0.0-1.0-0.45
"<b>The world is always changing, so my beliefs are sometimes out-dated.",Highly disagree,47/150,Somewhat agree,3,1698242950148,1698243118867,\Somewhat agree\,\Somewhat agree\,\3\,1698243117402,1698243117402,167254,167254,168719,buq,qns-item-noham,47,1589896,0.0-1.0-0.46
"<b>If I receive a bad meal at my favorite restaurant and the food is surprisingly bad, I do not think much of it, and assume the chef is just having an ?off? day.",Highly disagree,48/150,Highly disagree,1,1698243118870,1698243129698,\Highly disagree\,\Highly disagree\,\1\,1698243128413,1698243128413,9543,9543,10828,buq,qns-item-noham,48,1600727,0.0-1.0-0.47
"<b>False information is unavoidable, to some extent.",Highly disagree,49/150,Highly agree,4,1698243129700,1698243134978,\Highly agree\,\Highly agree\,\4\,1698243133638,1698243133638,3938,3938,5278,buq,qns-item-noham,49,1606007,0.0-1.0-0.48
<b>My moral compass sometimes makes it harder to determine what?s true.,Highly disagree,50/150,Somewhat disagree,2,1698243134980,1698243141514,\Somewhat disagree\,\Somewhat disagree\,\2\,1698243140057,1698243140057,5077,5077,6534,buq,qns-item-noham,50,1612543,0.0-1.0-0.49
"<b>When you disagree with someone, it?s important to listen to them carefully.",Highly disagree,51/150,Highly agree,4,1698243141516,1698243147086,\Highly agree\,\Highly agree\,\4\,1698243145696,1698243145696,4180,4180,5570,buq,qns-item-noham,51,1618115,0.0-1.0-0.50
<b>Evidence pointing in the wrong direction isn?t really evidence at all.,Highly disagree,52/150,Somewhat disagree,2,1698243147087,1698243153357,\Somewhat disagree\,\Somewhat disagree\,\2\,1698243152051,1698243152051,4964,4964,6270,buq,qns-item-noham,52,1624386,0.0-1.0-0.51
"<b>If the political party I support messes up, it makes me think politics is rotten.",Highly disagree,53/150,Somewhat disagree,2,1698243153359,1698243164144,\Somewhat disagree\,\Somewhat disagree\,\2\,1698243162735,1698243162735,9376,9376,10785,buq,qns-item-noham,53,1635173,0.0-1.0-0.52
<b>Lots of important topics can only really be understood by some groups of people.,Highly disagree,54/150,Somewhat agree,3,1698243164146,1698243171262,\Somewhat agree\,\Somewhat agree\,\3\,1698243169845,1698243169845,5699,5699,7116,buq,qns-item-noham,54,1642291,0.0-1.0-0.53
<b>Details almost always matter for being right about something.,Highly disagree,55/150,Somewhat agree,3,1698243171264,1698243182447,\Somewhat agree\,\Somewhat agree\,\3\,1698243181337,1698243181337,10073,10073,11183,buq,qns-item-noham,55,1653476,0.0-1.0-0.54
"<b>The most important thing in politics is winning, not convincing people.",Highly disagree,56/150,Somewhat disagree,2,1698243182449,1698243190131,\Somewhat disagree\,\Somewhat disagree\,\2\,1698243188387,1698243188387,5938,5938,7682,buq,qns-item-noham,56,1661160,0.0-1.0-0.55
<b>Having conflicting beliefs means you haven?t thought about them enough.,Highly disagree,57/150,Somewhat disagree,2,1698243190133,1698243197189,\Somewhat disagree\,\Somewhat disagree\,\2\,1698243196019,1698243196019,5886,5886,7056,buq,qns-item-noham,57,1668218,0.0-1.0-0.56
<b>Other people have sometimes convinced me to change my mind on important topics.,Highly disagree,58/150,Highly disagree,1,1698243197190,1698243291568,\Highly disagree\,\Highly disagree\,\1\,1698243290339,1698243290339,93149,93149,94378,buq,qns-item-noham,58,1762597,0.0-1.0-0.57
<b>I do not often change my political opinions.,Highly disagree,59/150,Highly agree,4,1698243291571,1698243297250,\Highly agree\,\Highly agree\,\4\,1698243295989,1698243295989,4418,4418,5679,buq,qns-item-noham,59,1768279,0.0-1.0-0.58
<b>Thinking about how different things relate to one another is critical in life.,Highly disagree,60/150,Highly agree,4,1698243297253,1698243302651,\Highly agree\,\Highly agree\,\4\,1698243301487,1698243301487,4234,4234,5398,buq,qns-item-noham,60,1773680,0.0-1.0-0.59
<b>True beliefs can have unfortunate implications.,Highly disagree,61/150,Somewhat agree,3,1698243302653,1698243310660,\Somewhat agree\,\Somewhat agree\,\3\,1698243309478,1698243309478,6825,6825,8007,buq,qns-item-noham,61,1781689,0.0-1.0-0.60
<b>It?s difficult to not have at least some conflicting beliefs.,Highly disagree,62/150,Highly agree,4,1698243310662,1698243316057,\Highly agree\,\Highly agree\,\4\,1698243314932,1698243314932,4270,4270,5395,buq,qns-item-noham,62,1787086,0.0-1.0-0.61
"<b>When I learn new things, I think deeply about how my opinions should change.",Highly disagree,63/150,Highly agree,4,1698243316060,1698243319648,\Highly agree\,\Highly agree\,\4\,1698243318467,1698243318467,2407,2407,3588,buq,qns-item-noham,63,1790677,0.0-1.0-0.62
<b>I think a lot about how to interpret different sorts of evidence.,Highly disagree,64/150,Highly agree,4,1698243319650,1698243324065,\Highly agree\,\Highly agree\,\4\,1698243322537,1698243322537,2887,2887,4415,buq,qns-item-noham,64,1795095,0.0-1.0-0.63
<b>Politics is about thinking together and finding compromises.,Highly disagree,65/150,Somewhat disagree,2,1698243324069,1698243329652,\Somewhat disagree\,\Somewhat disagree\,\2\,1698243328312,1698243328312,4243,4243,5583,buq,qns-item-noham,65,1800681,0.0-1.0-0.64
<b>Wishful thinking causes a lot of problems.,Highly disagree,66/150,Somewhat disagree,2,1698243329655,1698243334852,\Somewhat disagree\,\Somewhat disagree\,\2\,1698243332877,1698243332877,3222,3222,5197,buq,qns-item-noham,66,1805881,0.0-1.0-0.65
<b>I judge a food item only once I try it many times.,Highly disagree,67/150,Highly disagree,1,1698243334855,1698243342401,\Highly disagree\,\Highly disagree\,\1\,1698243341077,1698243341077,6222,6222,7546,buq,qns-item-noham,67,1813430,0.0-1.0-0.66
"<b>When a person holds conflicting beliefs, they should really try to figure out what?s wrong.",Highly disagree,68/150,Highly agree,4,1698243342403,1698243347445,\Highly agree\,\Highly agree\,\4\,1698243346308,1698243346308,3905,3905,5042,buq,qns-item-noham,68,1818474,0.0-1.0-0.67
<b>Knowing what?s important in life is easy.,Highly disagree,69/150,Highly agree,4,1698243347448,1698243350555,\Highly agree\,\Highly agree\,\4\,1698243349468,1698243349468,2020,2020,3107,buq,qns-item-noham,69,1821584,0.0-1.0-0.68
<b>Lots of smart people disagree about basic political questions.,Highly disagree,70/150,Highly agree,4,1698243350557,1698243355329,\Highly agree\,\Highly agree\,\4\,1698243353401,1698243353401,2844,2844,4772,buq,qns-item-noham,70,1826358,0.0-1.0-0.69
<b>I swim across the Atlantic Ocean to get to work every day.,Highly disagree,71/150,Highly disagree,1,1698243355330,1698243364415,\Highly disagree\,\Highly disagree\,\1\,1698243359994,1698243359994,4664,4664,9085,buq,qns-item-noham,71,1835444,0.0-1.0-0.70
"<b>Sometimes, you just have to ignore evidence that you know is wrong.",Highly disagree,72/150,Highly agree,4,1698243364417,1698243373373,\Highly agree\,\Highly agree\,\4\,1698243372254,1698243372254,7837,7837,8956,buq,qns-item-noham,72,1844402,0.0-1.0-0.71
<b>I have had some false beliefs.,Highly disagree,73/150,Somewhat agree,3,1698243373375,1698243377499,\Somewhat agree\,\Somewhat agree\,\3\,1698243376016,1698243376016,2641,2641,4124,buq,qns-item-noham,73,1848528,0.0-1.0-0.72
"<b>If one friend does something that upsets me, I sometimes start to distrust people in general.",Highly disagree,74/150,Highly agree,4,1698243377501,1698243386351,\Highly agree\,\Highly agree\,\4\,1698243385092,1698243385092,7591,7591,8850,buq,qns-item-noham,74,1857381,0.0-1.0-0.73
<b>I easily apply what I learn in one situation to another.,Highly disagree,75/150,Somewhat agree,3,1698243386354,1698243390542,\Somewhat agree\,\Somewhat agree\,\3\,1698243389248,1698243389248,2894,2894,4188,buq,qns-item-noham,75,1861571,0.0-1.0-0.74
<b>The facts about most important matters are easy to find.,Highly disagree,76/150,Somewhat agree,3,1698243390544,1698243401630,\Somewhat agree\,\Somewhat agree\,\3\,1698243399931,1698243399931,9387,9387,11086,buq,qns-item-noham,76,1872659,0.0-1.0-0.75
<b>It?s better to know what?s true than to know what?s moral.,Highly disagree,77/150,Highly disagree,1,1698243401632,1698243409862,\Highly disagree\,\Highly disagree\,\1\,1698243408300,1698243408300,6668,6668,8230,buq,qns-item-noham,77,1880891,0.0-1.0-0.76
<b>It?s good to be skeptical of people you agree with.,Highly disagree,78/150,Highly agree,4,1698243409863,1698243413238,\Highly agree\,\Highly agree\,\4\,1698243412148,1698243412148,2285,2285,3375,buq,qns-item-noham,78,1884267,0.0-1.0-0.77
<b>Sometimes reasonable beliefs are wrong.,Highly disagree,79/150,Highly agree,4,1698243413240,1698243417332,\Highly agree\,\Highly agree\,\4\,1698243416131,1698243416131,2891,2891,4092,buq,qns-item-noham,79,1888361,0.0-1.0-0.78
<b>I used to think the world was less complicated than I do now.,Highly disagree,80/150,Somewhat agree,3,1698243417334,1698243423573,\Somewhat agree\,\Somewhat agree\,\3\,1698243422544,1698243422544,5210,5210,6239,buq,qns-item-noham,80,1894602,0.0-1.0-0.79
<b>People are usually completely right or completely wrong.,Highly disagree,81/150,Somewhat disagree,2,1698243423574,1698243428912,\Somewhat disagree\,\Somewhat disagree\,\2\,1698243427577,1698243427577,4003,4003,5338,buq,qns-item-noham,81,1899941,0.0-1.0-0.80
<b>I spend a lot of time considering alternatives to my beliefs.,Highly disagree,82/150,Highly agree,4,1698243428913,1698243432809,\Highly agree\,\Highly agree\,\4\,1698243431577,1698243431577,2664,2664,3896,buq,qns-item-noham,82,1903838,0.0-1.0-0.81
"<b>Political enemies need to be defeated, not convinced.",Highly disagree,83/150,Somewhat disagree,2,1698243432811,1698243437036,\Somewhat disagree\,\Somewhat disagree\,\2\,1698243435921,1698243435921,3110,3110,4225,buq,qns-item-noham,83,1908065,0.0-1.0-0.82
"<b>When forming an opinion about a restaurant, I am more swayed by my  latest meal there than  previous meals I?ve had there.",Highly disagree,84/150,Somewhat disagree,2,1698243437037,1698243457631,\Somewhat disagree\,\Somewhat disagree\,\2\,1698243456539,1698243456539,19502,19502,20594,buq,qns-item-noham,84,1928660,0.0-1.0-0.83
<b>I try to remain skeptical about most topics.,Highly disagree,85/150,Highly agree,4,1698243457634,1698243461435,\Highly agree\,\Highly agree\,\4\,1698243460395,1698243460395,2761,2761,3801,buq,qns-item-noham,85,1932464,0.0-1.0-0.84
<b>Being wrong is usually obvious in retrospect.,Highly disagree,86/150,Somewhat agree,3,1698243461436,1698243467434,\Somewhat agree\,\Somewhat agree\,\3\,1698243466093,1698243466093,4657,4657,5998,buq,qns-item-noham,86,1938463,0.0-1.0-0.85
<b>It can be hard to realize that my beliefs are in conflict.,Highly disagree,87/150,Somewhat agree,3,1698243467436,1698243474009,\Somewhat disagree\,\Somewhat agree\,\2\,1698243471833,1698243472903,4397,5467,6573,buq,qns-item-noham,87,1945038,0.0-1.0-0.86
<b>I form my political views only after meticulously gathering historical and present information about their policies.,Highly disagree,88/150,Highly agree,4,1698243474012,1698243485518,\Highly agree\,\Highly agree\,\4\,1698243484482,1698243484482,10470,10470,11506,buq,qns-item-noham,88,1956547,0.0-1.0-0.87
<b>Skeptical people are usually just bad-tempered.,Highly disagree,89/150,Highly disagree,1,1698243485519,1698243490602,\Highly disagree\,\Highly disagree\,\1\,1698243489233,1698243489233,3714,3714,5083,buq,qns-item-noham,89,1961631,0.0-1.0-0.88
<b>It is difficult for me to remember the last time I was surprised by politics.,Highly disagree,90/150,Somewhat disagree,2,1698243490604,1698243498882,\Somewhat disagree\,\Somewhat disagree\,\2\,1698243497456,1698243497456,6852,6852,8278,buq,qns-item-noham,90,1969911,0.0-1.0-0.89
"<b>When I find out I?m wrong, I think a lot about my related beliefs.",Highly disagree,91/150,Somewhat agree,3,1698243498884,1698243503653,\Somewhat agree\,\Somewhat agree\,\3\,1698243501806,1698243501806,2922,2922,4769,buq,qns-item-noham,91,1974682,0.0-1.0-0.90
"<b>If the political party I support messes up, it makes me think you can?t trust anyone these days",Highly disagree,92/150,Highly disagree,1,1698243503655,1698243508682,\Highly disagree\,\Highly disagree\,\1\,1698243507553,1698243507553,3898,3898,5027,buq,qns-item-noham,92,1979711,0.0-1.0-0.91
<b>People?s brains turn off when they talk about politics.,Highly disagree,93/150,Highly agree,4,1698243508683,1698243512552,\Highly agree\,\Highly agree\,\4\,1698243511313,1698243511313,2630,2630,3869,buq,qns-item-noham,93,1983581,0.0-1.0-0.92
<b>People who are wrong are usually just ignoring the obvious.,Highly disagree,94/150,Somewhat disagree,2,1698243512553,1698243518735,\Somewhat disagree\,\Somewhat disagree\,\2\,1698243517385,1698243517385,4832,4832,6182,buq,qns-item-noham,94,1989764,0.0-1.0-0.93
"<b>The world isn?t that complicated, but it?s still hard to figure out how it works.",Highly disagree,95/150,Somewhat disagree,2,1698243518737,1698243524837,\Somewhat disagree\,\Somewhat disagree\,\2\,1698243523572,1698243523572,4835,4835,6100,buq,qns-item-noham,95,1995866,0.0-1.0-0.94
"<b>When forming my views on people, I rely more on what they are like now rather than rely on my past experience with them.",Highly disagree,96/150,Somewhat disagree,2,1698243524839,1698243539778,\Somewhat disagree\,\Somewhat disagree\,\2\,1698243538532,1698243538532,13693,13693,14939,buq,qns-item-noham,96,2010807,0.0-1.0-0.95
"<b>When people contradict my beliefs, I usually know about their evidence already.",Highly disagree,97/150,Somewhat agree,3,1698243539780,1698243550563,\Somewhat agree\,\Somewhat agree\,\3\,1698243548939,1698243548939,9159,9159,10783,buq,qns-item-noham,97,2021593,0.0-1.0-0.96
<b>Being wrong is a matter of degree.,Highly disagree,98/150,Somewhat disagree,2,1698243550566,1698243557061,\Somewhat disagree\,\Somewhat disagree\,\2\,1698243555498,1698243555498,4932,4932,6495,buq,qns-item-noham,98,2028090,0.0-1.0-0.97
<b>Figuring out what?s true and what?s false mainly requires a strong moral compass.,Highly disagree,99/150,Highly agree,4,1698243557063,1698243564624,\Highly agree\,\Highly agree\,\4\,1698243563228,1698243563228,6165,6165,7561,buq,qns-item-noham,99,2035653,0.0-1.0-0.98
<b>Most of the beliefs people have are at least somewhat understandable.,Highly disagree,100/150,Somewhat agree,3,1698243564626,1698243592639,\Somewhat agree\,\Somewhat agree\,\3\,1698243591238,1698243591238,26612,26612,28013,buq,qns-item-noham,100,2063668,0.0-1.0-0.99
"<b>Usually I?m wrong about simple things, not complicated ones.",Highly disagree,101/150,Somewhat disagree,2,1698243592642,1698243614703,\Somewhat disagree\,\Somewhat disagree\,\2\,1698243613474,1698243613474,20832,20832,22061,buq,qns-item-noham,101,2085732,0.0-1.0-0.100
<b>Getting all the information I want about important things is hard.,Highly disagree,102/150,Somewhat disagree,2,1698243614705,1698243626506,\Somewhat disagree\,\Somewhat disagree\,\2\,1698243625499,1698243625499,10794,10794,11801,buq,qns-item-noham,102,2097535,0.0-1.0-0.101
<b>Most false beliefs spread because people try to deceive one another.,Highly disagree,103/150,Somewhat agree,3,1698243626508,1698243634095,\Somewhat agree\,\Somewhat agree\,\3\,1698243630817,1698243631441,4309,4933,7587,buq,qns-item-noham,103,2105124,0.0-1.0-0.102
<b>I can usually find something to agree with in most people?s beliefs.,Highly disagree,104/150,Somewhat agree,3,1698243634097,1698243640391,\Somewhat agree\,\Somewhat agree\,\3\,1698243639213,1698243639213,5116,5116,6294,buq,qns-item-noham,104,2111420,0.0-1.0-0.103
<b>I only form my views of people once I get to know them very well.,Highly disagree,105/150,Highly agree,4,1698243640393,1698243658629,\Highly agree\,\Highly agree\,\4\,1698243657288,1698243657288,16895,16895,18236,buq,qns-item-noham,105,2129658,0.0-1.0-0.104
"<b>When people tell me important things about the world, I usually believe them.",Highly disagree,106/150,Somewhat disagree,2,1698243658632,1698243689252,\Somewhat disagree\,\Somewhat disagree\,\2\,1698243687819,1698243687819,29187,29187,30620,buq,qns-item-noham,106,2160281,0.0-1.0-0.105
"<b>If a friend does something that upsets me, it reminds me what an unpredictable place the world is.",Highly disagree,107/150,Highly agree,4,1698243689255,1698243698694,\Highly agree\,\Highly agree\,\4\,1698243696306,1698243696306,7051,7051,9439,buq,qns-item-noham,107,2169723,0.0-1.0-0.106
<b>Having some conflicting beliefs is inevitable.,Highly disagree,108/150,Somewhat agree,3,1698243698696,1698243702865,\Somewhat agree\,\Somewhat agree\,\3\,1698243701499,1698243701499,2803,2803,4169,buq,qns-item-noham,108,2173894,0.0-1.0-0.107
<b>People are wrong because they haven?t thought much about things.,Highly disagree,109/150,Somewhat agree,3,1698243702868,1698243708612,\Somewhat agree\,\Somewhat agree\,\3\,1698243707434,1698243707434,4566,4566,5744,buq,qns-item-noham,109,2179641,0.0-1.0-0.108
<b>People tend to believe whatever is good for their friends.,Highly disagree,110/150,Somewhat agree,3,1698243708613,1698243715947,\Somewhat agree\,\Somewhat agree\,\3\,1698243714860,1698243714860,6247,6247,7334,buq,qns-item-noham,110,2186976,0.0-1.0-0.109
"<b>When I talk about important topics, I try to make sure people know I?m not always right.",Highly disagree,111/150,Highly agree,4,1698243715949,1698243725130,\Highly agree\,\Highly agree\,\4\,1698243723947,1698243723947,7998,7998,9181,buq,qns-item-noham,111,2196160,0.0-1.0-0.110
<b>I used to be more certain my beliefs were true.,Highly disagree,112/150,Somewhat disagree,2,1698243725133,1698243730210,\Somewhat disagree\,\Somewhat disagree\,\2\,1698243728889,1698243728889,3756,3756,5077,buq,qns-item-noham,112,2201239,0.0-1.0-0.111
<b>It?s often pretty easy to figure out whether something is true based on who said it.,Highly disagree,113/150,Somewhat agree,3,1698243730213,1698243737664,\Somewhat agree\,\Somewhat agree\,\3\,1698243736384,1698243736384,6171,6171,7451,buq,qns-item-noham,113,2208693,0.0-1.0-0.112
<b>Having bad food in my favorite restaurant will make me think the restaurant is no longer good.,Highly disagree,114/150,Somewhat agree,3,1698243737667,1698243767578,\Somewhat agree\,\Somewhat agree\,\3\,1698243766458,1698243766458,28791,28791,29911,buq,qns-item-noham,114,2238607,0.0-1.0-0.113
<b>I transform into a hummingbird every day.,Highly disagree,115/150,Highly disagree,1,1698243767580,1698243772873,\Highly disagree\,\Highly disagree\,\1\,1698243771204,1698243771204,3624,3624,5293,buq,qns-item-noham,115,2243902,0.0-1.0-0.114
"<b>Unfortunately, when people are wrong, it?s usually because they?re bad.",Highly disagree,116/150,Somewhat disagree,2,1698243772875,1698243783077,\Somewhat disagree\,\Somewhat disagree\,\2\,1698243781914,1698243781914,9039,9039,10202,buq,qns-item-noham,116,2254106,0.0-1.0-0.115
<b>I think a lot about arguments against my views.,Highly disagree,117/150,Highly agree,4,1698243783079,1698243798524,\Highly agree\,\Highly agree\,\4\,1698243797279,1698243797279,14200,14200,15445,buq,qns-item-noham,117,2269553,0.0-1.0-0.116
<b>Details tend to matter a lot for knowing whether a policy is good.,Highly disagree,118/150,Highly agree,4,1698243798526,1698243805550,\Highly agree\,\Highly agree\,\4\,1698243804441,1698243804441,5915,5915,7024,buq,qns-item-noham,118,2276579,0.0-1.0-0.117
<b>Personal experience is usually more important than facts and figures.,Highly disagree,119/150,Highly agree,4,1698243805552,1698243810260,\Highly agree\,\Highly agree\,\4\,1698243809236,1698243809236,3684,3684,4708,buq,qns-item-noham,119,2281290,0.0-1.0-0.118
<b>I?ve been tricked before about important matters.,Highly disagree,120/150,Highly agree,4,1698243810262,1698243815172,\Highly agree\,\Highly agree\,\4\,1698243813897,1698243813897,3635,3635,4910,buq,qns-item-noham,120,2286201,0.0-1.0-0.119
<b>I would need to be totally wowed if I were to change my opinion of a restaurant I don?t like.,Highly disagree,121/150,Highly agree,4,1698243815174,1698243841985,\Highly agree\,\Highly agree\,\4\,1698243840852,1698243840852,25678,25678,26811,buq,qns-item-noham,121,2313014,0.0-1.0-0.120
<b>I care a lot about politics.,Highly disagree,122/150,Highly agree,4,1698243841987,1698243844897,\Highly agree\,\Highly agree\,\4\,1698243843847,1698243843847,1860,1860,2910,buq,qns-item-noham,122,2315926,0.0-1.0-0.121
<b>People with conflicting beliefs usually have some facts they disagree on.,Highly disagree,123/150,Somewhat agree,3,1698243844900,1698243849072,\Somewhat agree\,\Somewhat agree\,\3\,1698243848074,1698243848074,3174,3174,4172,buq,qns-item-noham,123,2320101,0.0-1.0-0.122
<b>There are some topics I?ve been really wrong about.,Highly disagree,124/150,Highly agree,4,1698243849073,1698243853215,\Highly agree\,\Highly agree\,\4\,1698243851994,1698243851994,2921,2921,4142,buq,qns-item-noham,124,2324244,0.0-1.0-0.123
<b>Most beliefs can be supported with at least some evidence.,Highly disagree,125/150,Somewhat agree,3,1698243853217,1698243856982,\Somewhat agree\,\Somewhat agree\,\3\,1698243856017,1698243856017,2800,2800,3765,buq,qns-item-noham,125,2328011,0.0-1.0-0.124
<b>Other people make life out to be more complicated than it really is.,Highly disagree,126/150,Highly agree,4,1698243856984,1698243862590,\Highly agree\,\Highly agree\,\4\,1698243861281,1698243861281,4297,4297,5606,buq,qns-item-noham,126,2333620,0.0-1.0-0.125
"<b>My political views are being shaped continuously as I gather more information, rather than relying on what I?ve known to be true of my party in the past. ",Highly disagree,127/150,Somewhat agree,3,1698243862592,1698244400258,\Somewhat agree\,\Somewhat agree\,\3\,1698244399255,1698244399255,536663,536663,537666,buq,qns-item-noham,127,2871287,0.0-1.0-0.126
<b>It?s pretty unusual for true things to seem false.,Highly disagree,128/150,Somewhat agree,3,1698244400260,1698244404875,\Somewhat agree\,\Somewhat agree\,\3\,1698244403976,1698244403976,3716,3716,4615,buq,qns-item-noham,128,2875904,0.0-1.0-0.127
"<b>Policy details don?t matter much, just the big picture.",Highly disagree,129/150,Somewhat agree,3,1698244404877,1698244518133,\Somewhat agree\,\Somewhat agree\,\3\,1698244515579,1698244515579,110702,110702,113256,buq,qns-item-noham,129,2989162,0.0-1.0-0.128
<b>I know my friends so well they can hardly ever surprise me.,Highly disagree,130/150,Somewhat disagree,2,1698244518136,1698244522655,\Somewhat disagree\,\Somewhat disagree\,\2\,1698244521689,1698244521689,3553,3553,4519,buq,qns-item-noham,130,2993684,0.0-1.0-0.129
"<b>When I talk to people, I often think about why they have the beliefs they do.",Highly disagree,131/150,Highly agree,4,1698244522657,1698244526400,\Highly agree\,\Highly agree\,\4\,1698244525267,1698244525267,2610,2610,3743,buq,qns-item-noham,131,2997429,0.0-1.0-0.130
<b>I do not often change my views on people.,Highly disagree,132/150,Somewhat agree,3,1698244526402,1698244530664,\Somewhat agree\,\Somewhat agree\,\3\,1698244529758,1698244529758,3356,3356,4262,buq,qns-item-noham,132,3001693,0.0-1.0-0.131
<b>I often wish I had more time to spend figuring out what?s true and what?s false in life.,Highly disagree,133/150,Somewhat agree,3,1698244530666,1698244539154,\Somewhat agree\,\Somewhat agree\,\3\,1698244536302,1698244536302,5636,5636,8488,buq,qns-item-noham,133,3010183,0.0-1.0-0.132
<b>I?m more certain about my beliefs than I used to be.,Highly disagree,134/150,Somewhat agree,3,1698244539155,1698244542462,\Somewhat agree\,\Somewhat agree\,\3\,1698244541179,1698244541179,2024,2024,3307,buq,qns-item-noham,134,3013491,0.0-1.0-0.133
"<b>Whenever I find out new information, I update my views on politics accordingly.",Highly disagree,135/150,Highly agree,4,1698244542464,1698244546879,\Highly agree\,\Highly agree\,\4\,1698244545775,1698244545775,3311,3311,4415,buq,qns-item-noham,135,3017908,0.0-1.0-0.134
<b>People often tell falsehoods unintentionally.,Highly disagree,136/150,Somewhat agree,3,1698244546881,1698244550389,\Somewhat agree\,\Somewhat agree\,\3\,1698244549465,1698244549465,2584,2584,3508,buq,qns-item-noham,136,3021418,0.0-1.0-0.135
<b>Most people don?t know much about most things.,Highly disagree,137/150,Highly agree,4,1698244550391,1698244553410,\Highly agree\,\Highly agree\,\4\,1698244552399,1698244552399,2008,2008,3019,buq,qns-item-noham,137,3024439,0.0-1.0-0.136
"<b>If I find out something new about someone, I easily change my views about them.",Highly disagree,138/150,Somewhat agree,3,1698244553411,1698244559309,\Somewhat agree\,\Somewhat agree\,\3\,1698244558249,1698244558249,4838,4838,5898,buq,qns-item-noham,138,3030338,0.0-1.0-0.137
<b>Having true beliefs is difficult.,Highly disagree,139/150,Highly agree,4,1698244559311,1698244563275,\Highly agree\,\Highly agree\,\4\,1698244561891,1698244561891,2580,2580,3964,buq,qns-item-noham,139,3034304,0.0-1.0-0.138
<b>I don?t try new foods since I know I won?t like them.,Highly disagree,140/150,Highly disagree,1,1698244563277,1698244568266,\Highly disagree\,\Highly disagree\,\1\,1698244567094,1698244567094,3817,3817,4989,buq,qns-item-noham,140,3039295,0.0-1.0-0.139
<b>It?s easy to figure out what?s true or false based on who?s saying it.,Highly disagree,141/150,Somewhat agree,3,1698244568269,1698244572705,\Somewhat agree\,\Somewhat agree\,\3\,1698244571535,1698244571535,3266,3266,4436,buq,qns-item-noham,141,3043734,0.0-1.0-0.140
<b>False things have seemed true to me many times.,Highly disagree,142/150,Somewhat disagree,2,1698244572707,1698244579503,\Somewhat disagree\,\Somewhat disagree\,\2\,1698244578512,1698244578512,5805,5805,6796,buq,qns-item-noham,142,3050532,0.0-1.0-0.141
<b>It?s pretty easy to sort out what?s true and what?s false in life.,Highly disagree,143/150,Highly agree,4,1698244579505,1698244582956,\Highly agree\,\Highly agree\,\4\,1698244581929,1698244581929,2424,2424,3451,buq,qns-item-noham,143,3053985,0.0-1.0-0.142
<b>Knowing lots of statistics about something is usually important for understanding it.,Highly disagree,144/150,Somewhat agree,3,1698244582957,1698244589421,\Somewhat agree\,\Somewhat agree\,\3\,1698244588475,1698244588475,5518,5518,6464,buq,qns-item-noham,144,3060450,0.0-1.0-0.143
<b>Other people trick each other a lot.,Highly disagree,145/150,Highly agree,4,1698244589423,1698244592364,\Highly agree\,\Highly agree\,\4\,1698244591368,1698244591368,1945,1945,2941,buq,qns-item-noham,145,3063393,0.0-1.0-0.144
<b>I would need to learn a lot about a person for my opinion of them to be swayed.,Highly disagree,146/150,Somewhat agree,3,1698244592366,1698244599453,\Somewhat agree\,\Somewhat agree\,\3\,1698244598223,1698244598223,5857,5857,7087,buq,qns-item-noham,146,3070482,0.0-1.0-0.145
<b>People can?t usually trick me when it comes to topics I care about.,Highly disagree,147/150,Highly agree,4,1698244599456,1698244604803,\Highly agree\,\Highly agree\,\4\,1698244603560,1698244603560,4104,4104,5347,buq,qns-item-noham,147,3075833,0.0-1.0-0.146
<b>I do not often change my views on food.,Highly disagree,148/150,Somewhat agree,3,1698244604806,1698244609127,\Somewhat agree\,\Somewhat agree\,\3\,1698244607785,1698244607785,2979,2979,4321,buq,qns-item-noham,148,3080156,0.0-1.0-0.147
<b>Specific policies are often very important to me.,Highly disagree,149/150,Highly agree,4,1698244609129,1698244616294,\Highly agree\,\Highly agree\,\4\,1698244615082,1698244615082,5953,5953,7165,buq,qns-item-noham,149,3087323,0.0-1.0-0.148
<b>Most people are woefully under-informed.,Highly disagree,150/150,Somewhat agree,3,1698244616296,1698244621087,\Somewhat agree\,\Somewhat agree\,\3\,1698244620036,1698244620036,3740,3740,4791,buq,qns-item-noham,150,3092116,0.0-1.0-0.149
