Question,qns_options,quest_num,answer,answer_num,question_load_timestamp,next_btn_timestamp,text_selected,final_text_selected,option_num_selected,preview_timestamps,final_text_selected_time_stamp,rt_first_option_click,rt_final_option_click,rt_submit_click,questionnaire,trial_type,trial_index,time_elapsed,internal_node_id
<b>Considering other people?s perspectives can help us figure out what?s true or false.,Highly disagree,1/150,Somewhat agree,3,1698241537542,1698241546522,\Somewhat agree\,\Somewhat agree\,\3\,1698241545401,1698241545401,7859,7859,8980,buq,qns-item-noham,1,23352,0.0-1.0-0.0
<b>Knowing what?s true and knowing what to do about it are usually basically the same.,Highly disagree,2/150,Somewhat disagree,2,1698241546525,1698241554074,\Somewhat disagree\,\Somewhat disagree\,\2\,1698241553354,1698241553354,6829,6829,7549,buq,qns-item-noham,2,30904,0.0-1.0-0.1
<b>Most people just believe whatever is convenient for them.,Highly disagree,3/150,Somewhat agree,3,1698241554079,1698241560385,\Somewhat agree\,\Somewhat agree\,\3\,1698241559370,1698241559370,5291,5291,6306,buq,qns-item-noham,3,37216,0.0-1.0-0.2
<b>Even people who are wrong about most things can be right sometimes.,Highly disagree,4/150,Highly agree,4,1698241560388,1698241567523,\Highly agree\,\Highly agree\,\4\,1698241566067,1698241566067,5679,5679,7135,buq,qns-item-noham,4,44353,0.0-1.0-0.3
"<b>If the political party I support does something that upsets me, then the party may have changed, and I need to re-evaluate my support.",Highly disagree,5/150,Highly agree,4,1698241567526,1698241578100,\Highly agree\,\Highly agree\,\4\,1698241576867,1698241576867,9341,9341,10574,buq,qns-item-noham,5,54930,0.0-1.0-0.4
"<b>When people disagree, one side is usually completely right.",Highly disagree,6/150,Highly disagree,1,1698241578106,1698241583252,\Highly disagree\,\Highly disagree\,\1\,1698241582371,1698241582371,4265,4265,5146,buq,qns-item-noham,6,60082,0.0-1.0-0.5
<b>People have lots of false beliefs.,Highly disagree,7/150,Highly agree,4,1698241583256,1698241587645,\Highly agree\,\Highly agree\,\4\,1698241586707,1698241586707,3451,3451,4389,buq,qns-item-noham,7,64475,0.0-1.0-0.6
<b>Having some big beliefs helps me sort out minor ones.,Highly disagree,8/150,Somewhat agree,3,1698241587648,1698241598164,\Somewhat agree\,\Somewhat agree\,\3\,1698241595204,1698241595204,7556,7556,10516,buq,qns-item-noham,8,74994,0.0-1.0-0.7
<b>Political questions are usually pretty complicated.,Highly disagree,9/150,Highly agree,4,1698241598167,1698241605061,\Highly agree\,\Highly agree\,\4\,1698241604188,1698241604188,6021,6021,6894,buq,qns-item-noham,9,81891,0.0-1.0-0.8
<b>Figuring out what?s important in life requires learning a lot of facts.,Highly disagree,10/150,Somewhat agree,3,1698241605065,1698241611182,\Somewhat agree\,\Somewhat agree\,\3\,1698241610348,1698241610348,5283,5283,6117,buq,qns-item-noham,10,88012,0.0-1.0-0.9
<b>It is difficult for me to remember the last time I was surprised by politics.,Highly disagree,11/150,Somewhat disagree,2,1698241611185,1698241618366,\Somewhat disagree\,\Somewhat disagree\,\2\,1698241617598,1698241617598,6413,6413,7181,buq,qns-item-noham,11,95196,0.0-1.0-0.10
<b>People?s false beliefs are understandable.,Highly disagree,12/150,Somewhat agree,3,1698241618369,1698241623677,\Somewhat agree\,\Somewhat agree\,\3\,1698241622821,1698241622821,4452,4452,5308,buq,qns-item-noham,12,100507,0.0-1.0-0.11
<b>I spend a lot of time trying to be informed about politics.,Highly disagree,13/150,Highly agree,4,1698241623681,1698241630541,\Highly agree\,\Highly agree\,\4\,1698241628214,1698241628214,4533,4533,6860,buq,qns-item-noham,13,107372,0.0-1.0-0.12
<b>I think a lot about whether my beliefs are right.,Highly disagree,14/150,Highly agree,4,1698241630544,1698241635661,\Highly agree\,\Highly agree\,\4\,1698241635037,1698241635037,4493,4493,5117,buq,qns-item-noham,14,112492,0.0-1.0-0.13
<b>Statistics can be pretty misleading sometimes.,Highly disagree,15/150,Somewhat agree,3,1698241635664,1698241640366,\Somewhat agree\,\Somewhat agree\,\3\,1698241639621,1698241639621,3957,3957,4702,buq,qns-item-noham,15,117197,0.0-1.0-0.14
<b>Figuring out what?s true and what?s false takes a lot of time and effort.,Highly disagree,16/150,Somewhat agree,3,1698241640370,1698241648343,\Somewhat agree\,\Somewhat agree\,\3\,1698241645062,1698241645062,4692,4692,7973,buq,qns-item-noham,16,125173,0.0-1.0-0.15
"<b>If a friend does something bad to me, it was likely an error on their part.",Highly disagree,17/150,Somewhat agree,3,1698241648345,1698241655840,\Somewhat agree\,\Somewhat agree\,\3\,1698241655118,1698241655118,6773,6773,7495,buq,qns-item-noham,17,132670,0.0-1.0-0.16
<b>I have lots of beliefs that I?m only sort of sure about.,Highly disagree,18/150,Somewhat agree,3,1698241655842,1698241661688,\Somewhat agree\,\Somewhat agree\,\3\,1698241661022,1698241661022,5180,5180,5846,buq,qns-item-noham,18,138518,0.0-1.0-0.17
"<b>If I go to my favorite restaurant and the food is surprisingly bad, it reminds me there are many disappointments in life.",Highly disagree,19/150,Somewhat disagree,2,1698241661690,1698241670512,\Somewhat disagree\,\Somewhat disagree\,\2\,1698241669815,1698241669815,8125,8125,8822,buq,qns-item-noham,19,147342,0.0-1.0-0.18
<b>Sometimes my beliefs are inconvenient for me.,Highly disagree,20/150,Somewhat agree,3,1698241670515,1698241675199,\Somewhat agree\,\Somewhat agree\,\3\,1698241673919,1698241673919,3404,3404,4684,buq,qns-item-noham,20,152029,0.0-1.0-0.19
<b>Paying attention to multiple news sources is important.,Highly disagree,21/150,Highly agree,4,1698241675201,1698241679153,\Highly agree\,\Highly agree\,\4\,1698241678392,1698241678392,3191,3191,3952,buq,qns-item-noham,21,155983,0.0-1.0-0.20
"<b>If you are paying attention, please select ?Somewhat agree?",Highly disagree,22/150,Somewhat agree,3,1698241679156,1698241683010,\Somewhat agree\,\Somewhat agree\,\3\,1698241682272,1698241682272,3116,3116,3854,buq,qns-item-noham,22,159840,0.0-1.0-0.21
"<b>When I talk to others, I often worry I?ll convince them of something I didn?t mean to.",Highly disagree,23/150,Somewhat disagree,2,1698241683012,1698241691785,\Somewhat disagree\,\Somewhat disagree\,\2\,1698241691128,1698241691128,8116,8116,8773,buq,qns-item-noham,23,168615,0.0-1.0-0.22
<b>I would need to learn something utterly shocking about my party in order to change my political views.,Highly disagree,24/150,Somewhat agree,3,1698241691788,1698241702809,\Somewhat agree\,\Somewhat agree\,\3\,1698241700952,1698241700952,9164,9164,11021,buq,qns-item-noham,24,179639,0.0-1.0-0.23
"<b>When I have new experiences, I tend to think of them as unique.",Highly disagree,25/150,Somewhat agree,3,1698241702811,1698241708347,\Somewhat agree\,\Somewhat agree\,\3\,1698241707481,1698241707481,4670,4670,5536,buq,qns-item-noham,25,185177,0.0-1.0-0.24
<b>Reading lots of things is important for understanding the world.,Highly disagree,26/150,Highly agree,4,1698241708349,1698241713522,\Highly agree\,\Highly agree\,\4\,1698241711928,1698241711928,3579,3579,5173,buq,qns-item-noham,26,190352,0.0-1.0-0.25
<b>The world is complicated.,Highly disagree,27/150,Highly agree,4,1698241713524,1698241717258,\Highly agree\,\Highly agree\,\4\,1698241716505,1698241716505,2981,2981,3734,buq,qns-item-noham,27,194088,0.0-1.0-0.26
<b>I change my mind about specific policies pretty frequently.,Highly disagree,28/150,Somewhat disagree,2,1698241717261,1698241721474,\Somewhat disagree\,\Somewhat disagree\,\2\,1698241720633,1698241720633,3372,3372,4213,buq,qns-item-noham,28,198304,0.0-1.0-0.27
"<b>If a politician in my political party supports something I disagree with, I give them the benefit of the doubt, as such issues often involve hidden complexities that aren?t obvious.   ",Highly disagree,29/150,Somewhat disagree,2,1698241721476,1698241732258,\Somewhat disagree\,\Somewhat disagree\,\2\,1698241730385,1698241730385,8909,8909,10782,buq,qns-item-noham,29,209088,0.0-1.0-0.28
<b>People?s bad politics are usually motivated by hatefulness.,Highly disagree,30/150,Somewhat disagree,2,1698241732260,1698241739843,\Somewhat disagree\,\Somewhat disagree\,\2\,1698241738938,1698241738938,6678,6678,7583,buq,qns-item-noham,30,216673,0.0-1.0-0.29
"<b>Most new experiences are just like old ones, but a little bit different.",Highly disagree,31/150,Somewhat disagree,2,1698241739846,1698241747547,\Somewhat disagree\,\Somewhat disagree\,\2\,1698241746306,1698241746306,6460,6460,7701,buq,qns-item-noham,31,224377,0.0-1.0-0.30
<b>I think a lot about how to reconcile my beliefs with one another.,Highly disagree,32/150,Somewhat agree,3,1698241747548,1698241754012,\Somewhat agree\,\Somewhat agree\,\3\,1698241753107,1698241753107,5559,5559,6464,buq,qns-item-noham,32,230842,0.0-1.0-0.31
<b>Personal experience rarely leads people astray.,Highly disagree,33/150,Somewhat disagree,2,1698241754015,1698241760555,\Somewhat disagree\,\Somewhat disagree\,\2\,1698241759747,1698241759747,5732,5732,6540,buq,qns-item-noham,33,237385,0.0-1.0-0.32
<b>I might have false beliefs about important topics.,Highly disagree,34/150,Highly agree,4,1698241760557,1698241769003,\Somewhat agree\,\Highly agree\,\3\,1698241765579,1698241767811,5022,7254,8446,buq,qns-item-noham,34,245833,0.0-1.0-0.33
"<b>If a good friend of mine does something unexpected that upsets me, I feel like I don?t know them anymore.",Highly disagree,35/150,Somewhat agree,3,1698241769006,1698241780700,\Somewhat agree\,\Somewhat agree\,\3\,1698241777572,1698241777572,8566,8566,11694,buq,qns-item-noham,35,257530,0.0-1.0-0.34
<b>Other people?s beliefs are often incoherent.,Highly disagree,36/150,Somewhat disagree,2,1698241780702,1698241786653,\Somewhat disagree\,\Somewhat disagree\,\2\,1698241785636,1698241785636,4934,4934,5951,buq,qns-item-noham,36,263483,0.0-1.0-0.35
<b>It?s important to have friends who think about things differently than I do.,Highly disagree,37/150,Somewhat agree,3,1698241786655,1698241792022,\Somewhat agree\,\Somewhat agree\,\3\,1698241791309,1698241791309,4654,4654,5367,buq,qns-item-noham,37,268852,0.0-1.0-0.36
"<b>Every now and then, a new experience will unsettle beliefs I?ve had for a while.",Highly disagree,38/150,Highly agree,4,1698241792025,1698241798770,\Highly agree\,\Highly agree\,\4\,1698241798133,1698241798133,6108,6108,6745,buq,qns-item-noham,38,275600,0.0-1.0-0.37
<b>Some policies I agree with in principle are so bad I don?t support them. ,Highly disagree,39/150,Somewhat disagree,2,1698241798772,1698241821590,\Highly agree\,\Somewhat disagree\,\4\,1698241806701,1698241813925,7929,15153,22818,buq,qns-item-noham,39,298420,0.0-1.0-0.38
<b>I?m pretty sure I?ve accidentally spread false information.,Highly disagree,40/150,Highly agree,4,1698241821592,1698241865168,\Somewhat agree\,\Highly agree\,\3\,1698241863440,1698241864552,41848,42960,43576,buq,qns-item-noham,40,341998,0.0-1.0-0.39
"<b>If I go to my favorite restaurant and the food is unexpectedly bad, then they have changed owners.",Highly disagree,41/150,Somewhat disagree,2,1698241865171,1698241872674,\Somewhat disagree\,\Somewhat disagree\,\2\,1698241871961,1698241871961,6790,6790,7503,buq,qns-item-noham,41,349504,0.0-1.0-0.40
"<b>In politics, it?s important to trust your friends and family.",Highly disagree,42/150,Somewhat disagree,2,1698241872676,1698241878202,\Somewhat disagree\,\Somewhat disagree\,\2\,1698241877624,1698241877624,4948,4948,5526,buq,qns-item-noham,42,355032,0.0-1.0-0.41
<b>It?s OK to have some conflicting beliefs.,Highly disagree,43/150,Somewhat agree,3,1698241878204,1698241882089,\Somewhat agree\,\Somewhat agree\,\3\,1698241881480,1698241881480,3276,3276,3885,buq,qns-item-noham,43,358919,0.0-1.0-0.42
<b>Sometimes the details of a matter seem to conflict with the big picture.,Highly disagree,44/150,Somewhat agree,3,1698241882092,1698241888835,\Somewhat agree\,\Somewhat agree\,\3\,1698241887921,1698241887921,5829,5829,6743,buq,qns-item-noham,44,365665,0.0-1.0-0.43
<b>Listening to people I disagree with makes my opinions better.,Highly disagree,45/150,Somewhat agree,3,1698241888838,1698241895825,\Somewhat agree\,\Somewhat agree\,\3\,1698241894633,1698241894633,5795,5795,6987,buq,qns-item-noham,45,372655,0.0-1.0-0.44
<b>Policies that sound bad are sometimes fine when you find out about their details.,Highly disagree,46/150,Somewhat agree,3,1698241895827,1698241905994,\Somewhat agree\,\Somewhat agree\,\3\,1698241902801,1698241902801,6974,6974,10167,buq,qns-item-noham,46,382824,0.0-1.0-0.45
"<b>The world is always changing, so my beliefs are sometimes out-dated.",Highly disagree,47/150,Highly agree,4,1698241905996,1698241916403,\Somewhat agree\,\Highly agree\,\3\,1698241912922,1698241915258,6926,9262,10407,buq,qns-item-noham,47,393233,0.0-1.0-0.46
"<b>If I receive a bad meal at my favorite restaurant and the food is surprisingly bad, I do not think much of it, and assume the chef is just having an ?off? day.",Highly disagree,48/150,Highly agree,4,1698241916405,1698241932875,\Highly agree\,\Highly agree\,\4\,1698241931123,1698241931123,14718,14718,16470,buq,qns-item-noham,48,409705,0.0-1.0-0.47
"<b>False information is unavoidable, to some extent.",Highly disagree,49/150,Somewhat agree,3,1698241932877,1698241937675,\Somewhat agree\,\Somewhat agree\,\3\,1698241936419,1698241936419,3542,3542,4798,buq,qns-item-noham,49,414505,0.0-1.0-0.48
<b>My moral compass sometimes makes it harder to determine what?s true.,Highly disagree,50/150,Somewhat disagree,2,1698241937677,1698241944133,\Somewhat disagree\,\Somewhat disagree\,\2\,1698241943373,1698241943373,5696,5696,6456,buq,qns-item-noham,50,420963,0.0-1.0-0.49
"<b>When you disagree with someone, it?s important to listen to them carefully.",Highly disagree,51/150,Somewhat agree,3,1698241944136,1698241953909,\Somewhat agree\,\Somewhat agree\,\3\,1698241950523,1698241950523,6387,6387,9773,buq,qns-item-noham,51,430739,0.0-1.0-0.50
<b>Evidence pointing in the wrong direction isn?t really evidence at all.,Highly disagree,52/150,Somewhat agree,3,1698241953911,1698241962747,\Somewhat agree\,\Somewhat agree\,\3\,1698241961044,1698241961044,7133,7133,8836,buq,qns-item-noham,52,439577,0.0-1.0-0.51
"<b>If the political party I support messes up, it makes me think politics is rotten.",Highly disagree,53/150,Somewhat disagree,2,1698241962750,1698241970205,\Somewhat disagree\,\Somewhat disagree\,\2\,1698241969652,1698241969652,6902,6902,7455,buq,qns-item-noham,53,447035,0.0-1.0-0.52
<b>Lots of important topics can only really be understood by some groups of people.,Highly disagree,54/150,Somewhat agree,3,1698241970208,1698241979822,\Somewhat agree\,\Somewhat agree\,\3\,1698241979029,1698241979029,8821,8821,9614,buq,qns-item-noham,54,456652,0.0-1.0-0.53
<b>Details almost always matter for being right about something.,Highly disagree,55/150,Highly agree,4,1698241979825,1698241986749,\Somewhat agree\,\Highly agree\,\3\,1698241985213,1698241986094,5388,6269,6924,buq,qns-item-noham,55,463579,0.0-1.0-0.54
"<b>The most important thing in politics is winning, not convincing people.",Highly disagree,56/150,Highly disagree,1,1698241986752,1698241991463,\Highly disagree\,\Highly disagree\,\1\,1698241990565,1698241990565,3813,3813,4711,buq,qns-item-noham,56,468293,0.0-1.0-0.55
<b>Having conflicting beliefs means you haven?t thought about them enough.,Highly disagree,57/150,Somewhat disagree,2,1698241991465,1698241998167,\Somewhat disagree\,\Somewhat disagree\,\2\,1698241997430,1698241997430,5965,5965,6702,buq,qns-item-noham,57,474997,0.0-1.0-0.56
<b>Other people have sometimes convinced me to change my mind on important topics.,Highly disagree,58/150,Highly agree,4,1698241998170,1698242005127,\Highly agree\,\Highly agree\,\4\,1698242004486,1698242004486,6316,6316,6957,buq,qns-item-noham,58,481957,0.0-1.0-0.57
<b>I do not often change my political opinions.,Highly disagree,59/150,Somewhat disagree,2,1698242005130,1698242008931,\Somewhat disagree\,\Somewhat disagree\,\2\,1698242008247,1698242008247,3117,3117,3801,buq,qns-item-noham,59,485761,0.0-1.0-0.58
<b>Thinking about how different things relate to one another is critical in life.,Highly disagree,60/150,Highly agree,4,1698242008934,1698242021823,\Somewhat agree\,\Highly agree\,\3\,1698242013775,1698242021135,4841,12201,12889,buq,qns-item-noham,60,498653,0.0-1.0-0.59
<b>True beliefs can have unfortunate implications.,Highly disagree,61/150,Somewhat agree,3,1698242021825,1698242027648,\Somewhat agree\,\Somewhat agree\,\3\,1698242026911,1698242026911,5086,5086,5823,buq,qns-item-noham,61,504478,0.0-1.0-0.60
<b>It?s difficult to not have at least some conflicting beliefs.,Highly disagree,62/150,Somewhat agree,3,1698242027650,1698242033352,\Somewhat agree\,\Somewhat agree\,\3\,1698242032703,1698242032703,5053,5053,5702,buq,qns-item-noham,62,510182,0.0-1.0-0.61
"<b>When I learn new things, I think deeply about how my opinions should change.",Highly disagree,63/150,Somewhat agree,3,1698242033355,1698242061656,\Highly agree\,\Somewhat agree\,\4\,1698242038992,1698242060977,5637,27622,28301,buq,qns-item-noham,63,538486,0.0-1.0-0.62
<b>I think a lot about how to interpret different sorts of evidence.,Highly disagree,64/150,Highly agree,4,1698242061659,1698242068298,\Highly agree\,\Highly agree\,\4\,1698242067649,1698242067649,5990,5990,6639,buq,qns-item-noham,64,545128,0.0-1.0-0.63
<b>Politics is about thinking together and finding compromises.,Highly disagree,65/150,Highly agree,4,1698242068301,1698242074746,\Highly agree\,\Highly agree\,\4\,1698242074161,1698242074161,5860,5860,6445,buq,qns-item-noham,65,551576,0.0-1.0-0.64
<b>Wishful thinking causes a lot of problems.,Highly disagree,66/150,Somewhat agree,3,1698242074749,1698242081777,\Somewhat disagree\,\Somewhat agree\,\2\,1698242078433,1698242081001,3684,6252,7028,buq,qns-item-noham,66,558607,0.0-1.0-0.65
<b>I judge a food item only once I try it many times.,Highly disagree,67/150,Somewhat disagree,2,1698242081779,1698242089610,\Somewhat disagree\,\Somewhat disagree\,\2\,1698242088843,1698242088843,7064,7064,7831,buq,qns-item-noham,67,566440,0.0-1.0-0.66
"<b>When a person holds conflicting beliefs, they should really try to figure out what?s wrong.",Highly disagree,68/150,Somewhat agree,3,1698242089614,1698242098225,\Somewhat agree\,\Somewhat agree\,\3\,1698242095673,1698242095673,6059,6059,8611,buq,qns-item-noham,68,575055,0.0-1.0-0.67
<b>Knowing what?s important in life is easy.,Highly disagree,69/150,Somewhat disagree,2,1698242098228,1698242102482,\Somewhat disagree\,\Somewhat disagree\,\2\,1698242101898,1698242101898,3670,3670,4254,buq,qns-item-noham,69,579312,0.0-1.0-0.68
<b>Lots of smart people disagree about basic political questions.,Highly disagree,70/150,Highly agree,4,1698242102485,1698242108403,\Highly agree\,\Highly agree\,\4\,1698242107459,1698242107459,4974,4974,5918,buq,qns-item-noham,70,585233,0.0-1.0-0.69
<b>I swim across the Atlantic Ocean to get to work every day.,Highly disagree,71/150,Highly disagree,1,1698242108406,1698242115866,\Highly disagree\,\Highly disagree\,\1\,1698242114338,1698242114338,5932,5932,7460,buq,qns-item-noham,71,592696,0.0-1.0-0.70
"<b>Sometimes, you just have to ignore evidence that you know is wrong.",Highly disagree,72/150,Somewhat agree,3,1698242115868,1698242124227,\Somewhat agree\,\Somewhat agree\,\3\,1698242122115,1698242122115,6247,6247,8359,buq,qns-item-noham,72,601057,0.0-1.0-0.71
<b>I have had some false beliefs.,Highly disagree,73/150,Highly agree,4,1698242124230,1698242127677,\Highly agree\,\Highly agree\,\4\,1698242126660,1698242126660,2430,2430,3447,buq,qns-item-noham,73,604507,0.0-1.0-0.72
"<b>If one friend does something that upsets me, I sometimes start to distrust people in general.",Highly disagree,74/150,Somewhat disagree,2,1698242127681,1698242135200,\Somewhat disagree\,\Somewhat disagree\,\2\,1698242134387,1698242134387,6706,6706,7519,buq,qns-item-noham,74,612030,0.0-1.0-0.73
<b>I easily apply what I learn in one situation to another.,Highly disagree,75/150,Highly agree,4,1698242135203,1698242142036,\Highly agree\,\Highly agree\,\4\,1698242141035,1698242141035,5832,5832,6833,buq,qns-item-noham,75,618866,0.0-1.0-0.74
<b>The facts about most important matters are easy to find.,Highly disagree,76/150,Somewhat disagree,2,1698242142044,1698242146996,\Somewhat disagree\,\Somewhat disagree\,\2\,1698242146203,1698242146203,4159,4159,4952,buq,qns-item-noham,76,623826,0.0-1.0-0.75
<b>It?s better to know what?s true than to know what?s moral.,Highly disagree,77/150,Somewhat disagree,2,1698242146998,1698242152765,\Somewhat disagree\,\Somewhat disagree\,\2\,1698242152011,1698242152011,5013,5013,5767,buq,qns-item-noham,77,629595,0.0-1.0-0.76
<b>It?s good to be skeptical of people you agree with.,Highly disagree,78/150,Somewhat agree,3,1698242152767,1698242157981,\Somewhat agree\,\Somewhat agree\,\3\,1698242156940,1698242156940,4173,4173,5214,buq,qns-item-noham,78,634811,0.0-1.0-0.77
<b>Sometimes reasonable beliefs are wrong.,Highly disagree,79/150,Highly agree,4,1698242157983,1698242168060,\Highly agree\,\Highly agree\,\4\,1698242164428,1698242167060,6445,9077,10077,buq,qns-item-noham,79,644890,0.0-1.0-0.78
<b>I used to think the world was less complicated than I do now.,Highly disagree,80/150,Highly agree,4,1698242168062,1698242173262,\Highly agree\,\Highly agree\,\4\,1698242172564,1698242172564,4502,4502,5200,buq,qns-item-noham,80,650092,0.0-1.0-0.79
<b>People are usually completely right or completely wrong.,Highly disagree,81/150,Highly disagree,1,1698242173264,1698242177469,\Highly disagree\,\Highly disagree\,\1\,1698242176644,1698242176644,3380,3380,4205,buq,qns-item-noham,81,654300,0.0-1.0-0.80
<b>I spend a lot of time considering alternatives to my beliefs.,Highly disagree,82/150,Somewhat agree,3,1698242177472,1698242181725,\Somewhat agree\,\Somewhat agree\,\3\,1698242180796,1698242180796,3324,3324,4253,buq,qns-item-noham,82,658555,0.0-1.0-0.81
"<b>Political enemies need to be defeated, not convinced.",Highly disagree,83/150,Highly disagree,1,1698242181727,1698242187150,\Highly disagree\,\Highly disagree\,\1\,1698242186292,1698242186292,4565,4565,5423,buq,qns-item-noham,83,663980,0.0-1.0-0.82
"<b>When forming an opinion about a restaurant, I am more swayed by my  latest meal there than  previous meals I?ve had there.",Highly disagree,84/150,Somewhat agree,3,1698242187152,1698242199901,\Highly agree\,\Somewhat agree\,\4\,1698242197229,1698242199245,10077,12093,12749,buq,qns-item-noham,84,676731,0.0-1.0-0.83
<b>I try to remain skeptical about most topics.,Highly disagree,85/150,Somewhat agree,3,1698242199905,1698242206557,\Somewhat disagree\,\Somewhat agree\,\2\,1698242203965,1698242205701,4060,5796,6652,buq,qns-item-noham,85,683387,0.0-1.0-0.84
<b>Being wrong is usually obvious in retrospect.,Highly disagree,86/150,Somewhat disagree,2,1698242206559,1698242212038,\Somewhat disagree\,\Somewhat disagree\,\2\,1698242211389,1698242211389,4830,4830,5479,buq,qns-item-noham,86,688868,0.0-1.0-0.85
<b>It can be hard to realize that my beliefs are in conflict.,Highly disagree,87/150,Somewhat agree,3,1698242212041,1698242219582,\Somewhat agree\,\Somewhat agree\,\3\,1698242217365,1698242217365,5324,5324,7541,buq,qns-item-noham,87,696412,0.0-1.0-0.86
<b>I form my political views only after meticulously gathering historical and present information about their policies.,Highly disagree,88/150,Somewhat disagree,2,1698242219585,1698242231311,\Somewhat disagree\,\Somewhat disagree\,\2\,1698242226805,1698242226805,7220,7220,11726,buq,qns-item-noham,88,708141,0.0-1.0-0.87
<b>Skeptical people are usually just bad-tempered.,Highly disagree,89/150,Somewhat disagree,2,1698242231312,1698242238822,\Somewhat disagree\,\Somewhat disagree\,\2\,1698242235816,1698242235816,4504,4504,7510,buq,qns-item-noham,89,715652,0.0-1.0-0.88
<b>It is difficult for me to remember the last time I was surprised by politics.,Highly disagree,90/150,Somewhat disagree,2,1698242238825,1698242249582,\Somewhat disagree\,\Somewhat disagree\,\2\,1698242245982,1698242245982,7157,7157,10757,buq,qns-item-noham,90,726412,0.0-1.0-0.89
"<b>When I find out I?m wrong, I think a lot about my related beliefs.",Highly disagree,91/150,Highly agree,4,1698242249585,1698242257152,\Highly agree\,\Highly agree\,\4\,1698242256128,1698242256128,6543,6543,7567,buq,qns-item-noham,91,733982,0.0-1.0-0.90
"<b>If the political party I support messes up, it makes me think you can?t trust anyone these days",Highly disagree,92/150,Somewhat disagree,2,1698242257154,1698242266320,\Somewhat disagree\,\Somewhat disagree\,\2\,1698242265687,1698242265687,8533,8533,9166,buq,qns-item-noham,92,743151,0.0-1.0-0.91
<b>People?s brains turn off when they talk about politics.,Highly disagree,93/150,Somewhat agree,3,1698242266323,1698242272848,\Somewhat agree\,\Somewhat agree\,\3\,1698242272136,1698242272136,5813,5813,6525,buq,qns-item-noham,93,749678,0.0-1.0-0.92
<b>People who are wrong are usually just ignoring the obvious.,Highly disagree,94/150,Somewhat disagree,2,1698242272851,1698242296032,\Somewhat disagree\,\Somewhat disagree\,\2\,1698242277839,1698242277839,4988,4988,23181,buq,qns-item-noham,94,772862,0.0-1.0-0.93
"<b>The world isn?t that complicated, but it?s still hard to figure out how it works.",Highly disagree,95/150,Somewhat disagree,2,1698242296035,1698242301792,\Somewhat disagree\,\Somewhat disagree\,\2\,1698242300136,1698242300136,4101,4101,5757,buq,qns-item-noham,95,778622,0.0-1.0-0.94
"<b>When forming my views on people, I rely more on what they are like now rather than rely on my past experience with them.",Highly disagree,96/150,Somewhat agree,3,1698242301795,1698242328129,\Somewhat agree\,\Somewhat agree\,\3\,1698242312337,1698242312337,10542,10542,26334,buq,qns-item-noham,96,804959,0.0-1.0-0.95
"<b>When people contradict my beliefs, I usually know about their evidence already.",Highly disagree,97/150,Somewhat disagree,2,1698242328132,1698242342249,\Somewhat disagree\,\Somewhat disagree\,\2\,1698242333657,1698242333657,5525,5525,14117,buq,qns-item-noham,97,819080,0.0-1.0-0.96
<b>Being wrong is a matter of degree.,Highly disagree,98/150,Somewhat agree,3,1698242342252,1698242348362,\Somewhat agree\,\Somewhat agree\,\3\,1698242347562,1698242347562,5310,5310,6110,buq,qns-item-noham,98,825192,0.0-1.0-0.97
<b>Figuring out what?s true and what?s false mainly requires a strong moral compass.,Highly disagree,99/150,Somewhat disagree,2,1698242348366,1698242359571,\Somewhat disagree\,\Somewhat disagree\,\2\,1698242358466,1698242358466,10100,10100,11205,buq,qns-item-noham,99,836401,0.0-1.0-0.98
<b>Most of the beliefs people have are at least somewhat understandable.,Highly disagree,100/150,Highly agree,4,1698242359574,1698242366139,\Highly agree\,\Highly agree\,\4\,1698242365402,1698242365402,5828,5828,6565,buq,qns-item-noham,100,842969,0.0-1.0-0.99
"<b>Usually I?m wrong about simple things, not complicated ones.",Highly disagree,101/150,Somewhat disagree,2,1698242366143,1698242372300,\Somewhat disagree\,\Somewhat disagree\,\2\,1698242371698,1698242371698,5555,5555,6157,buq,qns-item-noham,101,849130,0.0-1.0-0.100
<b>Getting all the information I want about important things is hard.,Highly disagree,102/150,Highly agree,4,1698242372302,1698242380058,\Highly agree\,\Highly agree\,\4\,1698242378843,1698242378843,6541,6541,7756,buq,qns-item-noham,102,856888,0.0-1.0-0.101
<b>Most false beliefs spread because people try to deceive one another.,Highly disagree,103/150,Somewhat disagree,2,1698242380061,1698242388123,\Somewhat agree\,\Somewhat disagree\,\3\,1698242385572,1698242387468,5511,7407,8062,buq,qns-item-noham,103,864953,0.0-1.0-0.102
<b>I can usually find something to agree with in most people?s beliefs.,Highly disagree,104/150,Somewhat agree,3,1698242388125,1698242393261,\Somewhat agree\,\Somewhat agree\,\3\,1698242392267,1698242392267,4142,4142,5136,buq,qns-item-noham,104,870091,0.0-1.0-0.103
<b>I only form my views of people once I get to know them very well.,Highly disagree,105/150,Highly agree,4,1698242393263,1698242406155,\Somewhat agree\,\Highly agree\,\3\,1698242401252,1698242404699,7989,11436,12892,buq,qns-item-noham,105,882985,0.0-1.0-0.104
"<b>When people tell me important things about the world, I usually believe them.",Highly disagree,106/150,Somewhat disagree,2,1698242406158,1698242412981,\Somewhat disagree\,\Somewhat disagree\,\2\,1698242412108,1698242412108,5950,5950,6823,buq,qns-item-noham,106,889811,0.0-1.0-0.105
"<b>If a friend does something that upsets me, it reminds me what an unpredictable place the world is.",Highly disagree,107/150,Somewhat disagree,2,1698242412984,1698242444045,\Somewhat agree\,\Somewhat disagree\,\3\,1698242421204,1698242443301,8220,30317,31061,buq,qns-item-noham,107,920875,0.0-1.0-0.106
<b>Having some conflicting beliefs is inevitable.,Highly disagree,108/150,Somewhat agree,3,1698242444047,1698242448727,\Somewhat agree\,\Somewhat agree\,\3\,1698242448125,1698242448125,4078,4078,4680,buq,qns-item-noham,108,925557,0.0-1.0-0.107
<b>People are wrong because they haven?t thought much about things.,Highly disagree,109/150,Somewhat agree,3,1698242448729,1698242459693,\Somewhat agree\,\Somewhat agree\,\3\,1698242453694,1698242453694,4965,4965,10964,buq,qns-item-noham,109,936523,0.0-1.0-0.108
<b>People tend to believe whatever is good for their friends.,Highly disagree,110/150,Somewhat agree,3,1698242459695,1698242466934,\Somewhat disagree\,\Somewhat agree\,\2\,1698242464046,1698242465662,4351,5967,7239,buq,qns-item-noham,110,943764,0.0-1.0-0.109
"<b>When I talk about important topics, I try to make sure people know I?m not always right.",Highly disagree,111/150,Highly disagree,1,1698242466935,1698242474653,\Highly disagree\,\Highly disagree\,\1\,1698242473838,1698242473838,6903,6903,7718,buq,qns-item-noham,111,951485,0.0-1.0-0.110
<b>I used to be more certain my beliefs were true.,Highly disagree,112/150,Highly agree,4,1698242474658,1698242481390,\Somewhat agree\,\Highly agree\,\3\,1698242478461,1698242480622,3803,5964,6732,buq,qns-item-noham,112,958220,0.0-1.0-0.111
<b>It?s often pretty easy to figure out whether something is true based on who said it.,Highly disagree,113/150,Somewhat disagree,2,1698242481392,1698242490079,\Somewhat disagree\,\Somewhat disagree\,\2\,1698242489295,1698242489295,7903,7903,8687,buq,qns-item-noham,113,966910,0.0-1.0-0.112
<b>Having bad food in my favorite restaurant will make me think the restaurant is no longer good.,Highly disagree,114/150,Somewhat disagree,2,1698242490082,1698242513079,\Somewhat agree\,\Somewhat disagree\,\3\,1698242499464,1698242512023,9382,21941,22997,buq,qns-item-noham,114,989909,0.0-1.0-0.113
<b>I transform into a hummingbird every day.,Highly disagree,115/150,Highly disagree,1,1698242513082,1698242519529,\Highly disagree\,\Highly disagree\,\1\,1698242518512,1698242518512,5430,5430,6447,buq,qns-item-noham,115,996359,0.0-1.0-0.114
"<b>Unfortunately, when people are wrong, it?s usually because they?re bad.",Highly disagree,116/150,Highly disagree,1,1698242519531,1698242532904,\Somewhat agree\,\Highly disagree\,\3\,1698242526487,1698242531728,6956,12197,13373,buq,qns-item-noham,116,1009734,0.0-1.0-0.115
<b>I think a lot about arguments against my views.,Highly disagree,117/150,Somewhat agree,3,1698242532906,1698242539152,\Somewhat agree\,\Somewhat agree\,\3\,1698242538040,1698242538040,5134,5134,6246,buq,qns-item-noham,117,1015982,0.0-1.0-0.116
<b>Details tend to matter a lot for knowing whether a policy is good.,Highly disagree,118/150,Highly agree,4,1698242539154,1698242556561,\Somewhat agree\,\Highly agree\,\3\,1698242549240,1698242555545,10086,16391,17407,buq,qns-item-noham,118,1033391,0.0-1.0-0.117
<b>Personal experience is usually more important than facts and figures.,Highly disagree,119/150,Somewhat disagree,2,1698242556563,1698242567992,\Highly disagree\,\Somewhat disagree\,\1\,1698242565057,1698242567089,8494,10526,11429,buq,qns-item-noham,119,1044822,0.0-1.0-0.118
<b>I?ve been tricked before about important matters.,Highly disagree,120/150,Somewhat agree,3,1698242567994,1698242573513,\Somewhat agree\,\Somewhat agree\,\3\,1698242572073,1698242572073,4079,4079,5519,buq,qns-item-noham,120,1050343,0.0-1.0-0.119
<b>I would need to be totally wowed if I were to change my opinion of a restaurant I don?t like.,Highly disagree,121/150,Somewhat agree,3,1698242573515,1698242584553,\Somewhat agree\,\Somewhat agree\,\3\,1698242582265,1698242582265,8750,8750,11038,buq,qns-item-noham,121,1061383,0.0-1.0-0.120
<b>I care a lot about politics.,Highly disagree,122/150,Somewhat agree,3,1698242584555,1698242588779,\Somewhat agree\,\Somewhat agree\,\3\,1698242588177,1698242588177,3622,3622,4224,buq,qns-item-noham,122,1065609,0.0-1.0-0.121
<b>People with conflicting beliefs usually have some facts they disagree on.,Highly disagree,123/150,Somewhat agree,3,1698242588782,1698242595938,\Somewhat agree\,\Somewhat agree\,\3\,1698242594410,1698242594410,5628,5628,7156,buq,qns-item-noham,123,1072768,0.0-1.0-0.122
<b>There are some topics I?ve been really wrong about.,Highly disagree,124/150,Somewhat agree,3,1698242595941,1698242601258,\Somewhat agree\,\Somewhat agree\,\3\,1698242600562,1698242600562,4621,4621,5317,buq,qns-item-noham,124,1078088,0.0-1.0-0.123
<b>Most beliefs can be supported with at least some evidence.,Highly disagree,125/150,Somewhat agree,3,1698242601260,1698242617267,\Highly agree\,\Somewhat agree\,\4\,1698242606002,1698242616275,4742,15015,16007,buq,qns-item-noham,125,1094097,0.0-1.0-0.124
<b>Other people make life out to be more complicated than it really is.,Highly disagree,126/150,Somewhat disagree,2,1698242617268,1698242622139,\Somewhat disagree\,\Somewhat disagree\,\2\,1698242621315,1698242621315,4047,4047,4871,buq,qns-item-noham,126,1098969,0.0-1.0-0.125
"<b>My political views are being shaped continuously as I gather more information, rather than relying on what I?ve known to be true of my party in the past. ",Highly disagree,127/150,Highly agree,4,1698242622141,1698242633523,\Highly agree\,\Highly agree\,\4\,1698242629476,1698242629476,7335,7335,11382,buq,qns-item-noham,127,1110353,0.0-1.0-0.126
<b>It?s pretty unusual for true things to seem false.,Highly disagree,128/150,Somewhat disagree,2,1698242633525,1698242639459,\Somewhat disagree\,\Somewhat disagree\,\2\,1698242638043,1698242638043,4518,4518,5934,buq,qns-item-noham,128,1116289,0.0-1.0-0.127
"<b>Policy details don?t matter much, just the big picture.",Highly disagree,129/150,Highly disagree,1,1698242639461,1698242647163,\Somewhat agree\,\Highly disagree\,\3\,1698242643931,1698242646420,4470,6959,7702,buq,qns-item-noham,129,1123993,0.0-1.0-0.128
<b>I know my friends so well they can hardly ever surprise me.,Highly disagree,130/150,Somewhat disagree,2,1698242647166,1698242654180,\Somewhat disagree\,\Somewhat disagree\,\2\,1698242652708,1698242652708,5542,5542,7014,buq,qns-item-noham,130,1131010,0.0-1.0-0.129
"<b>When I talk to people, I often think about why they have the beliefs they do.",Highly disagree,131/150,Highly agree,4,1698242654183,1698242666085,\Somewhat agree\,\Highly agree\,\3\,1698242663132,1698242665196,8949,11013,11902,buq,qns-item-noham,131,1142915,0.0-1.0-0.130
<b>I do not often change my views on people.,Highly disagree,132/150,Somewhat disagree,2,1698242666087,1698242670197,\Somewhat disagree\,\Somewhat disagree\,\2\,1698242669188,1698242669188,3101,3101,4110,buq,qns-item-noham,132,1147027,0.0-1.0-0.131
<b>I often wish I had more time to spend figuring out what?s true and what?s false in life.,Highly disagree,133/150,Somewhat agree,3,1698242670200,1698242698021,\Highly agree\,\Somewhat agree\,\4\,1698242676604,1698242687212,6404,17012,27821,buq,qns-item-noham,133,1174851,0.0-1.0-0.132
<b>I?m more certain about my beliefs than I used to be.,Highly disagree,134/150,Highly disagree,1,1698242698023,1698242702934,\Highly disagree\,\Highly disagree\,\1\,1698242701917,1698242701917,3894,3894,4911,buq,qns-item-noham,134,1179764,0.0-1.0-0.133
"<b>Whenever I find out new information, I update my views on politics accordingly.",Highly disagree,135/150,Highly agree,4,1698242702936,1698242708774,\Highly agree\,\Highly agree\,\4\,1698242707909,1698242707909,4973,4973,5838,buq,qns-item-noham,135,1185604,0.0-1.0-0.134
<b>People often tell falsehoods unintentionally.,Highly disagree,136/150,Highly agree,4,1698242708777,1698242714567,\Highly agree\,\Highly agree\,\4\,1698242713878,1698242713878,5101,5101,5790,buq,qns-item-noham,136,1191397,0.0-1.0-0.135
<b>Most people don?t know much about most things.,Highly disagree,137/150,Somewhat agree,3,1698242714570,1698242719487,\Somewhat agree\,\Somewhat agree\,\3\,1698242718557,1698242718557,3987,3987,4917,buq,qns-item-noham,137,1196317,0.0-1.0-0.136
"<b>If I find out something new about someone, I easily change my views about them.",Highly disagree,138/150,Somewhat disagree,2,1698242719490,1698242726511,\Somewhat disagree\,\Somewhat disagree\,\2\,1698242725742,1698242725742,6252,6252,7021,buq,qns-item-noham,138,1203341,0.0-1.0-0.137
<b>Having true beliefs is difficult.,Highly disagree,139/150,Somewhat agree,3,1698242726519,1698242732838,\Somewhat agree\,\Somewhat agree\,\3\,1698242732030,1698242732030,5511,5511,6319,buq,qns-item-noham,139,1209669,0.0-1.0-0.138
<b>I don?t try new foods since I know I won?t like them.,Highly disagree,140/150,Highly disagree,1,1698242732842,1698242737782,\Highly disagree\,\Highly disagree\,\1\,1698242736318,1698242736318,3476,3476,4940,buq,qns-item-noham,140,1214612,0.0-1.0-0.139
<b>It?s easy to figure out what?s true or false based on who?s saying it.,Highly disagree,141/150,Somewhat disagree,2,1698242737784,1698242745647,\Somewhat disagree\,\Somewhat disagree\,\2\,1698242744751,1698242744751,6967,6967,7863,buq,qns-item-noham,141,1222477,0.0-1.0-0.140
<b>False things have seemed true to me many times.,Highly disagree,142/150,Highly agree,4,1698242745650,1698242752671,\Highly agree\,\Highly agree\,\4\,1698242751103,1698242751103,5453,5453,7021,buq,qns-item-noham,142,1229501,0.0-1.0-0.141
<b>It?s pretty easy to sort out what?s true and what?s false in life.,Highly disagree,143/150,Somewhat disagree,2,1698242752673,1698242757239,\Somewhat disagree\,\Somewhat disagree\,\2\,1698242756511,1698242756511,3838,3838,4566,buq,qns-item-noham,143,1234069,0.0-1.0-0.142
<b>Knowing lots of statistics about something is usually important for understanding it.,Highly disagree,144/150,Somewhat agree,3,1698242757241,1698242767495,\Somewhat agree\,\Somewhat agree\,\3\,1698242765577,1698242765577,8336,8336,10254,buq,qns-item-noham,144,1244325,0.0-1.0-0.143
<b>Other people trick each other a lot.,Highly disagree,145/150,Somewhat agree,3,1698242767497,1698242774167,\Highly agree\,\Somewhat agree\,\4\,1698242771607,1698242773456,4110,5959,6670,buq,qns-item-noham,145,1250998,0.0-1.0-0.144
<b>I would need to learn a lot about a person for my opinion of them to be swayed.,Highly disagree,146/150,Somewhat agree,3,1698242774170,1698242780673,\Somewhat agree\,\Somewhat agree\,\3\,1698242779793,1698242779793,5623,5623,6503,buq,qns-item-noham,146,1257503,0.0-1.0-0.145
<b>People can?t usually trick me when it comes to topics I care about.,Highly disagree,147/150,Somewhat disagree,2,1698242780676,1698242787448,\Somewhat disagree\,\Somewhat disagree\,\2\,1698242786856,1698242786856,6180,6180,6772,buq,qns-item-noham,147,1264278,0.0-1.0-0.146
<b>I do not often change my views on food.,Highly disagree,148/150,Somewhat disagree,2,1698242787450,1698242793113,\Somewhat disagree\,\Somewhat disagree\,\2\,1698242792368,1698242792368,4918,4918,5663,buq,qns-item-noham,148,1269943,0.0-1.0-0.147
<b>Specific policies are often very important to me.,Highly disagree,149/150,Highly agree,4,1698242793115,1698242798672,\Highly agree\,\Highly agree\,\4\,1698242797376,1698242797376,4261,4261,5557,buq,qns-item-noham,149,1275502,0.0-1.0-0.148
<b>Most people are woefully under-informed.,Highly disagree,150/150,Somewhat agree,3,1698242798674,1698242803273,\Somewhat agree\,\Somewhat agree\,\3\,1698242801696,1698242801696,3022,3022,4599,buq,qns-item-noham,150,1280103,0.0-1.0-0.149
