Question,qns_options,quest_num,answer,answer_num,question_load_timestamp,next_btn_timestamp,text_selected,final_text_selected,option_num_selected,preview_timestamps,final_text_selected_time_stamp,rt_first_option_click,rt_final_option_click,rt_submit_click,questionnaire,trial_type,trial_index,time_elapsed,internal_node_id
<b>Considering other people?s perspectives can help us figure out what?s true or false.,Highly disagree,1/150,Highly agree,4,1698241297066,1698241303733,\Highly agree\,\Highly agree\,\4\,1698241302576,1698241302576,5510,5510,6667,buq,qns-item-noham,1,13841,0.0-1.0-0.0
<b>Knowing what?s true and knowing what to do about it are usually basically the same.,Highly disagree,2/150,Somewhat disagree,2,1698241303736,1698241309193,\Somewhat disagree\,\Somewhat disagree\,\2\,1698241308631,1698241308631,4895,4895,5457,buq,qns-item-noham,2,19301,0.0-1.0-0.1
<b>Most people just believe whatever is convenient for them.,Highly disagree,3/150,Somewhat agree,3,1698241309194,1698241312048,\Somewhat agree\,\Somewhat agree\,\3\,1698241311515,1698241311515,2321,2321,2854,buq,qns-item-noham,3,22156,0.0-1.0-0.2
<b>Even people who are wrong about most things can be right sometimes.,Highly disagree,4/150,Somewhat agree,3,1698241312049,1698241315868,\Somewhat agree\,\Somewhat agree\,\3\,1698241315357,1698241315357,3308,3308,3819,buq,qns-item-noham,4,25976,0.0-1.0-0.3
"<b>If the political party I support does something that upsets me, then the party may have changed, and I need to re-evaluate my support.",Highly disagree,5/150,Somewhat agree,3,1698241315869,1698241322024,\Somewhat disagree\,\Somewhat agree\,\2\,1698241320831,1698241321496,4962,5627,6155,buq,qns-item-noham,5,32132,0.0-1.0-0.4
"<b>When people disagree, one side is usually completely right.",Highly disagree,6/150,Somewhat disagree,2,1698241322025,1698241325340,\Somewhat disagree\,\Somewhat disagree\,\2\,1698241324734,1698241324734,2709,2709,3315,buq,qns-item-noham,6,35448,0.0-1.0-0.5
<b>People have lots of false beliefs.,Highly disagree,7/150,Highly agree,4,1698241325342,1698241327524,\Highly agree\,\Highly agree\,\4\,1698241326945,1698241326945,1603,1603,2182,buq,qns-item-noham,7,37632,0.0-1.0-0.6
<b>Having some big beliefs helps me sort out minor ones.,Highly disagree,8/150,Somewhat agree,3,1698241327525,1698241332273,\Somewhat agree\,\Somewhat agree\,\3\,1698241331731,1698241331731,4206,4206,4748,buq,qns-item-noham,8,42381,0.0-1.0-0.7
<b>Political questions are usually pretty complicated.,Highly disagree,9/150,Somewhat agree,3,1698241332275,1698241334901,\Somewhat agree\,\Somewhat agree\,\3\,1698241334396,1698241334396,2121,2121,2626,buq,qns-item-noham,9,45009,0.0-1.0-0.8
<b>Figuring out what?s important in life requires learning a lot of facts.,Highly disagree,10/150,Highly agree,4,1698241334902,1698241338221,\Highly agree\,\Highly agree\,\4\,1698241337520,1698241337520,2618,2618,3319,buq,qns-item-noham,10,48329,0.0-1.0-0.9
<b>It is difficult for me to remember the last time I was surprised by politics.,Highly disagree,11/150,Highly agree,4,1698241338222,1698241342981,\Highly agree\,\Highly agree\,\4\,1698241342402,1698241342402,4180,4180,4759,buq,qns-item-noham,11,53089,0.0-1.0-0.10
<b>People?s false beliefs are understandable.,Highly disagree,12/150,Somewhat disagree,2,1698241342982,1698241345797,\Somewhat disagree\,\Somewhat disagree\,\2\,1698241345238,1698241345238,2256,2256,2815,buq,qns-item-noham,12,55905,0.0-1.0-0.11
<b>I spend a lot of time trying to be informed about politics.,Highly disagree,13/150,Somewhat agree,3,1698241345798,1698241348425,\Somewhat agree\,\Somewhat agree\,\3\,1698241347983,1698241347983,2185,2185,2627,buq,qns-item-noham,13,58533,0.0-1.0-0.12
<b>I think a lot about whether my beliefs are right.,Highly disagree,14/150,Somewhat disagree,2,1698241348426,1698241350853,\Somewhat disagree\,\Somewhat disagree\,\2\,1698241350375,1698241350375,1949,1949,2427,buq,qns-item-noham,14,60961,0.0-1.0-0.13
<b>Statistics can be pretty misleading sometimes.,Highly disagree,15/150,Somewhat agree,3,1698241350855,1698241352915,\Somewhat agree\,\Somewhat agree\,\3\,1698241352456,1698241352456,1601,1601,2060,buq,qns-item-noham,15,63023,0.0-1.0-0.14
<b>Figuring out what?s true and what?s false takes a lot of time and effort.,Highly disagree,16/150,Somewhat agree,3,1698241352916,1698241355867,\Somewhat agree\,\Somewhat agree\,\3\,1698241355405,1698241355405,2489,2489,2951,buq,qns-item-noham,16,65975,0.0-1.0-0.15
"<b>If a friend does something bad to me, it was likely an error on their part.",Highly disagree,17/150,Somewhat disagree,2,1698241355868,1698241359342,\Somewhat disagree\,\Somewhat disagree\,\2\,1698241358890,1698241358890,3022,3022,3474,buq,qns-item-noham,17,69450,0.0-1.0-0.16
<b>I have lots of beliefs that I?m only sort of sure about.,Highly disagree,18/150,Somewhat agree,3,1698241359344,1698241362011,\Somewhat agree\,\Somewhat agree\,\3\,1698241361584,1698241361584,2240,2240,2667,buq,qns-item-noham,18,72119,0.0-1.0-0.17
"<b>If I go to my favorite restaurant and the food is surprisingly bad, it reminds me there are many disappointments in life.",Highly disagree,19/150,Somewhat disagree,2,1698241362012,1698241366502,\Somewhat disagree\,\Somewhat disagree\,\2\,1698241366033,1698241366033,4021,4021,4490,buq,qns-item-noham,19,76610,0.0-1.0-0.18
<b>Sometimes my beliefs are inconvenient for me.,Highly disagree,20/150,Somewhat disagree,2,1698241366504,1698241369431,\Somewhat disagree\,\Somewhat disagree\,\2\,1698241369004,1698241369004,2500,2500,2927,buq,qns-item-noham,20,79539,0.0-1.0-0.19
<b>Paying attention to multiple news sources is important.,Highly disagree,21/150,Highly agree,4,1698241369432,1698241371873,\Highly agree\,\Highly agree\,\4\,1698241371361,1698241371361,1929,1929,2441,buq,qns-item-noham,21,81981,0.0-1.0-0.20
"<b>If you are paying attention, please select ?Somewhat agree?",Highly disagree,22/150,Somewhat agree,3,1698241371874,1698241374293,\Somewhat agree\,\Somewhat agree\,\3\,1698241373780,1698241373780,1906,1906,2419,buq,qns-item-noham,22,84401,0.0-1.0-0.21
"<b>When I talk to others, I often worry I?ll convince them of something I didn?t mean to.",Highly disagree,23/150,Highly disagree,1,1698241374294,1698241378896,\Highly disagree\,\Highly disagree\,\1\,1698241378170,1698241378170,3876,3876,4602,buq,qns-item-noham,23,89004,0.0-1.0-0.22
<b>I would need to learn something utterly shocking about my party in order to change my political views.,Highly disagree,24/150,Somewhat agree,3,1698241378897,1698241383386,\Somewhat agree\,\Somewhat agree\,\3\,1698241382806,1698241382806,3909,3909,4489,buq,qns-item-noham,24,93494,0.0-1.0-0.23
"<b>When I have new experiences, I tend to think of them as unique.",Highly disagree,25/150,Somewhat disagree,2,1698241383387,1698241386931,\Somewhat disagree\,\Somewhat disagree\,\2\,1698241386255,1698241386255,2868,2868,3544,buq,qns-item-noham,25,97039,0.0-1.0-0.24
<b>Reading lots of things is important for understanding the world.,Highly disagree,26/150,Highly agree,4,1698241386932,1698241389880,\Highly agree\,\Highly agree\,\4\,1698241389141,1698241389141,2209,2209,2948,buq,qns-item-noham,26,99988,0.0-1.0-0.25
<b>The world is complicated.,Highly disagree,27/150,Highly agree,4,1698241389881,1698241393815,\Somewhat agree\,\Highly agree\,\3\,1698241392137,1698241392918,2256,3037,3934,buq,qns-item-noham,27,103923,0.0-1.0-0.26
<b>I change my mind about specific policies pretty frequently.,Highly disagree,28/150,Somewhat disagree,2,1698241393816,1698241396532,\Somewhat disagree\,\Somewhat disagree\,\2\,1698241396117,1698241396117,2301,2301,2716,buq,qns-item-noham,28,106640,0.0-1.0-0.27
"<b>If a politician in my political party supports something I disagree with, I give them the benefit of the doubt, as such issues often involve hidden complexities that aren?t obvious.   ",Highly disagree,29/150,Somewhat disagree,2,1698241396533,1698241401869,\Somewhat disagree\,\Somewhat disagree\,\2\,1698241401404,1698241401404,4871,4871,5336,buq,qns-item-noham,29,111977,0.0-1.0-0.28
<b>People?s bad politics are usually motivated by hatefulness.,Highly disagree,30/150,Somewhat agree,3,1698241401870,1698241406439,\Somewhat disagree\,\Somewhat agree\,\2\,1698241405194,1698241406088,3324,4218,4569,buq,qns-item-noham,30,116547,0.0-1.0-0.29
"<b>Most new experiences are just like old ones, but a little bit different.",Highly disagree,31/150,Somewhat agree,3,1698241406440,1698241410351,\Somewhat agree\,\Somewhat agree\,\3\,1698241409911,1698241409911,3471,3471,3911,buq,qns-item-noham,31,120459,0.0-1.0-0.30
<b>I think a lot about how to reconcile my beliefs with one another.,Highly disagree,32/150,Somewhat disagree,2,1698241410351,1698241413246,\Somewhat disagree\,\Somewhat disagree\,\2\,1698241412866,1698241412866,2515,2515,2895,buq,qns-item-noham,32,123354,0.0-1.0-0.31
<b>Personal experience rarely leads people astray.,Highly disagree,33/150,Somewhat agree,3,1698241413246,1698241419697,\Somewhat agree\,\Somewhat agree\,\3\,1698241417526,1698241417526,4280,4280,6451,buq,qns-item-noham,33,129805,0.0-1.0-0.32
<b>I might have false beliefs about important topics.,Highly disagree,34/150,Somewhat agree,3,1698241419698,1698241422740,\Somewhat agree\,\Somewhat agree\,\3\,1698241421598,1698241421598,1900,1900,3042,buq,qns-item-noham,34,132848,0.0-1.0-0.33
"<b>If a good friend of mine does something unexpected that upsets me, I feel like I don?t know them anymore.",Highly disagree,35/150,Somewhat disagree,2,1698241422741,1698241426619,\Somewhat disagree\,\Somewhat disagree\,\2\,1698241426182,1698241426182,3441,3441,3878,buq,qns-item-noham,35,136727,0.0-1.0-0.34
<b>Other people?s beliefs are often incoherent.,Highly disagree,36/150,Somewhat agree,3,1698241426620,1698241429771,\Somewhat agree\,\Somewhat agree\,\3\,1698241429363,1698241429363,2743,2743,3151,buq,qns-item-noham,36,139879,0.0-1.0-0.35
<b>It?s important to have friends who think about things differently than I do.,Highly disagree,37/150,Somewhat agree,3,1698241429772,1698241432357,\Somewhat agree\,\Somewhat agree\,\3\,1698241431907,1698241431907,2135,2135,2585,buq,qns-item-noham,37,142465,0.0-1.0-0.36
"<b>Every now and then, a new experience will unsettle beliefs I?ve had for a while.",Highly disagree,38/150,Somewhat disagree,2,1698241432358,1698241435971,\Somewhat disagree\,\Somewhat disagree\,\2\,1698241435566,1698241435566,3208,3208,3613,buq,qns-item-noham,38,146079,0.0-1.0-0.37
<b>Some policies I agree with in principle are so bad I don?t support them. ,Highly disagree,39/150,Somewhat disagree,2,1698241435972,1698241443826,\Somewhat disagree\,\Somewhat disagree\,\2\,1698241442650,1698241442650,6678,6678,7854,buq,qns-item-noham,39,153934,0.0-1.0-0.38
<b>I?m pretty sure I?ve accidentally spread false information.,Highly disagree,40/150,Somewhat disagree,2,1698241443827,1698241447127,\Somewhat disagree\,\Somewhat disagree\,\2\,1698241446543,1698241446543,2716,2716,3300,buq,qns-item-noham,40,157235,0.0-1.0-0.39
"<b>If I go to my favorite restaurant and the food is unexpectedly bad, then they have changed owners.",Highly disagree,41/150,Highly disagree,1,1698241447128,1698241450932,\Highly disagree\,\Highly disagree\,\1\,1698241450334,1698241450334,3206,3206,3804,buq,qns-item-noham,41,161040,0.0-1.0-0.40
"<b>In politics, it?s important to trust your friends and family.",Highly disagree,42/150,Somewhat disagree,2,1698241450934,1698241454537,\Somewhat disagree\,\Somewhat disagree\,\2\,1698241454037,1698241454037,3103,3103,3603,buq,qns-item-noham,42,164645,0.0-1.0-0.41
<b>It?s OK to have some conflicting beliefs.,Highly disagree,43/150,Somewhat agree,3,1698241454538,1698241456908,\Somewhat agree\,\Somewhat agree\,\3\,1698241456468,1698241456468,1930,1930,2370,buq,qns-item-noham,43,167016,0.0-1.0-0.42
<b>Sometimes the details of a matter seem to conflict with the big picture.,Highly disagree,44/150,Somewhat agree,3,1698241456909,1698241460476,\Somewhat agree\,\Somewhat agree\,\3\,1698241460053,1698241460053,3144,3144,3567,buq,qns-item-noham,44,170584,0.0-1.0-0.43
<b>Listening to people I disagree with makes my opinions better.,Highly disagree,45/150,Somewhat agree,3,1698241460478,1698241464116,\Somewhat agree\,\Somewhat agree\,\3\,1698241463719,1698241463719,3241,3241,3638,buq,qns-item-noham,45,174224,0.0-1.0-0.44
<b>Policies that sound bad are sometimes fine when you find out about their details.,Highly disagree,46/150,Somewhat agree,3,1698241464117,1698241470117,\Somewhat agree\,\Somewhat agree\,\3\,1698241469727,1698241469727,5610,5610,6000,buq,qns-item-noham,46,180225,0.0-1.0-0.45
"<b>The world is always changing, so my beliefs are sometimes out-dated.",Highly disagree,47/150,Somewhat agree,3,1698241470118,1698241473019,\Somewhat agree\,\Somewhat agree\,\3\,1698241472663,1698241472663,2545,2545,2901,buq,qns-item-noham,47,183127,0.0-1.0-0.46
"<b>If I receive a bad meal at my favorite restaurant and the food is surprisingly bad, I do not think much of it, and assume the chef is just having an ?off? day.",Highly disagree,48/150,Highly agree,4,1698241473020,1698241478568,\Highly agree\,\Highly agree\,\4\,1698241478108,1698241478108,5088,5088,5548,buq,qns-item-noham,48,188676,0.0-1.0-0.47
"<b>False information is unavoidable, to some extent.",Highly disagree,49/150,Somewhat agree,3,1698241478569,1698241481514,\Somewhat agree\,\Somewhat agree\,\3\,1698241481118,1698241481118,2549,2549,2945,buq,qns-item-noham,49,191622,0.0-1.0-0.48
<b>My moral compass sometimes makes it harder to determine what?s true.,Highly disagree,50/150,Somewhat disagree,2,1698241481515,1698241484430,\Somewhat disagree\,\Somewhat disagree\,\2\,1698241484001,1698241484001,2486,2486,2915,buq,qns-item-noham,50,194538,0.0-1.0-0.49
"<b>When you disagree with someone, it?s important to listen to them carefully.",Highly disagree,51/150,Somewhat agree,3,1698241484431,1698241486839,\Somewhat agree\,\Somewhat agree\,\3\,1698241486432,1698241486432,2001,2001,2408,buq,qns-item-noham,51,196947,0.0-1.0-0.50
<b>Evidence pointing in the wrong direction isn?t really evidence at all.,Highly disagree,52/150,Somewhat disagree,2,1698241486840,1698241489860,\Somewhat disagree\,\Somewhat disagree\,\2\,1698241489463,1698241489463,2623,2623,3020,buq,qns-item-noham,52,199968,0.0-1.0-0.51
"<b>If the political party I support messes up, it makes me think politics is rotten.",Highly disagree,53/150,Highly disagree,1,1698241489861,1698241496717,\Highly disagree\,\Highly disagree\,\1\,1698241496307,1698241496307,6446,6446,6856,buq,qns-item-noham,53,206825,0.0-1.0-0.52
<b>Lots of important topics can only really be understood by some groups of people.,Highly disagree,54/150,Highly disagree,1,1698241496718,1698241500203,\Highly disagree\,\Highly disagree\,\1\,1698241499842,1698241499842,3124,3124,3485,buq,qns-item-noham,54,210311,0.0-1.0-0.53
<b>Details almost always matter for being right about something.,Highly disagree,55/150,Somewhat agree,3,1698241500204,1698241503163,\Somewhat agree\,\Somewhat agree\,\3\,1698241502802,1698241502802,2598,2598,2959,buq,qns-item-noham,55,213271,0.0-1.0-0.54
"<b>The most important thing in politics is winning, not convincing people.",Highly disagree,56/150,Somewhat disagree,2,1698241503164,1698241506124,\Somewhat disagree\,\Somewhat disagree\,\2\,1698241505737,1698241505737,2573,2573,2960,buq,qns-item-noham,56,216232,0.0-1.0-0.55
<b>Having conflicting beliefs means you haven?t thought about them enough.,Highly disagree,57/150,Somewhat disagree,2,1698241506125,1698241509701,\Somewhat disagree\,\Somewhat disagree\,\2\,1698241509373,1698241509373,3248,3248,3576,buq,qns-item-noham,57,219809,0.0-1.0-0.56
<b>Other people have sometimes convinced me to change my mind on important topics.,Highly disagree,58/150,Somewhat agree,3,1698241509702,1698241512872,\Somewhat agree\,\Somewhat agree\,\3\,1698241512479,1698241512479,2777,2777,3170,buq,qns-item-noham,58,222980,0.0-1.0-0.57
<b>I do not often change my political opinions.,Highly disagree,59/150,Highly agree,4,1698241512873,1698241515328,\Highly agree\,\Highly agree\,\4\,1698241514915,1698241514915,2042,2042,2455,buq,qns-item-noham,59,225436,0.0-1.0-0.58
<b>Thinking about how different things relate to one another is critical in life.,Highly disagree,60/150,Somewhat agree,3,1698241515329,1698241520896,\Highly agree\,\Somewhat agree\,\4\,1698241518886,1698241520619,3557,5290,5567,buq,qns-item-noham,60,231004,0.0-1.0-0.59
<b>True beliefs can have unfortunate implications.,Highly disagree,61/150,Highly agree,4,1698241520898,1698241525544,\Highly agree\,\Highly agree\,\4\,1698241524996,1698241524996,4098,4098,4646,buq,qns-item-noham,61,235652,0.0-1.0-0.60
<b>It?s difficult to not have at least some conflicting beliefs.,Highly disagree,62/150,Somewhat agree,3,1698241525545,1698241528737,\Somewhat agree\,\Somewhat agree\,\3\,1698241528377,1698241528377,2832,2832,3192,buq,qns-item-noham,62,238845,0.0-1.0-0.61
"<b>When I learn new things, I think deeply about how my opinions should change.",Highly disagree,63/150,Somewhat agree,3,1698241528738,1698241531439,\Somewhat agree\,\Somewhat agree\,\3\,1698241531090,1698241531090,2352,2352,2701,buq,qns-item-noham,63,241548,0.0-1.0-0.62
<b>I think a lot about how to interpret different sorts of evidence.,Highly disagree,64/150,Somewhat agree,3,1698241531440,1698241534117,\Somewhat agree\,\Somewhat agree\,\3\,1698241533779,1698241533779,2339,2339,2677,buq,qns-item-noham,64,244225,0.0-1.0-0.63
<b>Politics is about thinking together and finding compromises.,Highly disagree,65/150,Somewhat agree,3,1698241534118,1698241537136,\Somewhat agree\,\Somewhat agree\,\3\,1698241536764,1698241536764,2646,2646,3018,buq,qns-item-noham,65,247244,0.0-1.0-0.64
<b>Wishful thinking causes a lot of problems.,Highly disagree,66/150,Somewhat disagree,2,1698241537137,1698241540717,\Somewhat agree\,\Somewhat disagree\,\3\,1698241539625,1698241540088,2488,2951,3580,buq,qns-item-noham,66,250825,0.0-1.0-0.65
<b>I judge a food item only once I try it many times.,Highly disagree,67/150,Somewhat agree,3,1698241540718,1698241548008,\Somewhat agree\,\Somewhat agree\,\3\,1698241547076,1698241547076,6358,6358,7290,buq,qns-item-noham,67,258116,0.0-1.0-0.66
"<b>When a person holds conflicting beliefs, they should really try to figure out what?s wrong.",Highly disagree,68/150,Somewhat disagree,2,1698241548009,1698241552965,\Somewhat disagree\,\Somewhat disagree\,\2\,1698241552605,1698241552605,4596,4596,4956,buq,qns-item-noham,68,263073,0.0-1.0-0.67
<b>Knowing what?s important in life is easy.,Highly disagree,69/150,Somewhat disagree,2,1698241552966,1698241555332,\Somewhat disagree\,\Somewhat disagree\,\2\,1698241555000,1698241555000,2034,2034,2366,buq,qns-item-noham,69,265440,0.0-1.0-0.68
<b>Lots of smart people disagree about basic political questions.,Highly disagree,70/150,Highly agree,4,1698241555333,1698241558697,\Highly agree\,\Highly agree\,\4\,1698241558273,1698241558273,2940,2940,3364,buq,qns-item-noham,70,268805,0.0-1.0-0.69
<b>I swim across the Atlantic Ocean to get to work every day.,Highly disagree,71/150,Highly disagree,1,1698241558698,1698241561836,\Highly disagree\,\Highly disagree\,\1\,1698241560959,1698241560959,2261,2261,3138,buq,qns-item-noham,71,271944,0.0-1.0-0.70
"<b>Sometimes, you just have to ignore evidence that you know is wrong.",Highly disagree,72/150,Somewhat disagree,2,1698241561837,1698241565734,\Somewhat disagree\,\Somewhat disagree\,\2\,1698241565220,1698241565220,3383,3383,3897,buq,qns-item-noham,72,275842,0.0-1.0-0.71
<b>I have had some false beliefs.,Highly disagree,73/150,Somewhat disagree,2,1698241565735,1698241570520,\Somewhat disagree\,\Somewhat disagree\,\2\,1698241570232,1698241570232,4497,4497,4785,buq,qns-item-noham,73,280628,0.0-1.0-0.72
"<b>If one friend does something that upsets me, I sometimes start to distrust people in general.",Highly disagree,74/150,Somewhat disagree,2,1698241570521,1698241574382,\Somewhat disagree\,\Somewhat disagree\,\2\,1698241574018,1698241574018,3497,3497,3861,buq,qns-item-noham,74,284490,0.0-1.0-0.73
<b>I easily apply what I learn in one situation to another.,Highly disagree,75/150,Somewhat agree,3,1698241574383,1698241577350,\Somewhat agree\,\Somewhat agree\,\3\,1698241576997,1698241576997,2614,2614,2967,buq,qns-item-noham,75,287458,0.0-1.0-0.74
<b>The facts about most important matters are easy to find.,Highly disagree,76/150,Somewhat agree,3,1698241577351,1698241580475,\Somewhat agree\,\Somewhat agree\,\3\,1698241580157,1698241580157,2806,2806,3124,buq,qns-item-noham,76,290583,0.0-1.0-0.75
<b>It?s better to know what?s true than to know what?s moral.,Highly disagree,77/150,Highly agree,4,1698241580476,1698241584725,\Somewhat agree\,\Highly agree\,\3\,1698241583703,1698241584344,3227,3868,4249,buq,qns-item-noham,77,294833,0.0-1.0-0.76
<b>It?s good to be skeptical of people you agree with.,Highly disagree,78/150,Somewhat agree,3,1698241584727,1698241587643,\Somewhat agree\,\Somewhat agree\,\3\,1698241587246,1698241587246,2519,2519,2916,buq,qns-item-noham,78,297751,0.0-1.0-0.77
<b>Sometimes reasonable beliefs are wrong.,Highly disagree,79/150,Highly agree,4,1698241587644,1698241589871,\Highly agree\,\Highly agree\,\4\,1698241589471,1698241589471,1827,1827,2227,buq,qns-item-noham,79,299979,0.0-1.0-0.78
<b>I used to think the world was less complicated than I do now.,Highly disagree,80/150,Somewhat agree,3,1698241589872,1698241593566,\Somewhat agree\,\Somewhat agree\,\3\,1698241592925,1698241592925,3053,3053,3694,buq,qns-item-noham,80,303674,0.0-1.0-0.79
<b>People are usually completely right or completely wrong.,Highly disagree,81/150,Highly disagree,1,1698241593567,1698241596175,\Highly disagree\,\Highly disagree\,\1\,1698241595810,1698241595810,2243,2243,2608,buq,qns-item-noham,81,306283,0.0-1.0-0.80
<b>I spend a lot of time considering alternatives to my beliefs.,Highly disagree,82/150,Highly disagree,1,1698241596176,1698241599122,\Highly disagree\,\Highly disagree\,\1\,1698241598757,1698241598757,2581,2581,2946,buq,qns-item-noham,82,309230,0.0-1.0-0.81
"<b>Political enemies need to be defeated, not convinced.",Highly disagree,83/150,Highly disagree,1,1698241599123,1698241602244,\Highly disagree\,\Highly disagree\,\1\,1698241601916,1698241601916,2793,2793,3121,buq,qns-item-noham,83,312352,0.0-1.0-0.82
"<b>When forming an opinion about a restaurant, I am more swayed by my  latest meal there than  previous meals I?ve had there.",Highly disagree,84/150,Somewhat disagree,2,1698241602246,1698241606676,\Somewhat disagree\,\Somewhat disagree\,\2\,1698241606281,1698241606281,4035,4035,4430,buq,qns-item-noham,84,316784,0.0-1.0-0.83
<b>I try to remain skeptical about most topics.,Highly disagree,85/150,Somewhat agree,3,1698241606677,1698241610203,\Somewhat agree\,\Somewhat agree\,\3\,1698241609859,1698241609859,3182,3182,3526,buq,qns-item-noham,85,320311,0.0-1.0-0.84
<b>Being wrong is usually obvious in retrospect.,Highly disagree,86/150,Somewhat agree,3,1698241610204,1698241613297,\Somewhat agree\,\Somewhat agree\,\3\,1698241612931,1698241612931,2727,2727,3093,buq,qns-item-noham,86,323405,0.0-1.0-0.85
<b>It can be hard to realize that my beliefs are in conflict.,Highly disagree,87/150,Somewhat agree,3,1698241613298,1698241615849,\Somewhat agree\,\Somewhat agree\,\3\,1698241615504,1698241615504,2206,2206,2551,buq,qns-item-noham,87,325957,0.0-1.0-0.86
<b>I form my political views only after meticulously gathering historical and present information about their policies.,Highly disagree,88/150,Somewhat agree,3,1698241615851,1698241619799,\Somewhat agree\,\Somewhat agree\,\3\,1698241619477,1698241619477,3626,3626,3948,buq,qns-item-noham,88,329907,0.0-1.0-0.87
<b>Skeptical people are usually just bad-tempered.,Highly disagree,89/150,Highly disagree,1,1698241619800,1698241622323,\Highly disagree\,\Highly disagree\,\1\,1698241621973,1698241621973,2173,2173,2523,buq,qns-item-noham,89,332431,0.0-1.0-0.88
<b>It is difficult for me to remember the last time I was surprised by politics.,Highly disagree,90/150,Highly agree,4,1698241622324,1698241626373,\Highly agree\,\Highly agree\,\4\,1698241625958,1698241625958,3634,3634,4049,buq,qns-item-noham,90,336481,0.0-1.0-0.89
"<b>When I find out I?m wrong, I think a lot about my related beliefs.",Highly disagree,91/150,Somewhat agree,3,1698241626374,1698241629712,\Somewhat agree\,\Somewhat agree\,\3\,1698241629378,1698241629378,3004,3004,3338,buq,qns-item-noham,91,339820,0.0-1.0-0.90
"<b>If the political party I support messes up, it makes me think you can?t trust anyone these days",Highly disagree,92/150,Highly disagree,1,1698241629713,1698241633041,\Highly disagree\,\Highly disagree\,\1\,1698241632697,1698241632697,2984,2984,3328,buq,qns-item-noham,92,343149,0.0-1.0-0.91
<b>People?s brains turn off when they talk about politics.,Highly disagree,93/150,Somewhat agree,3,1698241633042,1698241636639,\Somewhat agree\,\Somewhat agree\,\3\,1698241636261,1698241636261,3219,3219,3597,buq,qns-item-noham,93,346747,0.0-1.0-0.92
<b>People who are wrong are usually just ignoring the obvious.,Highly disagree,94/150,Somewhat disagree,2,1698241636640,1698241640591,\Somewhat disagree\,\Somewhat disagree\,\2\,1698241640253,1698241640253,3613,3613,3951,buq,qns-item-noham,94,350699,0.0-1.0-0.93
"<b>The world isn?t that complicated, but it?s still hard to figure out how it works.",Highly disagree,95/150,Somewhat agree,3,1698241640592,1698241643496,\Somewhat agree\,\Somewhat agree\,\3\,1698241643088,1698241643088,2496,2496,2904,buq,qns-item-noham,95,353604,0.0-1.0-0.94
"<b>When forming my views on people, I rely more on what they are like now rather than rely on my past experience with them.",Highly disagree,96/150,Somewhat agree,3,1698241643497,1698241648838,\Somewhat agree\,\Somewhat agree\,\3\,1698241648503,1698241648503,5006,5006,5341,buq,qns-item-noham,96,358946,0.0-1.0-0.95
"<b>When people contradict my beliefs, I usually know about their evidence already.",Highly disagree,97/150,Somewhat disagree,2,1698241648839,1698241652843,\Somewhat disagree\,\Somewhat disagree\,\2\,1698241652483,1698241652483,3644,3644,4004,buq,qns-item-noham,97,362951,0.0-1.0-0.96
<b>Being wrong is a matter of degree.,Highly disagree,98/150,Somewhat disagree,2,1698241652844,1698241656206,\Somewhat disagree\,\Somewhat disagree\,\2\,1698241655603,1698241655603,2759,2759,3362,buq,qns-item-noham,98,366314,0.0-1.0-0.97
<b>Figuring out what?s true and what?s false mainly requires a strong moral compass.,Highly disagree,99/150,Highly disagree,1,1698241656207,1698241659399,\Highly disagree\,\Highly disagree\,\1\,1698241659025,1698241659025,2818,2818,3192,buq,qns-item-noham,99,369507,0.0-1.0-0.98
<b>Most of the beliefs people have are at least somewhat understandable.,Highly disagree,100/150,Somewhat agree,3,1698241659400,1698241664273,\Somewhat agree\,\Somewhat agree\,\3\,1698241663912,1698241663912,4512,4512,4873,buq,qns-item-noham,100,374381,0.0-1.0-0.99
"<b>Usually I?m wrong about simple things, not complicated ones.",Highly disagree,101/150,Somewhat agree,3,1698241664274,1698241670332,\Somewhat agree\,\Somewhat agree\,\3\,1698241667961,1698241667961,3687,3687,6058,buq,qns-item-noham,101,380440,0.0-1.0-0.100
<b>Getting all the information I want about important things is hard.,Highly disagree,102/150,Somewhat disagree,2,1698241670333,1698241673336,\Somewhat disagree\,\Somewhat disagree\,\2\,1698241672999,1698241672999,2666,2666,3003,buq,qns-item-noham,102,383444,0.0-1.0-0.101
<b>Most false beliefs spread because people try to deceive one another.,Highly disagree,103/150,Somewhat agree,3,1698241673337,1698241678148,\Somewhat agree\,\Somewhat agree\,\3\,1698241677796,1698241677796,4459,4459,4811,buq,qns-item-noham,103,388256,0.0-1.0-0.102
<b>I can usually find something to agree with in most people?s beliefs.,Highly disagree,104/150,Somewhat disagree,2,1698241678149,1698241681009,\Somewhat disagree\,\Somewhat disagree\,\2\,1698241680636,1698241680636,2487,2487,2860,buq,qns-item-noham,104,391117,0.0-1.0-0.103
<b>I only form my views of people once I get to know them very well.,Highly disagree,105/150,Somewhat agree,3,1698241681010,1698241683972,\Somewhat agree\,\Somewhat agree\,\3\,1698241683625,1698241683625,2615,2615,2962,buq,qns-item-noham,105,394080,0.0-1.0-0.104
"<b>When people tell me important things about the world, I usually believe them.",Highly disagree,106/150,Somewhat disagree,2,1698241683973,1698241687108,\Somewhat disagree\,\Somewhat disagree\,\2\,1698241686684,1698241686684,2711,2711,3135,buq,qns-item-noham,106,397216,0.0-1.0-0.105
"<b>If a friend does something that upsets me, it reminds me what an unpredictable place the world is.",Highly disagree,107/150,Somewhat disagree,2,1698241687109,1698241691239,\Somewhat disagree\,\Somewhat disagree\,\2\,1698241690895,1698241690895,3786,3786,4130,buq,qns-item-noham,107,401347,0.0-1.0-0.106
<b>Having some conflicting beliefs is inevitable.,Highly disagree,108/150,Somewhat agree,3,1698241691240,1698241693401,\Somewhat agree\,\Somewhat agree\,\3\,1698241693015,1698241693015,1775,1775,2161,buq,qns-item-noham,108,403509,0.0-1.0-0.107
<b>People are wrong because they haven?t thought much about things.,Highly disagree,109/150,Highly disagree,1,1698241693401,1698241696039,\Highly disagree\,\Highly disagree\,\1\,1698241695700,1698241695700,2299,2299,2638,buq,qns-item-noham,109,406147,0.0-1.0-0.108
<b>People tend to believe whatever is good for their friends.,Highly disagree,110/150,Somewhat disagree,2,1698241696040,1698241700379,\Somewhat disagree\,\Somewhat disagree\,\2\,1698241699178,1698241699178,3138,3138,4339,buq,qns-item-noham,110,410487,0.0-1.0-0.109
"<b>When I talk about important topics, I try to make sure people know I?m not always right.",Highly disagree,111/150,Somewhat agree,3,1698241700380,1698241705427,\Somewhat agree\,\Somewhat agree\,\3\,1698241704951,1698241704951,4571,4571,5047,buq,qns-item-noham,111,415536,0.0-1.0-0.110
<b>I used to be more certain my beliefs were true.,Highly disagree,112/150,Highly disagree,1,1698241705428,1698241708145,\Highly disagree\,\Highly disagree\,\1\,1698241707711,1698241707711,2283,2283,2717,buq,qns-item-noham,112,418253,0.0-1.0-0.111
<b>It?s often pretty easy to figure out whether something is true based on who said it.,Highly disagree,113/150,Somewhat disagree,2,1698241708146,1698241711652,\Somewhat disagree\,\Somewhat disagree\,\2\,1698241711231,1698241711231,3085,3085,3506,buq,qns-item-noham,113,421760,0.0-1.0-0.112
<b>Having bad food in my favorite restaurant will make me think the restaurant is no longer good.,Highly disagree,114/150,Highly disagree,1,1698241711653,1698241715393,\Highly disagree\,\Highly disagree\,\1\,1698241714839,1698241714839,3186,3186,3740,buq,qns-item-noham,114,425501,0.0-1.0-0.113
<b>I transform into a hummingbird every day.,Highly disagree,115/150,Highly disagree,1,1698241715394,1698241717967,\Highly disagree\,\Highly disagree\,\1\,1698241717448,1698241717448,2054,2054,2573,buq,qns-item-noham,115,428075,0.0-1.0-0.114
"<b>Unfortunately, when people are wrong, it?s usually because they?re bad.",Highly disagree,116/150,Highly disagree,1,1698241717967,1698241721032,\Highly disagree\,\Highly disagree\,\1\,1698241720581,1698241720581,2614,2614,3065,buq,qns-item-noham,116,431140,0.0-1.0-0.115
<b>I think a lot about arguments against my views.,Highly disagree,117/150,Somewhat disagree,2,1698241721033,1698241724385,\Somewhat disagree\,\Somewhat disagree\,\2\,1698241724011,1698241724011,2978,2978,3352,buq,qns-item-noham,117,434493,0.0-1.0-0.116
<b>Details tend to matter a lot for knowing whether a policy is good.,Highly disagree,118/150,Highly agree,4,1698241724386,1698241728006,\Somewhat agree\,\Highly agree\,\3\,1698241726851,1698241727614,2465,3228,3620,buq,qns-item-noham,118,438114,0.0-1.0-0.117
<b>Personal experience is usually more important than facts and figures.,Highly disagree,119/150,Somewhat disagree,2,1698241728007,1698241731105,\Somewhat disagree\,\Somewhat disagree\,\2\,1698241730754,1698241730754,2747,2747,3098,buq,qns-item-noham,119,441213,0.0-1.0-0.118
<b>I?ve been tricked before about important matters.,Highly disagree,120/150,Somewhat disagree,2,1698241731106,1698241733800,\Somewhat disagree\,\Somewhat disagree\,\2\,1698241733433,1698241733433,2327,2327,2694,buq,qns-item-noham,120,443908,0.0-1.0-0.119
<b>I would need to be totally wowed if I were to change my opinion of a restaurant I don?t like.,Highly disagree,121/150,Somewhat agree,3,1698241733801,1698241737794,\Somewhat agree\,\Somewhat agree\,\3\,1698241737437,1698241737437,3636,3636,3993,buq,qns-item-noham,121,447902,0.0-1.0-0.120
<b>I care a lot about politics.,Highly disagree,122/150,Somewhat agree,3,1698241737795,1698241739868,\Somewhat agree\,\Somewhat agree\,\3\,1698241739515,1698241739515,1720,1720,2073,buq,qns-item-noham,122,449977,0.0-1.0-0.121
<b>People with conflicting beliefs usually have some facts they disagree on.,Highly disagree,123/150,Somewhat agree,3,1698241739870,1698241742518,\Somewhat agree\,\Somewhat agree\,\3\,1698241742156,1698241742156,2286,2286,2648,buq,qns-item-noham,123,452626,0.0-1.0-0.122
<b>There are some topics I?ve been really wrong about.,Highly disagree,124/150,Somewhat agree,3,1698241742519,1698241745475,\Somewhat agree\,\Somewhat agree\,\3\,1698241745070,1698241745070,2551,2551,2956,buq,qns-item-noham,124,455583,0.0-1.0-0.123
<b>Most beliefs can be supported with at least some evidence.,Highly disagree,125/150,Highly agree,4,1698241745475,1698241748390,\Highly agree\,\Highly agree\,\4\,1698241748008,1698241748008,2533,2533,2915,buq,qns-item-noham,125,458498,0.0-1.0-0.124
<b>Other people make life out to be more complicated than it really is.,Highly disagree,126/150,Highly disagree,1,1698241748391,1698241752664,\Highly disagree\,\Highly disagree\,\1\,1698241752302,1698241752302,3911,3911,4273,buq,qns-item-noham,126,462772,0.0-1.0-0.125
"<b>My political views are being shaped continuously as I gather more information, rather than relying on what I?ve known to be true of my party in the past. ",Highly disagree,127/150,Somewhat agree,3,1698241752665,1698241755956,\Somewhat agree\,\Somewhat agree\,\3\,1698241755549,1698241755549,2884,2884,3291,buq,qns-item-noham,127,466064,0.0-1.0-0.126
<b>It?s pretty unusual for true things to seem false.,Highly disagree,128/150,Highly disagree,1,1698241755956,1698241760931,\Highly disagree\,\Highly disagree\,\1\,1698241760526,1698241760526,4570,4570,4975,buq,qns-item-noham,128,471039,0.0-1.0-0.127
"<b>Policy details don?t matter much, just the big picture.",Highly disagree,129/150,Highly disagree,1,1698241760931,1698241763893,\Highly disagree\,\Highly disagree\,\1\,1698241763463,1698241763463,2532,2532,2962,buq,qns-item-noham,129,474001,0.0-1.0-0.128
<b>I know my friends so well they can hardly ever surprise me.,Highly disagree,130/150,Somewhat agree,3,1698241763894,1698241767743,\Somewhat agree\,\Somewhat agree\,\3\,1698241766993,1698241766993,3099,3099,3849,buq,qns-item-noham,130,477851,0.0-1.0-0.129
"<b>When I talk to people, I often think about why they have the beliefs they do.",Highly disagree,131/150,Somewhat disagree,2,1698241767744,1698241770938,\Somewhat disagree\,\Somewhat disagree\,\2\,1698241770574,1698241770574,2830,2830,3194,buq,qns-item-noham,131,481046,0.0-1.0-0.130
<b>I do not often change my views on people.,Highly disagree,132/150,Somewhat agree,3,1698241770939,1698241773659,\Somewhat agree\,\Somewhat agree\,\3\,1698241772939,1698241772939,2000,2000,2720,buq,qns-item-noham,132,483767,0.0-1.0-0.131
<b>I often wish I had more time to spend figuring out what?s true and what?s false in life.,Highly disagree,133/150,Somewhat disagree,2,1698241773660,1698241777341,\Somewhat disagree\,\Somewhat disagree\,\2\,1698241776992,1698241776992,3332,3332,3681,buq,qns-item-noham,133,487449,0.0-1.0-0.132
<b>I?m more certain about my beliefs than I used to be.,Highly disagree,134/150,Highly agree,4,1698241777341,1698241779460,\Highly agree\,\Highly agree\,\4\,1698241779059,1698241779059,1718,1718,2119,buq,qns-item-noham,134,489568,0.0-1.0-0.133
"<b>Whenever I find out new information, I update my views on politics accordingly.",Highly disagree,135/150,Somewhat agree,3,1698241779460,1698241782155,\Somewhat agree\,\Somewhat agree\,\3\,1698241781167,1698241781167,1707,1707,2695,buq,qns-item-noham,135,492263,0.0-1.0-0.134
<b>People often tell falsehoods unintentionally.,Highly disagree,136/150,Somewhat agree,3,1698241782156,1698241784360,\Somewhat agree\,\Somewhat agree\,\3\,1698241784068,1698241784068,1912,1912,2204,buq,qns-item-noham,136,494468,0.0-1.0-0.135
<b>Most people don?t know much about most things.,Highly disagree,137/150,Somewhat agree,3,1698241784361,1698241786663,\Somewhat agree\,\Somewhat agree\,\3\,1698241786322,1698241786322,1961,1961,2302,buq,qns-item-noham,137,496771,0.0-1.0-0.136
"<b>If I find out something new about someone, I easily change my views about them.",Highly disagree,138/150,Somewhat disagree,2,1698241786664,1698241790236,\Somewhat disagree\,\Somewhat disagree\,\2\,1698241789873,1698241789873,3209,3209,3572,buq,qns-item-noham,138,500344,0.0-1.0-0.137
<b>Having true beliefs is difficult.,Highly disagree,139/150,Somewhat disagree,2,1698241790237,1698241792656,\Somewhat disagree\,\Somewhat disagree\,\2\,1698241792315,1698241792315,2078,2078,2419,buq,qns-item-noham,139,502764,0.0-1.0-0.138
<b>I don?t try new foods since I know I won?t like them.,Highly disagree,140/150,Highly disagree,1,1698241792657,1698241795237,\Highly disagree\,\Highly disagree\,\1\,1698241794850,1698241794850,2193,2193,2580,buq,qns-item-noham,140,505345,0.0-1.0-0.139
<b>It?s easy to figure out what?s true or false based on who?s saying it.,Highly disagree,141/150,Somewhat disagree,2,1698241795237,1698241798480,\Somewhat disagree\,\Somewhat disagree\,\2\,1698241798139,1698241798139,2902,2902,3243,buq,qns-item-noham,141,508588,0.0-1.0-0.140
<b>False things have seemed true to me many times.,Highly disagree,142/150,Somewhat disagree,2,1698241798481,1698241801097,\Somewhat disagree\,\Somewhat disagree\,\2\,1698241800763,1698241800763,2282,2282,2616,buq,qns-item-noham,142,511205,0.0-1.0-0.141
<b>It?s pretty easy to sort out what?s true and what?s false in life.,Highly disagree,143/150,Somewhat agree,3,1698241801098,1698241803736,\Somewhat agree\,\Somewhat agree\,\3\,1698241803381,1698241803381,2283,2283,2638,buq,qns-item-noham,143,513844,0.0-1.0-0.142
<b>Knowing lots of statistics about something is usually important for understanding it.,Highly disagree,144/150,Somewhat agree,3,1698241803736,1698241806572,\Somewhat agree\,\Somewhat agree\,\3\,1698241806231,1698241806231,2495,2495,2836,buq,qns-item-noham,144,516680,0.0-1.0-0.143
<b>Other people trick each other a lot.,Highly disagree,145/150,Somewhat disagree,2,1698241806572,1698241809529,\Somewhat disagree\,\Somewhat disagree\,\2\,1698241809148,1698241809148,2576,2576,2957,buq,qns-item-noham,145,519637,0.0-1.0-0.144
<b>I would need to learn a lot about a person for my opinion of them to be swayed.,Highly disagree,146/150,Highly agree,4,1698241809530,1698241812478,\Highly agree\,\Highly agree\,\4\,1698241812107,1698241812107,2577,2577,2948,buq,qns-item-noham,146,522586,0.0-1.0-0.145
<b>People can?t usually trick me when it comes to topics I care about.,Highly disagree,147/150,Somewhat agree,3,1698241812479,1698241815475,\Somewhat agree\,\Somewhat agree\,\3\,1698241814680,1698241814680,2201,2201,2996,buq,qns-item-noham,147,525583,0.0-1.0-0.146
<b>I do not often change my views on food.,Highly disagree,148/150,Highly disagree,1,1698241815476,1698241817832,\Highly disagree\,\Highly disagree\,\1\,1698241817400,1698241817400,1924,1924,2356,buq,qns-item-noham,148,527940,0.0-1.0-0.147
<b>Specific policies are often very important to me.,Highly disagree,149/150,Somewhat agree,3,1698241817833,1698241820008,\Somewhat agree\,\Somewhat agree\,\3\,1698241819648,1698241819648,1815,1815,2175,buq,qns-item-noham,149,530116,0.0-1.0-0.148
<b>Most people are woefully under-informed.,Highly disagree,150/150,Somewhat agree,3,1698241820009,1698241822777,\Somewhat agree\,\Somewhat agree\,\3\,1698241822426,1698241822426,2417,2417,2768,buq,qns-item-noham,150,532885,0.0-1.0-0.149
