Question,qns_options,quest_num,answer,answer_num,question_load_timestamp,next_btn_timestamp,text_selected,final_text_selected,option_num_selected,preview_timestamps,final_text_selected_time_stamp,rt_first_option_click,rt_final_option_click,rt_submit_click,questionnaire,trial_type,trial_index,time_elapsed,internal_node_id
<b>Considering other people?s perspectives can help us figure out what?s true or false.,Highly disagree,1/150,Highly agree,4,1698241705594,1698241712289,\Somewhat agree\,\Highly agree\,\3\,1698241709692,1698241710673,4098,5079,6695,buq,qns-item-noham,1,101926,0.0-1.0-0.0
<b>Knowing what?s true and knowing what to do about it are usually basically the same.,Highly disagree,2/150,Somewhat disagree,2,1698241712292,1698241716007,\Somewhat agree\,\Somewhat disagree\,\3\,1698241713479,1698241714881,1187,2589,3715,buq,qns-item-noham,2,105644,0.0-1.0-0.1
<b>Most people just believe whatever is convenient for them.,Highly disagree,3/150,Somewhat agree,3,1698241716008,1698241718156,\Somewhat agree\,\Somewhat agree\,\3\,1698241717408,1698241717408,1400,1400,2148,buq,qns-item-noham,3,107793,0.0-1.0-0.2
<b>Even people who are wrong about most things can be right sometimes.,Highly disagree,4/150,Somewhat agree,3,1698241718157,1698241721474,\Somewhat agree\,\Somewhat agree\,\3\,1698241720828,1698241720828,2671,2671,3317,buq,qns-item-noham,4,111111,0.0-1.0-0.3
"<b>If the political party I support does something that upsets me, then the party may have changed, and I need to re-evaluate my support.",Highly disagree,5/150,Somewhat agree,3,1698241721475,1698241725296,\Somewhat agree\,\Somewhat agree\,\3\,1698241724930,1698241724930,3455,3455,3821,buq,qns-item-noham,5,114933,0.0-1.0-0.4
"<b>When people disagree, one side is usually completely right.",Highly disagree,6/150,Somewhat disagree,2,1698241725297,1698241729565,\Highly disagree\,\Somewhat disagree\,\1\,1698241727469,1698241728724,2172,3427,4268,buq,qns-item-noham,6,119202,0.0-1.0-0.5
<b>People have lots of false beliefs.,Highly disagree,7/150,Somewhat disagree,2,1698241729566,1698241732939,\Somewhat agree\,\Somewhat disagree\,\3\,1698241731606,1698241732316,2040,2750,3373,buq,qns-item-noham,7,122576,0.0-1.0-0.6
<b>Having some big beliefs helps me sort out minor ones.,Highly disagree,8/150,Somewhat agree,3,1698241732940,1698241734783,\Somewhat agree\,\Somewhat agree\,\3\,1698241734328,1698241734328,1388,1388,1843,buq,qns-item-noham,8,124420,0.0-1.0-0.7
<b>Political questions are usually pretty complicated.,Highly disagree,9/150,Highly agree,4,1698241734784,1698241736802,\Highly agree\,\Highly agree\,\4\,1698241736421,1698241736421,1637,1637,2018,buq,qns-item-noham,9,126439,0.0-1.0-0.8
<b>Figuring out what?s important in life requires learning a lot of facts.,Highly disagree,10/150,Somewhat agree,3,1698241736803,1698241738636,\Somewhat agree\,\Somewhat agree\,\3\,1698241737990,1698241737990,1187,1187,1833,buq,qns-item-noham,10,128273,0.0-1.0-0.9
<b>It is difficult for me to remember the last time I was surprised by politics.,Highly disagree,11/150,Somewhat disagree,2,1698241738637,1698241741080,\Somewhat disagree\,\Somewhat disagree\,\2\,1698241740730,1698241740730,2093,2093,2443,buq,qns-item-noham,11,130717,0.0-1.0-0.10
<b>People?s false beliefs are understandable.,Highly disagree,12/150,Somewhat agree,3,1698241741080,1698241743347,\Somewhat agree\,\Somewhat agree\,\3\,1698241742710,1698241742710,1630,1630,2267,buq,qns-item-noham,12,132984,0.0-1.0-0.11
<b>I spend a lot of time trying to be informed about politics.,Highly disagree,13/150,Somewhat agree,3,1698241743348,1698241745026,\Somewhat agree\,\Somewhat agree\,\3\,1698241744605,1698241744605,1257,1257,1678,buq,qns-item-noham,13,134663,0.0-1.0-0.12
<b>I think a lot about whether my beliefs are right.,Highly disagree,14/150,Highly agree,4,1698241745027,1698241747373,\Somewhat agree\,\Highly agree\,\3\,1698241746042,1698241746987,1015,1960,2346,buq,qns-item-noham,14,137010,0.0-1.0-0.13
<b>Statistics can be pretty misleading sometimes.,Highly disagree,15/150,Somewhat agree,3,1698241747374,1698241749198,\Somewhat agree\,\Somewhat agree\,\3\,1698241748791,1698241748791,1417,1417,1824,buq,qns-item-noham,15,138835,0.0-1.0-0.14
<b>Figuring out what?s true and what?s false takes a lot of time and effort.,Highly disagree,16/150,Highly agree,4,1698241749199,1698241750917,\Highly agree\,\Highly agree\,\4\,1698241750478,1698241750478,1279,1279,1718,buq,qns-item-noham,16,140554,0.0-1.0-0.15
"<b>If a friend does something bad to me, it was likely an error on their part.",Highly disagree,17/150,Somewhat disagree,2,1698241750918,1698241754369,\Somewhat agree\,\Somewhat disagree\,\3\,1698241752376,1698241753673,1458,2755,3451,buq,qns-item-noham,17,144006,0.0-1.0-0.16
<b>I have lots of beliefs that I?m only sort of sure about.,Highly disagree,18/150,Somewhat agree,3,1698241754370,1698241755455,\Somewhat agree\,\Somewhat agree\,\3\,1698241755072,1698241755072,702,702,1085,buq,qns-item-noham,18,145092,0.0-1.0-0.17
"<b>If I go to my favorite restaurant and the food is surprisingly bad, it reminds me there are many disappointments in life.",Highly disagree,19/150,Somewhat agree,3,1698241755456,1698241757410,\Somewhat agree\,\Somewhat agree\,\3\,1698241756992,1698241756992,1536,1536,1954,buq,qns-item-noham,19,147047,0.0-1.0-0.18
<b>Sometimes my beliefs are inconvenient for me.,Highly disagree,20/150,Somewhat agree,3,1698241757411,1698241759510,\Somewhat agree\,\Somewhat agree\,\3\,1698241759157,1698241759157,1746,1746,2099,buq,qns-item-noham,20,149147,0.0-1.0-0.19
<b>Paying attention to multiple news sources is important.,Highly disagree,21/150,Highly agree,4,1698241759511,1698241761497,\Somewhat agree\,\Highly agree\,\3\,1698241760182,1698241761190,671,1679,1986,buq,qns-item-noham,21,151134,0.0-1.0-0.20
"<b>If you are paying attention, please select ?Somewhat agree?",Highly disagree,22/150,Somewhat agree,3,1698241761498,1698241764246,\Somewhat agree\,\Somewhat agree\,\3\,1698241763393,1698241763393,1895,1895,2748,buq,qns-item-noham,22,153883,0.0-1.0-0.21
"<b>When I talk to others, I often worry I?ll convince them of something I didn?t mean to.",Highly disagree,23/150,Somewhat agree,3,1698241764247,1698241768787,\Somewhat agree\,\Somewhat agree\,\3\,1698241765887,1698241765887,1640,1640,4540,buq,qns-item-noham,23,158424,0.0-1.0-0.22
<b>I would need to learn something utterly shocking about my party in order to change my political views.,Highly disagree,24/150,Highly agree,4,1698241768788,1698241771707,\Somewhat agree\,\Highly agree\,\3\,1698241769242,1698241771250,454,2462,2919,buq,qns-item-noham,24,161345,0.0-1.0-0.23
"<b>When I have new experiences, I tend to think of them as unique.",Highly disagree,25/150,Highly agree,4,1698241771708,1698241774467,\Somewhat agree\,\Highly agree\,\3\,1698241772283,1698241774035,575,2327,2759,buq,qns-item-noham,25,164104,0.0-1.0-0.24
<b>Reading lots of things is important for understanding the world.,Highly disagree,26/150,Highly agree,4,1698241774468,1698241776427,\Somewhat agree\,\Highly agree\,\3\,1698241775091,1698241775579,623,1111,1959,buq,qns-item-noham,26,166064,0.0-1.0-0.25
<b>The world is complicated.,Highly disagree,27/150,Highly agree,4,1698241776428,1698241777591,\Highly agree\,\Highly agree\,\4\,1698241777195,1698241777195,767,767,1163,buq,qns-item-noham,27,167228,0.0-1.0-0.26
<b>I change my mind about specific policies pretty frequently.,Highly disagree,28/150,Somewhat disagree,2,1698241777592,1698241780127,\Somewhat agree\,\Somewhat disagree\,\3\,1698241778767,1698241779814,1175,2222,2535,buq,qns-item-noham,28,169765,0.0-1.0-0.27
"<b>If a politician in my political party supports something I disagree with, I give them the benefit of the doubt, as such issues often involve hidden complexities that aren?t obvious.   ",Highly disagree,29/150,Somewhat disagree,2,1698241780128,1698241782045,\Somewhat agree\,\Somewhat disagree\,\3\,1698241780825,1698241781648,697,1520,1917,buq,qns-item-noham,29,171682,0.0-1.0-0.28
<b>People?s bad politics are usually motivated by hatefulness.,Highly disagree,30/150,Somewhat agree,3,1698241782047,1698241785674,\Somewhat agree\,\Somewhat agree\,\3\,1698241782948,1698241785293,901,3246,3627,buq,qns-item-noham,30,175311,0.0-1.0-0.29
"<b>Most new experiences are just like old ones, but a little bit different.",Highly disagree,31/150,Somewhat agree,3,1698241785675,1698241788115,\Somewhat agree\,\Somewhat agree\,\3\,1698241786504,1698241787739,829,2064,2440,buq,qns-item-noham,31,177752,0.0-1.0-0.30
<b>I think a lot about how to reconcile my beliefs with one another.,Highly disagree,32/150,Somewhat agree,3,1698241788116,1698241789168,\Somewhat agree\,\Somewhat agree\,\3\,1698241788558,1698241788558,442,442,1052,buq,qns-item-noham,32,178805,0.0-1.0-0.31
<b>Personal experience rarely leads people astray.,Highly disagree,33/150,Highly agree,4,1698241789169,1698241791669,\Highly agree\,\Highly agree\,\4\,1698241791031,1698241791031,1862,1862,2500,buq,qns-item-noham,33,181306,0.0-1.0-0.32
<b>I might have false beliefs about important topics.,Highly disagree,34/150,Somewhat agree,3,1698241791670,1698241792501,\Somewhat agree\,\Somewhat agree\,\3\,1698241792136,1698241792136,466,466,831,buq,qns-item-noham,34,182138,0.0-1.0-0.33
"<b>If a good friend of mine does something unexpected that upsets me, I feel like I don?t know them anymore.",Highly disagree,35/150,Somewhat disagree,2,1698241792502,1698241794539,\Somewhat agree\,\Somewhat disagree\,\3\,1698241792992,1698241794097,490,1595,2037,buq,qns-item-noham,35,184176,0.0-1.0-0.34
<b>Other people?s beliefs are often incoherent.,Highly disagree,36/150,Somewhat agree,3,1698241794540,1698241795414,\Somewhat agree\,\Somewhat agree\,\3\,1698241794918,1698241794918,378,378,874,buq,qns-item-noham,36,185051,0.0-1.0-0.35
<b>It?s important to have friends who think about things differently than I do.,Highly disagree,37/150,Somewhat agree,3,1698241795415,1698241796312,\Somewhat agree\,\Somewhat agree\,\3\,1698241795903,1698241795903,488,488,897,buq,qns-item-noham,37,185949,0.0-1.0-0.36
"<b>Every now and then, a new experience will unsettle beliefs I?ve had for a while.",Highly disagree,38/150,Somewhat disagree,2,1698241796313,1698241797646,\Somewhat disagree\,\Somewhat disagree\,\2\,1698241796882,1698241796882,569,569,1333,buq,qns-item-noham,38,187283,0.0-1.0-0.37
<b>Some policies I agree with in principle are so bad I don?t support them. ,Highly disagree,39/150,Somewhat agree,3,1698241797647,1698241799257,\Somewhat agree\,\Somewhat agree\,\3\,1698241798042,1698241798042,395,395,1610,buq,qns-item-noham,39,188894,0.0-1.0-0.38
<b>I?m pretty sure I?ve accidentally spread false information.,Highly disagree,40/150,Somewhat agree,3,1698241799259,1698241800142,\Somewhat agree\,\Somewhat agree\,\3\,1698241799745,1698241799745,486,486,883,buq,qns-item-noham,40,189779,0.0-1.0-0.39
"<b>If I go to my favorite restaurant and the food is unexpectedly bad, then they have changed owners.",Highly disagree,41/150,Highly agree,4,1698241800143,1698241803950,\Somewhat disagree\,\Highly agree\,\2\,1698241800826,1698241803260,683,3117,3807,buq,qns-item-noham,41,193587,0.0-1.0-0.40
"<b>In politics, it?s important to trust your friends and family.",Highly disagree,42/150,Highly agree,4,1698241803951,1698241805486,\Highly agree\,\Highly agree\,\4\,1698241805100,1698241805100,1149,1149,1535,buq,qns-item-noham,42,195123,0.0-1.0-0.41
<b>It?s OK to have some conflicting beliefs.,Highly disagree,43/150,Somewhat agree,3,1698241805487,1698241806569,\Somewhat agree\,\Somewhat agree\,\3\,1698241805901,1698241805901,414,414,1082,buq,qns-item-noham,43,196206,0.0-1.0-0.42
<b>Sometimes the details of a matter seem to conflict with the big picture.,Highly disagree,44/150,Somewhat agree,3,1698241806571,1698241807387,\Somewhat agree\,\Somewhat agree\,\3\,1698241807050,1698241807050,479,479,816,buq,qns-item-noham,44,197024,0.0-1.0-0.43
<b>Listening to people I disagree with makes my opinions better.,Highly disagree,45/150,Somewhat agree,3,1698241807388,1698241808281,\Somewhat agree\,\Somewhat agree\,\3\,1698241807975,1698241807975,587,587,893,buq,qns-item-noham,45,197918,0.0-1.0-0.44
<b>Policies that sound bad are sometimes fine when you find out about their details.,Highly disagree,46/150,Somewhat agree,3,1698241808282,1698241809451,\Somewhat agree\,\Somewhat agree\,\3\,1698241808950,1698241808950,668,668,1169,buq,qns-item-noham,46,199088,0.0-1.0-0.45
"<b>The world is always changing, so my beliefs are sometimes out-dated.",Highly disagree,47/150,Somewhat agree,3,1698241809452,1698241811025,\Somewhat disagree\,\Somewhat agree\,\2\,1698241810062,1698241810442,610,990,1573,buq,qns-item-noham,47,200662,0.0-1.0-0.46
"<b>If I receive a bad meal at my favorite restaurant and the food is surprisingly bad, I do not think much of it, and assume the chef is just having an ?off? day.",Highly disagree,48/150,Somewhat agree,3,1698241811026,1698241814809,\Somewhat disagree\,\Somewhat agree\,\2\,1698241813773,1698241814224,2747,3198,3783,buq,qns-item-noham,48,204446,0.0-1.0-0.47
"<b>False information is unavoidable, to some extent.",Highly disagree,49/150,Somewhat agree,3,1698241814810,1698241818183,\Somewhat agree\,\Somewhat agree\,\3\,1698241816806,1698241816806,1996,1996,3373,buq,qns-item-noham,49,207820,0.0-1.0-0.48
<b>My moral compass sometimes makes it harder to determine what?s true.,Highly disagree,50/150,Somewhat agree,3,1698241818184,1698241819505,\Somewhat agree\,\Somewhat agree\,\3\,1698241818726,1698241818726,542,542,1321,buq,qns-item-noham,50,209142,0.0-1.0-0.49
"<b>When you disagree with someone, it?s important to listen to them carefully.",Highly disagree,51/150,Somewhat agree,3,1698241819506,1698241820327,\Somewhat agree\,\Somewhat agree\,\3\,1698241819961,1698241819961,455,455,821,buq,qns-item-noham,51,209964,0.0-1.0-0.50
<b>Evidence pointing in the wrong direction isn?t really evidence at all.,Highly disagree,52/150,Somewhat agree,3,1698241820328,1698241821160,\Somewhat agree\,\Somewhat agree\,\3\,1698241820757,1698241820757,429,429,832,buq,qns-item-noham,52,210797,0.0-1.0-0.51
"<b>If the political party I support messes up, it makes me think politics is rotten.",Highly disagree,53/150,Somewhat agree,3,1698241821161,1698241821930,\Somewhat agree\,\Somewhat agree\,\3\,1698241821529,1698241821529,368,368,769,buq,qns-item-noham,53,211567,0.0-1.0-0.52
<b>Lots of important topics can only really be understood by some groups of people.,Highly disagree,54/150,Somewhat agree,3,1698241821931,1698241822671,\Somewhat agree\,\Somewhat agree\,\3\,1698241822303,1698241822303,372,372,740,buq,qns-item-noham,54,212308,0.0-1.0-0.53
<b>Details almost always matter for being right about something.,Highly disagree,55/150,Somewhat agree,3,1698241822672,1698241823549,\Somewhat agree\,\Somewhat agree\,\3\,1698241823104,1698241823104,432,432,877,buq,qns-item-noham,55,213186,0.0-1.0-0.54
"<b>The most important thing in politics is winning, not convincing people.",Highly disagree,56/150,Somewhat agree,3,1698241823550,1698241824321,\Somewhat agree\,\Somewhat agree\,\3\,1698241823957,1698241823957,407,407,771,buq,qns-item-noham,56,213958,0.0-1.0-0.55
<b>Having conflicting beliefs means you haven?t thought about them enough.,Highly disagree,57/150,Somewhat agree,3,1698241824322,1698241825183,\Somewhat agree\,\Somewhat agree\,\3\,1698241824830,1698241824830,508,508,861,buq,qns-item-noham,57,214820,0.0-1.0-0.56
<b>Other people have sometimes convinced me to change my mind on important topics.,Highly disagree,58/150,Somewhat agree,3,1698241825184,1698241826166,\Somewhat agree\,\Somewhat agree\,\3\,1698241825822,1698241825822,638,638,982,buq,qns-item-noham,58,215803,0.0-1.0-0.57
<b>I do not often change my political opinions.,Highly disagree,59/150,Somewhat agree,3,1698241826167,1698241827336,\Somewhat agree\,\Somewhat agree\,\3\,1698241826785,1698241826785,618,618,1169,buq,qns-item-noham,59,216973,0.0-1.0-0.58
<b>Thinking about how different things relate to one another is critical in life.,Highly disagree,60/150,Somewhat agree,3,1698241827337,1698241828820,\Somewhat agree\,\Somewhat agree\,\3\,1698241828262,1698241828262,925,925,1483,buq,qns-item-noham,60,218457,0.0-1.0-0.59
<b>True beliefs can have unfortunate implications.,Highly disagree,61/150,Somewhat agree,3,1698241828822,1698241829792,\Somewhat agree\,\Somewhat agree\,\3\,1698241829402,1698241829402,580,580,970,buq,qns-item-noham,61,219429,0.0-1.0-0.60
<b>It?s difficult to not have at least some conflicting beliefs.,Highly disagree,62/150,Somewhat agree,3,1698241829792,1698241830657,\Somewhat agree\,\Somewhat agree\,\3\,1698241830234,1698241830234,442,442,865,buq,qns-item-noham,62,220294,0.0-1.0-0.61
"<b>When I learn new things, I think deeply about how my opinions should change.",Highly disagree,63/150,Somewhat agree,3,1698241830658,1698241831543,\Somewhat agree\,\Somewhat agree\,\3\,1698241831069,1698241831069,411,411,885,buq,qns-item-noham,63,221180,0.0-1.0-0.62
<b>I think a lot about how to interpret different sorts of evidence.,Highly disagree,64/150,Somewhat agree,3,1698241831543,1698241832436,\Somewhat agree\,\Somewhat agree\,\3\,1698241831989,1698241831989,446,446,893,buq,qns-item-noham,64,222073,0.0-1.0-0.63
<b>Politics is about thinking together and finding compromises.,Highly disagree,65/150,Somewhat agree,3,1698241832437,1698241833452,\Somewhat agree\,\Somewhat agree\,\3\,1698241832881,1698241832881,444,444,1015,buq,qns-item-noham,65,223089,0.0-1.0-0.64
<b>Wishful thinking causes a lot of problems.,Highly disagree,66/150,Somewhat agree,3,1698241833453,1698241834428,\Somewhat agree\,\Somewhat agree\,\3\,1698241833875,1698241833875,422,422,975,buq,qns-item-noham,66,224065,0.0-1.0-0.65
<b>I judge a food item only once I try it many times.,Highly disagree,67/150,Somewhat agree,3,1698241834428,1698241835413,\Somewhat agree\,\Somewhat agree\,\3\,1698241834876,1698241834876,448,448,985,buq,qns-item-noham,67,225050,0.0-1.0-0.66
"<b>When a person holds conflicting beliefs, they should really try to figure out what?s wrong.",Highly disagree,68/150,Somewhat agree,3,1698241835414,1698241836257,\Somewhat agree\,\Somewhat agree\,\3\,1698241835852,1698241835852,438,438,843,buq,qns-item-noham,68,225894,0.0-1.0-0.67
<b>Knowing what?s important in life is easy.,Highly disagree,69/150,Somewhat agree,3,1698241836258,1698241837039,\Somewhat agree\,\Somewhat agree\,\3\,1698241836646,1698241836646,388,388,781,buq,qns-item-noham,69,226676,0.0-1.0-0.68
<b>Lots of smart people disagree about basic political questions.,Highly disagree,70/150,Somewhat agree,3,1698241837040,1698241837835,\Somewhat agree\,\Somewhat agree\,\3\,1698241837446,1698241837446,406,406,795,buq,qns-item-noham,70,227472,0.0-1.0-0.69
<b>I swim across the Atlantic Ocean to get to work every day.,Highly disagree,71/150,Highly disagree,1,1698241837836,1698241842686,\Somewhat agree\,\Highly disagree\,\3\,1698241838193,1698241840054,357,2218,4850,buq,qns-item-noham,71,232323,0.0-1.0-0.70
"<b>Sometimes, you just have to ignore evidence that you know is wrong.",Highly disagree,72/150,Somewhat agree,3,1698241842686,1698241844108,\Somewhat agree\,\Somewhat agree\,\3\,1698241843579,1698241843579,893,893,1422,buq,qns-item-noham,72,233745,0.0-1.0-0.71
<b>I have had some false beliefs.,Highly disagree,73/150,Somewhat agree,3,1698241844109,1698241845168,\Somewhat agree\,\Somewhat agree\,\3\,1698241844785,1698241844785,676,676,1059,buq,qns-item-noham,73,234805,0.0-1.0-0.72
"<b>If one friend does something that upsets me, I sometimes start to distrust people in general.",Highly disagree,74/150,Somewhat agree,3,1698241845169,1698241846119,\Somewhat agree\,\Somewhat agree\,\3\,1698241845732,1698241845732,563,563,950,buq,qns-item-noham,74,235756,0.0-1.0-0.73
<b>I easily apply what I learn in one situation to another.,Highly disagree,75/150,Somewhat agree,3,1698241846119,1698241846965,\Somewhat agree\,\Somewhat agree\,\3\,1698241846596,1698241846596,477,477,846,buq,qns-item-noham,75,236602,0.0-1.0-0.74
<b>The facts about most important matters are easy to find.,Highly disagree,76/150,Somewhat agree,3,1698241846966,1698241848714,\Somewhat agree\,\Somewhat agree\,\3\,1698241847409,1698241847409,443,443,1748,buq,qns-item-noham,76,238351,0.0-1.0-0.75
<b>It?s better to know what?s true than to know what?s moral.,Highly disagree,77/150,Somewhat disagree,2,1698241848714,1698241852092,\Somewhat disagree\,\Somewhat disagree\,\2\,1698241849126,1698241851733,412,3019,3378,buq,qns-item-noham,77,241729,0.0-1.0-0.76
<b>It?s good to be skeptical of people you agree with.,Highly disagree,78/150,Highly agree,4,1698241852093,1698241854281,\Highly agree\,\Highly agree\,\4\,1698241853850,1698241853850,1757,1757,2188,buq,qns-item-noham,78,243918,0.0-1.0-0.77
<b>Sometimes reasonable beliefs are wrong.,Highly disagree,79/150,Somewhat agree,3,1698241854282,1698241855680,\Somewhat agree\,\Somewhat agree\,\3\,1698241854720,1698241854720,438,438,1398,buq,qns-item-noham,79,245317,0.0-1.0-0.78
<b>I used to think the world was less complicated than I do now.,Highly disagree,80/150,Somewhat disagree,2,1698241855680,1698241856673,\Somewhat disagree\,\Somewhat disagree\,\2\,1698241856026,1698241856026,346,346,993,buq,qns-item-noham,80,246310,0.0-1.0-0.79
<b>People are usually completely right or completely wrong.,Highly disagree,81/150,Somewhat agree,3,1698241856673,1698241857835,\Somewhat agree\,\Somewhat agree\,\3\,1698241857030,1698241857030,357,357,1162,buq,qns-item-noham,81,247473,0.0-1.0-0.80
<b>I spend a lot of time considering alternatives to my beliefs.,Highly disagree,82/150,Somewhat disagree,2,1698241857837,1698241858965,\Somewhat disagree\,\Somewhat disagree\,\2\,1698241858240,1698241858240,403,403,1128,buq,qns-item-noham,82,248602,0.0-1.0-0.81
"<b>Political enemies need to be defeated, not convinced.",Highly disagree,83/150,Somewhat disagree,2,1698241858966,1698241861939,\Highly agree\,\Somewhat disagree\,\4\,1698241859346,1698241861052,380,2086,2973,buq,qns-item-noham,83,251576,0.0-1.0-0.82
"<b>When forming an opinion about a restaurant, I am more swayed by my  latest meal there than  previous meals I?ve had there.",Highly disagree,84/150,Somewhat agree,3,1698241861940,1698241864278,\Somewhat agree\,\Somewhat agree\,\3\,1698241863816,1698241863816,1876,1876,2338,buq,qns-item-noham,84,253915,0.0-1.0-0.83
<b>I try to remain skeptical about most topics.,Highly disagree,85/150,Highly agree,4,1698241864279,1698241865868,\Highly agree\,\Highly agree\,\4\,1698241865488,1698241865488,1209,1209,1589,buq,qns-item-noham,85,255505,0.0-1.0-0.84
<b>Being wrong is usually obvious in retrospect.,Highly disagree,86/150,Somewhat agree,3,1698241865869,1698241867167,\Somewhat agree\,\Somewhat agree\,\3\,1698241866563,1698241866563,694,694,1298,buq,qns-item-noham,86,256804,0.0-1.0-0.85
<b>It can be hard to realize that my beliefs are in conflict.,Highly disagree,87/150,Highly agree,4,1698241867168,1698241868451,\Highly agree\,\Highly agree\,\4\,1698241867726,1698241867726,558,558,1283,buq,qns-item-noham,87,258088,0.0-1.0-0.86
<b>I form my political views only after meticulously gathering historical and present information about their policies.,Highly disagree,88/150,Somewhat disagree,2,1698241868452,1698241869543,\Somewhat disagree\,\Somewhat disagree\,\2\,1698241869061,1698241869061,609,609,1091,buq,qns-item-noham,88,259180,0.0-1.0-0.87
<b>Skeptical people are usually just bad-tempered.,Highly disagree,89/150,Somewhat agree,3,1698241869544,1698241870908,\Somewhat agree\,\Somewhat agree\,\3\,1698241870022,1698241870022,478,478,1364,buq,qns-item-noham,89,260545,0.0-1.0-0.88
<b>It is difficult for me to remember the last time I was surprised by politics.,Highly disagree,90/150,Somewhat disagree,2,1698241870909,1698241873162,\Somewhat disagree\,\Somewhat disagree\,\2\,1698241871395,1698241871395,486,486,2253,buq,qns-item-noham,90,262799,0.0-1.0-0.89
"<b>When I find out I?m wrong, I think a lot about my related beliefs.",Highly disagree,91/150,Somewhat agree,3,1698241873163,1698241874005,\Somewhat agree\,\Somewhat agree\,\3\,1698241873674,1698241873674,511,511,842,buq,qns-item-noham,91,263642,0.0-1.0-0.90
"<b>If the political party I support messes up, it makes me think you can?t trust anyone these days",Highly disagree,92/150,Somewhat agree,3,1698241874006,1698241876443,\Somewhat agree\,\Somewhat agree\,\3\,1698241874468,1698241874468,462,462,2437,buq,qns-item-noham,92,266080,0.0-1.0-0.91
<b>People?s brains turn off when they talk about politics.,Highly disagree,93/150,Somewhat agree,3,1698241876444,1698241878387,\Highly agree\,\Somewhat agree\,\4\,1698241876937,1698241878038,493,1594,1943,buq,qns-item-noham,93,268024,0.0-1.0-0.92
<b>People who are wrong are usually just ignoring the obvious.,Highly disagree,94/150,Highly agree,4,1698241878388,1698241880275,\Highly agree\,\Highly agree\,\4\,1698241879455,1698241879455,1067,1067,1887,buq,qns-item-noham,94,269912,0.0-1.0-0.93
"<b>The world isn?t that complicated, but it?s still hard to figure out how it works.",Highly disagree,95/150,Highly agree,4,1698241880276,1698241882904,\Somewhat agree\,\Highly agree\,\3\,1698241880803,1698241882477,527,2201,2628,buq,qns-item-noham,95,272541,0.0-1.0-0.94
"<b>When forming my views on people, I rely more on what they are like now rather than rely on my past experience with them.",Highly disagree,96/150,Somewhat agree,3,1698241882905,1698241885448,\Somewhat agree\,\Somewhat agree\,\3\,1698241883587,1698241883587,682,682,2543,buq,qns-item-noham,96,275085,0.0-1.0-0.95
"<b>When people contradict my beliefs, I usually know about their evidence already.",Highly disagree,97/150,Somewhat disagree,2,1698241885449,1698241886292,\Somewhat disagree\,\Somewhat disagree\,\2\,1698241885941,1698241885941,492,492,843,buq,qns-item-noham,97,275929,0.0-1.0-0.96
<b>Being wrong is a matter of degree.,Highly disagree,98/150,Somewhat agree,3,1698241886293,1698241887180,\Somewhat agree\,\Somewhat agree\,\3\,1698241886811,1698241886811,518,518,887,buq,qns-item-noham,98,276817,0.0-1.0-0.97
<b>Figuring out what?s true and what?s false mainly requires a strong moral compass.,Highly disagree,99/150,Somewhat agree,3,1698241887181,1698241887991,\Somewhat agree\,\Somewhat agree\,\3\,1698241887598,1698241887598,417,417,810,buq,qns-item-noham,99,277628,0.0-1.0-0.98
<b>Most of the beliefs people have are at least somewhat understandable.,Highly disagree,100/150,Highly agree,4,1698241887992,1698241888812,\Highly agree\,\Highly agree\,\4\,1698241888399,1698241888399,407,407,820,buq,qns-item-noham,100,278449,0.0-1.0-0.99
"<b>Usually I?m wrong about simple things, not complicated ones.",Highly disagree,101/150,Somewhat agree,3,1698241888813,1698241889633,\Somewhat agree\,\Somewhat agree\,\3\,1698241889227,1698241889227,414,414,820,buq,qns-item-noham,101,279270,0.0-1.0-0.100
<b>Getting all the information I want about important things is hard.,Highly disagree,102/150,Somewhat agree,3,1698241889634,1698241894096,\Somewhat agree\,\Somewhat agree\,\3\,1698241892848,1698241892848,3214,3214,4462,buq,qns-item-noham,102,283733,0.0-1.0-0.101
<b>Most false beliefs spread because people try to deceive one another.,Highly disagree,103/150,Somewhat disagree,2,1698241894097,1698241895015,\Somewhat disagree\,\Somewhat disagree\,\2\,1698241894625,1698241894625,528,528,918,buq,qns-item-noham,103,284652,0.0-1.0-0.102
<b>I can usually find something to agree with in most people?s beliefs.,Highly disagree,104/150,Somewhat agree,3,1698241895016,1698241895837,\Somewhat agree\,\Somewhat agree\,\3\,1698241895460,1698241895460,444,444,821,buq,qns-item-noham,104,285474,0.0-1.0-0.103
<b>I only form my views of people once I get to know them very well.,Highly disagree,105/150,Somewhat agree,3,1698241895838,1698241896742,\Somewhat agree\,\Somewhat agree\,\3\,1698241896333,1698241896333,495,495,904,buq,qns-item-noham,105,286379,0.0-1.0-0.104
"<b>When people tell me important things about the world, I usually believe them.",Highly disagree,106/150,Somewhat agree,3,1698241896743,1698241897679,\Somewhat agree\,\Somewhat agree\,\3\,1698241897212,1698241897212,469,469,936,buq,qns-item-noham,106,287316,0.0-1.0-0.105
"<b>If a friend does something that upsets me, it reminds me what an unpredictable place the world is.",Highly disagree,107/150,Somewhat disagree,2,1698241897680,1698241899000,\Somewhat disagree\,\Somewhat disagree\,\2\,1698241898249,1698241898249,569,569,1320,buq,qns-item-noham,107,288637,0.0-1.0-0.106
<b>Having some conflicting beliefs is inevitable.,Highly disagree,108/150,Somewhat agree,3,1698241899001,1698241900314,\Somewhat agree\,\Somewhat agree\,\3\,1698241899444,1698241899444,443,443,1313,buq,qns-item-noham,108,289951,0.0-1.0-0.107
<b>People are wrong because they haven?t thought much about things.,Highly disagree,109/150,Somewhat agree,3,1698241900315,1698241901432,\Somewhat agree\,\Somewhat agree\,\3\,1698241900812,1698241900812,497,497,1117,buq,qns-item-noham,109,291069,0.0-1.0-0.108
<b>People tend to believe whatever is good for their friends.,Highly disagree,110/150,Somewhat disagree,2,1698241901433,1698241902910,\Somewhat disagree\,\Somewhat disagree\,\2\,1698241901858,1698241901858,425,425,1477,buq,qns-item-noham,110,292547,0.0-1.0-0.109
"<b>When I talk about important topics, I try to make sure people know I?m not always right.",Highly disagree,111/150,Somewhat agree,3,1698241902911,1698241903677,\Somewhat agree\,\Somewhat agree\,\3\,1698241903299,1698241903299,388,388,766,buq,qns-item-noham,111,293314,0.0-1.0-0.110
<b>I used to be more certain my beliefs were true.,Highly disagree,112/150,Somewhat agree,3,1698241903678,1698241904537,\Somewhat agree\,\Somewhat agree\,\3\,1698241904161,1698241904161,483,483,859,buq,qns-item-noham,112,294174,0.0-1.0-0.111
<b>It?s often pretty easy to figure out whether something is true based on who said it.,Highly disagree,113/150,Highly agree,4,1698241904538,1698241905368,\Highly agree\,\Highly agree\,\4\,1698241904952,1698241904952,414,414,830,buq,qns-item-noham,113,295005,0.0-1.0-0.112
<b>Having bad food in my favorite restaurant will make me think the restaurant is no longer good.,Highly disagree,114/150,Somewhat agree,3,1698241905369,1698241907349,\Somewhat agree\,\Somewhat agree\,\3\,1698241905788,1698241905788,419,419,1980,buq,qns-item-noham,114,296986,0.0-1.0-0.113
<b>I transform into a hummingbird every day.,Highly disagree,115/150,Highly disagree,1,1698241907350,1698241909833,\Highly disagree\,\Highly disagree\,\1\,1698241908573,1698241908573,1223,1223,2483,buq,qns-item-noham,115,299470,0.0-1.0-0.114
"<b>Unfortunately, when people are wrong, it?s usually because they?re bad.",Highly disagree,116/150,Somewhat agree,3,1698241909834,1698241913347,\Somewhat agree\,\Somewhat agree\,\3\,1698241910797,1698241910797,963,963,3513,buq,qns-item-noham,116,302984,0.0-1.0-0.115
<b>I think a lot about arguments against my views.,Highly disagree,117/150,Somewhat disagree,2,1698241913349,1698241914132,\Somewhat disagree\,\Somewhat disagree\,\2\,1698241913803,1698241913803,454,454,783,buq,qns-item-noham,117,303769,0.0-1.0-0.116
<b>Details tend to matter a lot for knowing whether a policy is good.,Highly disagree,118/150,Somewhat agree,3,1698241914133,1698241914898,\Somewhat agree\,\Somewhat agree\,\3\,1698241914501,1698241914501,368,368,765,buq,qns-item-noham,118,304535,0.0-1.0-0.117
<b>Personal experience is usually more important than facts and figures.,Highly disagree,119/150,Somewhat agree,3,1698241914899,1698241915708,\Somewhat agree\,\Somewhat agree\,\3\,1698241915316,1698241915316,417,417,809,buq,qns-item-noham,119,305345,0.0-1.0-0.118
<b>I?ve been tricked before about important matters.,Highly disagree,120/150,Highly agree,4,1698241915709,1698241916617,\Highly agree\,\Highly agree\,\4\,1698241916179,1698241916179,470,470,908,buq,qns-item-noham,120,306254,0.0-1.0-0.119
<b>I would need to be totally wowed if I were to change my opinion of a restaurant I don?t like.,Highly disagree,121/150,Somewhat agree,3,1698241916618,1698241917477,\Somewhat agree\,\Somewhat agree\,\3\,1698241917039,1698241917039,421,421,859,buq,qns-item-noham,121,307114,0.0-1.0-0.120
<b>I care a lot about politics.,Highly disagree,122/150,Somewhat agree,3,1698241917478,1698241919093,\Somewhat agree\,\Somewhat agree\,\3\,1698241918106,1698241918106,628,628,1615,buq,qns-item-noham,122,308730,0.0-1.0-0.121
<b>People with conflicting beliefs usually have some facts they disagree on.,Highly disagree,123/150,Somewhat disagree,2,1698241919094,1698241920991,\Somewhat disagree\,\Somewhat disagree\,\2\,1698241919677,1698241919677,583,583,1897,buq,qns-item-noham,123,310628,0.0-1.0-0.122
<b>There are some topics I?ve been really wrong about.,Highly disagree,124/150,Somewhat agree,3,1698241920992,1698241921810,\Somewhat agree\,\Somewhat agree\,\3\,1698241921424,1698241921424,432,432,818,buq,qns-item-noham,124,311447,0.0-1.0-0.123
<b>Most beliefs can be supported with at least some evidence.,Highly disagree,125/150,Somewhat agree,3,1698241921811,1698241922705,\Somewhat agree\,\Somewhat agree\,\3\,1698241922289,1698241922289,478,478,894,buq,qns-item-noham,125,312342,0.0-1.0-0.124
<b>Other people make life out to be more complicated than it really is.,Highly disagree,126/150,Somewhat agree,3,1698241922706,1698241923529,\Somewhat agree\,\Somewhat agree\,\3\,1698241923187,1698241923187,481,481,823,buq,qns-item-noham,126,313166,0.0-1.0-0.125
"<b>My political views are being shaped continuously as I gather more information, rather than relying on what I?ve known to be true of my party in the past. ",Highly disagree,127/150,Somewhat agree,3,1698241923530,1698241924457,\Somewhat agree\,\Somewhat agree\,\3\,1698241924053,1698241924053,523,523,927,buq,qns-item-noham,127,314094,0.0-1.0-0.126
<b>It?s pretty unusual for true things to seem false.,Highly disagree,128/150,Somewhat agree,3,1698241924458,1698241925320,\Somewhat agree\,\Somewhat agree\,\3\,1698241924898,1698241924898,440,440,862,buq,qns-item-noham,128,314957,0.0-1.0-0.127
"<b>Policy details don?t matter much, just the big picture.",Highly disagree,129/150,Highly agree,4,1698241925321,1698241926198,\Highly agree\,\Highly agree\,\4\,1698241925760,1698241925760,439,439,877,buq,qns-item-noham,129,315835,0.0-1.0-0.128
<b>I know my friends so well they can hardly ever surprise me.,Highly disagree,130/150,Somewhat agree,3,1698241926199,1698241927052,\Somewhat agree\,\Somewhat agree\,\3\,1698241926604,1698241926604,405,405,853,buq,qns-item-noham,130,316689,0.0-1.0-0.129
"<b>When I talk to people, I often think about why they have the beliefs they do.",Highly disagree,131/150,Somewhat agree,3,1698241927053,1698241927931,\Somewhat agree\,\Somewhat agree\,\3\,1698241927478,1698241927478,425,425,878,buq,qns-item-noham,131,317568,0.0-1.0-0.130
<b>I do not often change my views on people.,Highly disagree,132/150,Somewhat disagree,2,1698241927932,1698241928898,\Somewhat disagree\,\Somewhat disagree\,\2\,1698241928370,1698241928370,438,438,966,buq,qns-item-noham,132,318535,0.0-1.0-0.131
<b>I often wish I had more time to spend figuring out what?s true and what?s false in life.,Highly disagree,133/150,Somewhat agree,3,1698241928899,1698241929751,\Somewhat agree\,\Somewhat agree\,\3\,1698241929337,1698241929337,438,438,852,buq,qns-item-noham,133,319388,0.0-1.0-0.132
<b>I?m more certain about my beliefs than I used to be.,Highly disagree,134/150,Somewhat agree,3,1698241929752,1698241930570,\Somewhat agree\,\Somewhat agree\,\3\,1698241930187,1698241930187,435,435,818,buq,qns-item-noham,134,320207,0.0-1.0-0.133
"<b>Whenever I find out new information, I update my views on politics accordingly.",Highly disagree,135/150,Somewhat agree,3,1698241930571,1698241931432,\Somewhat agree\,\Somewhat agree\,\3\,1698241931037,1698241931037,466,466,861,buq,qns-item-noham,135,321069,0.0-1.0-0.134
<b>People often tell falsehoods unintentionally.,Highly disagree,136/150,Somewhat agree,3,1698241931433,1698241932334,\Somewhat agree\,\Somewhat agree\,\3\,1698241931873,1698241931873,440,440,901,buq,qns-item-noham,136,321971,0.0-1.0-0.135
<b>Most people don?t know much about most things.,Highly disagree,137/150,Somewhat disagree,2,1698241932335,1698241933215,\Somewhat disagree\,\Somewhat disagree\,\2\,1698241932814,1698241932814,479,479,880,buq,qns-item-noham,137,322852,0.0-1.0-0.136
"<b>If I find out something new about someone, I easily change my views about them.",Highly disagree,138/150,Somewhat agree,3,1698241933216,1698241934012,\Somewhat agree\,\Somewhat agree\,\3\,1698241933599,1698241933599,383,383,796,buq,qns-item-noham,138,323649,0.0-1.0-0.137
<b>Having true beliefs is difficult.,Highly disagree,139/150,Somewhat agree,3,1698241934013,1698241934841,\Somewhat agree\,\Somewhat agree\,\3\,1698241934445,1698241934445,432,432,828,buq,qns-item-noham,139,324478,0.0-1.0-0.138
<b>I don?t try new foods since I know I won?t like them.,Highly disagree,140/150,Somewhat disagree,2,1698241934842,1698241936930,\Somewhat agree\,\Somewhat disagree\,\3\,1698241935405,1698241936622,563,1780,2088,buq,qns-item-noham,140,326567,0.0-1.0-0.139
<b>It?s easy to figure out what?s true or false based on who?s saying it.,Highly disagree,141/150,Somewhat agree,3,1698241936931,1698241938170,\Somewhat agree\,\Somewhat agree\,\3\,1698241937795,1698241937795,864,864,1239,buq,qns-item-noham,141,327807,0.0-1.0-0.140
<b>False things have seemed true to me many times.,Highly disagree,142/150,Somewhat disagree,2,1698241938171,1698241939699,\Somewhat disagree\,\Somewhat disagree\,\2\,1698241939076,1698241939076,905,905,1528,buq,qns-item-noham,142,329336,0.0-1.0-0.141
<b>It?s pretty easy to sort out what?s true and what?s false in life.,Highly disagree,143/150,Somewhat agree,3,1698241939700,1698241940829,\Somewhat agree\,\Somewhat agree\,\3\,1698241940160,1698241940160,460,460,1129,buq,qns-item-noham,143,330466,0.0-1.0-0.142
<b>Knowing lots of statistics about something is usually important for understanding it.,Highly disagree,144/150,Somewhat agree,3,1698241940830,1698241941990,\Somewhat agree\,\Somewhat agree\,\3\,1698241941565,1698241941565,735,735,1160,buq,qns-item-noham,144,331627,0.0-1.0-0.143
<b>Other people trick each other a lot.,Highly disagree,145/150,Highly agree,4,1698241941991,1698241943449,\Highly agree\,\Highly agree\,\4\,1698241943096,1698241943096,1105,1105,1458,buq,qns-item-noham,145,333086,0.0-1.0-0.144
<b>I would need to learn a lot about a person for my opinion of them to be swayed.,Highly disagree,146/150,Somewhat agree,3,1698241943450,1698241944565,\Somewhat agree\,\Somewhat agree\,\3\,1698241943957,1698241943957,507,507,1115,buq,qns-item-noham,146,334202,0.0-1.0-0.145
<b>People can?t usually trick me when it comes to topics I care about.,Highly disagree,147/150,Somewhat disagree,2,1698241944566,1698241945360,\Somewhat disagree\,\Somewhat disagree\,\2\,1698241945045,1698241945045,479,479,794,buq,qns-item-noham,147,334997,0.0-1.0-0.146
<b>I do not often change my views on food.,Highly disagree,148/150,Somewhat disagree,2,1698241945361,1698241947553,\Somewhat disagree\,\Somewhat disagree\,\2\,1698241947190,1698241947190,1829,1829,2192,buq,qns-item-noham,148,337190,0.0-1.0-0.147
<b>Specific policies are often very important to me.,Highly disagree,149/150,Somewhat agree,3,1698241947554,1698241950630,\Somewhat agree\,\Somewhat agree\,\3\,1698241949641,1698241949641,2087,2087,3076,buq,qns-item-noham,149,340267,0.0-1.0-0.148
<b>Most people are woefully under-informed.,Highly disagree,150/150,Somewhat agree,3,1698241950631,1698248465122,\Somewhat agree\,\Somewhat agree\,\3\,1698248464719,1698248464719,6514088,6514088,6514491,buq,qns-item-noham,150,6854759,0.0-1.0-0.149
