Question,qns_options,quest_num,answer,answer_num,question_load_timestamp,next_btn_timestamp,text_selected,final_text_selected,option_num_selected,preview_timestamps,final_text_selected_time_stamp,rt_first_option_click,rt_final_option_click,rt_submit_click,questionnaire,trial_type,trial_index,time_elapsed,internal_node_id
<b>Considering other people?s perspectives can help us figure out what?s true or false.,Highly disagree,1/150,Somewhat agree,3,1698241430487,1698241444940,\Somewhat agree\,\Somewhat agree\,\3\,1698241443832,1698241443832,13345,13345,14453,buq,qns-item-noham,1,22008,0.0-1.0-0.0
<b>Knowing what?s true and knowing what to do about it are usually basically the same.,Highly disagree,2/150,Somewhat disagree,2,1698241444947,1698241454086,\Somewhat disagree\,\Somewhat disagree\,\2\,1698241451115,1698241451115,6168,6168,9139,buq,qns-item-noham,2,31154,0.0-1.0-0.1
<b>Most people just believe whatever is convenient for them.,Highly disagree,3/150,Somewhat agree,3,1698241454093,1698241460764,\Somewhat agree\,\Somewhat agree\,\3\,1698241459885,1698241459885,5792,5792,6671,buq,qns-item-noham,3,37832,0.0-1.0-0.2
<b>Even people who are wrong about most things can be right sometimes.,Highly disagree,4/150,Highly agree,4,1698241460773,1698241465674,\Highly agree\,\Highly agree\,\4\,1698241464661,1698241464661,3888,3888,4901,buq,qns-item-noham,4,42741,0.0-1.0-0.3
"<b>If the political party I support does something that upsets me, then the party may have changed, and I need to re-evaluate my support.",Highly disagree,5/150,Somewhat agree,3,1698241465681,1698241476899,\Somewhat agree\,\Somewhat agree\,\3\,1698241476213,1698241476213,10532,10532,11218,buq,qns-item-noham,5,53967,0.0-1.0-0.4
"<b>When people disagree, one side is usually completely right.",Highly disagree,6/150,Somewhat disagree,2,1698241476918,1698241484981,\Somewhat disagree\,\Somewhat disagree\,\2\,1698241484020,1698241484020,7102,7102,8063,buq,qns-item-noham,6,62048,0.0-1.0-0.5
<b>People have lots of false beliefs.,Highly disagree,7/150,Highly agree,4,1698241484991,1698241488386,\Highly agree\,\Highly agree\,\4\,1698241487523,1698241487523,2532,2532,3395,buq,qns-item-noham,7,65453,0.0-1.0-0.6
<b>Having some big beliefs helps me sort out minor ones.,Highly disagree,8/150,Somewhat agree,3,1698241488393,1698241494813,\Somewhat agree\,\Somewhat agree\,\3\,1698241494019,1698241494019,5626,5626,6420,buq,qns-item-noham,8,71881,0.0-1.0-0.7
<b>Political questions are usually pretty complicated.,Highly disagree,9/150,Highly disagree,1,1698241494822,1698241501009,\Highly disagree\,\Highly disagree\,\1\,1698241500185,1698241500185,5363,5363,6187,buq,qns-item-noham,9,78077,0.0-1.0-0.8
<b>Figuring out what?s important in life requires learning a lot of facts.,Highly disagree,10/150,Highly disagree,1,1698241501017,1698241506693,\Highly disagree\,\Highly disagree\,\1\,1698241505937,1698241505937,4920,4920,5676,buq,qns-item-noham,10,83761,0.0-1.0-0.9
<b>It is difficult for me to remember the last time I was surprised by politics.,Highly disagree,11/150,Somewhat disagree,2,1698241506702,1698241511356,\Somewhat disagree\,\Somewhat disagree\,\2\,1698241510668,1698241510668,3966,3966,4654,buq,qns-item-noham,11,88424,0.0-1.0-0.10
<b>People?s false beliefs are understandable.,Highly disagree,12/150,Somewhat agree,3,1698241511363,1698241518655,\Somewhat agree\,\Somewhat agree\,\3\,1698241517996,1698241517996,6633,6633,7292,buq,qns-item-noham,12,95722,0.0-1.0-0.11
<b>I spend a lot of time trying to be informed about politics.,Highly disagree,13/150,Somewhat disagree,2,1698241518660,1698241523312,\Somewhat disagree\,\Somewhat disagree\,\2\,1698241522652,1698241522652,3992,3992,4652,buq,qns-item-noham,13,100379,0.0-1.0-0.12
<b>I think a lot about whether my beliefs are right.,Highly disagree,14/150,Somewhat disagree,2,1698241523318,1698241531274,\Somewhat disagree\,\Somewhat disagree\,\2\,1698241529452,1698241529452,6134,6134,7956,buq,qns-item-noham,14,108341,0.0-1.0-0.13
<b>Statistics can be pretty misleading sometimes.,Highly disagree,15/150,Highly agree,4,1698241531280,1698241535219,\Highly agree\,\Highly agree\,\4\,1698241534554,1698241534554,3274,3274,3939,buq,qns-item-noham,15,112286,0.0-1.0-0.14
<b>Figuring out what?s true and what?s false takes a lot of time and effort.,Highly disagree,16/150,Somewhat disagree,2,1698241535224,1698241548054,\Somewhat disagree\,\Somewhat disagree\,\2\,1698241545501,1698241545501,10277,10277,12830,buq,qns-item-noham,16,125122,0.0-1.0-0.15
"<b>If a friend does something bad to me, it was likely an error on their part.",Highly disagree,17/150,Somewhat disagree,2,1698241548071,1698241557373,\Somewhat disagree\,\Somewhat disagree\,\2\,1698241556628,1698241556628,8557,8557,9302,buq,qns-item-noham,17,134441,0.0-1.0-0.16
<b>I have lots of beliefs that I?m only sort of sure about.,Highly disagree,18/150,Somewhat disagree,2,1698241557380,1698241565282,\Highly disagree\,\Somewhat disagree\,\1\,1698241561882,1698241564605,4502,7225,7902,buq,qns-item-noham,18,142349,0.0-1.0-0.17
"<b>If I go to my favorite restaurant and the food is surprisingly bad, it reminds me there are many disappointments in life.",Highly disagree,19/150,Highly disagree,1,1698241565288,1698241573918,\Highly disagree\,\Highly disagree\,\1\,1698241573263,1698241573263,7975,7975,8630,buq,qns-item-noham,19,150985,0.0-1.0-0.18
<b>Sometimes my beliefs are inconvenient for me.,Highly disagree,20/150,Somewhat disagree,2,1698241573925,1698241583262,\Somewhat disagree\,\Somewhat disagree\,\2\,1698241582672,1698241582672,8747,8747,9337,buq,qns-item-noham,20,160330,0.0-1.0-0.19
<b>Paying attention to multiple news sources is important.,Highly disagree,21/150,Highly agree,4,1698241583267,1698241588394,\Highly agree\,\Highly agree\,\4\,1698241587360,1698241587360,4093,4093,5127,buq,qns-item-noham,21,165461,0.0-1.0-0.20
"<b>If you are paying attention, please select ?Somewhat agree?",Highly disagree,22/150,Somewhat agree,3,1698241588402,1698241598130,\Somewhat agree\,\Somewhat agree\,\3\,1698241594558,1698241594558,6156,6156,9728,buq,qns-item-noham,22,175198,0.0-1.0-0.21
"<b>When I talk to others, I often worry I?ll convince them of something I didn?t mean to.",Highly disagree,23/150,Highly disagree,1,1698241598145,1698241602510,\Highly disagree\,\Highly disagree\,\1\,1698241601700,1698241601700,3555,3555,4365,buq,qns-item-noham,23,179579,0.0-1.0-0.22
<b>I would need to learn something utterly shocking about my party in order to change my political views.,Highly disagree,24/150,Somewhat disagree,2,1698241602533,1698241609365,\Somewhat disagree\,\Somewhat disagree\,\2\,1698241608710,1698241608710,6177,6177,6832,buq,qns-item-noham,24,186433,0.0-1.0-0.23
"<b>When I have new experiences, I tend to think of them as unique.",Highly disagree,25/150,Somewhat agree,3,1698241609370,1698241614226,\Somewhat agree\,\Somewhat agree\,\3\,1698241613261,1698241613261,3891,3891,4856,buq,qns-item-noham,25,191294,0.0-1.0-0.24
<b>Reading lots of things is important for understanding the world.,Highly disagree,26/150,Somewhat disagree,2,1698241614231,1698241619721,\Somewhat disagree\,\Somewhat disagree\,\2\,1698241619003,1698241619003,4772,4772,5490,buq,qns-item-noham,26,196789,0.0-1.0-0.25
<b>The world is complicated.,Highly disagree,27/150,Highly agree,4,1698241619731,1698241622685,\Highly agree\,\Highly agree\,\4\,1698241621351,1698241621351,1620,1620,2954,buq,qns-item-noham,27,199752,0.0-1.0-0.26
<b>I change my mind about specific policies pretty frequently.,Highly disagree,28/150,Highly disagree,1,1698241622691,1698241628401,\Highly disagree\,\Highly disagree\,\1\,1698241627509,1698241627509,4818,4818,5710,buq,qns-item-noham,28,205468,0.0-1.0-0.27
"<b>If a politician in my political party supports something I disagree with, I give them the benefit of the doubt, as such issues often involve hidden complexities that aren?t obvious.   ",Highly disagree,29/150,Somewhat agree,3,1698241628407,1698241642324,\Somewhat disagree\,\Somewhat agree\,\2\,1698241638673,1698241641031,10266,12624,13917,buq,qns-item-noham,29,219392,0.0-1.0-0.28
<b>People?s bad politics are usually motivated by hatefulness.,Highly disagree,30/150,Somewhat agree,3,1698241642331,1698241649105,\Somewhat agree\,\Somewhat agree\,\3\,1698241647450,1698241647450,5119,5119,6774,buq,qns-item-noham,30,226172,0.0-1.0-0.29
"<b>Most new experiences are just like old ones, but a little bit different.",Highly disagree,31/150,Somewhat disagree,2,1698241649109,1698241653567,\Somewhat disagree\,\Somewhat disagree\,\2\,1698241652493,1698241652493,3384,3384,4458,buq,qns-item-noham,31,230634,0.0-1.0-0.30
<b>I think a lot about how to reconcile my beliefs with one another.,Highly disagree,32/150,Highly disagree,1,1698241653572,1698241662065,\Highly disagree\,\Highly disagree\,\1\,1698241661413,1698241661413,7841,7841,8493,buq,qns-item-noham,32,239133,0.0-1.0-0.31
<b>Personal experience rarely leads people astray.,Highly disagree,33/150,Somewhat agree,3,1698241662087,1698241671325,\Somewhat agree\,\Somewhat agree\,\3\,1698241670576,1698241670576,8489,8489,9238,buq,qns-item-noham,33,248393,0.0-1.0-0.32
<b>I might have false beliefs about important topics.,Highly disagree,34/150,Somewhat agree,3,1698241671343,1698241674969,\Somewhat agree\,\Somewhat agree\,\3\,1698241674298,1698241674298,2955,2955,3626,buq,qns-item-noham,34,252036,0.0-1.0-0.33
"<b>If a good friend of mine does something unexpected that upsets me, I feel like I don?t know them anymore.",Highly disagree,35/150,Somewhat disagree,2,1698241674975,1698241681696,\Somewhat disagree\,\Somewhat disagree\,\2\,1698241680665,1698241680665,5690,5690,6721,buq,qns-item-noham,35,258764,0.0-1.0-0.34
<b>Other people?s beliefs are often incoherent.,Highly disagree,36/150,Somewhat agree,3,1698241681703,1698241686927,\Somewhat agree\,\Somewhat agree\,\3\,1698241685915,1698241685915,4212,4212,5224,buq,qns-item-noham,36,263994,0.0-1.0-0.35
<b>It?s important to have friends who think about things differently than I do.,Highly disagree,37/150,Somewhat agree,3,1698241686930,1698241691381,\Somewhat agree\,\Somewhat agree\,\3\,1698241690638,1698241690638,3708,3708,4451,buq,qns-item-noham,37,268449,0.0-1.0-0.36
"<b>Every now and then, a new experience will unsettle beliefs I?ve had for a while.",Highly disagree,38/150,Highly agree,4,1698241691389,1698241699668,\Highly agree\,\Highly agree\,\4\,1698241698777,1698241698777,7388,7388,8279,buq,qns-item-noham,38,276735,0.0-1.0-0.37
<b>Some policies I agree with in principle are so bad I don?t support them. ,Highly disagree,39/150,Somewhat agree,3,1698241699671,1698241707789,\Somewhat agree\,\Somewhat agree\,\3\,1698241707092,1698241707092,7421,7421,8118,buq,qns-item-noham,39,284856,0.0-1.0-0.38
<b>I?m pretty sure I?ve accidentally spread false information.,Highly disagree,40/150,Somewhat agree,3,1698241707794,1698241712913,\Somewhat agree\,\Somewhat agree\,\3\,1698241712160,1698241712160,4366,4366,5119,buq,qns-item-noham,40,289980,0.0-1.0-0.39
"<b>If I go to my favorite restaurant and the food is unexpectedly bad, then they have changed owners.",Highly disagree,41/150,Highly disagree,1,1698241712919,1698241718413,\Highly disagree\,\Highly disagree\,\1\,1698241717600,1698241717600,4681,4681,5494,buq,qns-item-noham,41,295480,0.0-1.0-0.40
"<b>In politics, it?s important to trust your friends and family.",Highly disagree,42/150,Somewhat disagree,2,1698241718416,1698241725966,\Somewhat disagree\,\Somewhat disagree\,\2\,1698241725231,1698241725231,6815,6815,7550,buq,qns-item-noham,42,303035,0.0-1.0-0.41
<b>It?s OK to have some conflicting beliefs.,Highly disagree,43/150,Somewhat agree,3,1698241725989,1698241729432,\Somewhat agree\,\Somewhat agree\,\3\,1698241728656,1698241728656,2667,2667,3443,buq,qns-item-noham,43,306499,0.0-1.0-0.42
<b>Sometimes the details of a matter seem to conflict with the big picture.,Highly disagree,44/150,Highly agree,4,1698241729440,1698241735642,\Highly agree\,\Highly agree\,\4\,1698241734889,1698241734889,5449,5449,6202,buq,qns-item-noham,44,312709,0.0-1.0-0.43
<b>Listening to people I disagree with makes my opinions better.,Highly disagree,45/150,Somewhat agree,3,1698241735649,1698241742788,\Somewhat agree\,\Somewhat agree\,\3\,1698241741892,1698241741892,6243,6243,7139,buq,qns-item-noham,45,319855,0.0-1.0-0.44
<b>Policies that sound bad are sometimes fine when you find out about their details.,Highly disagree,46/150,Somewhat agree,3,1698241742795,1698241749246,\Somewhat agree\,\Somewhat agree\,\3\,1698241748454,1698241748454,5659,5659,6451,buq,qns-item-noham,46,326314,0.0-1.0-0.45
"<b>The world is always changing, so my beliefs are sometimes out-dated.",Highly disagree,47/150,Somewhat agree,3,1698241749254,1698241755091,\Somewhat agree\,\Somewhat agree\,\3\,1698241754376,1698241754376,5122,5122,5837,buq,qns-item-noham,47,332159,0.0-1.0-0.46
"<b>If I receive a bad meal at my favorite restaurant and the food is surprisingly bad, I do not think much of it, and assume the chef is just having an ?off? day.",Highly disagree,48/150,Highly agree,4,1698241755098,1698241766234,\Highly agree\,\Highly agree\,\4\,1698241765295,1698241765295,10197,10197,11136,buq,qns-item-noham,48,343301,0.0-1.0-0.47
"<b>False information is unavoidable, to some extent.",Highly disagree,49/150,Highly agree,4,1698241766236,1698241770024,\Highly agree\,\Highly agree\,\4\,1698241769215,1698241769215,2979,2979,3788,buq,qns-item-noham,49,347091,0.0-1.0-0.48
<b>My moral compass sometimes makes it harder to determine what?s true.,Highly disagree,50/150,Somewhat disagree,2,1698241770029,1698241776910,\Highly disagree\,\Somewhat disagree\,\1\,1698241773880,1698241774669,3851,4640,6881,buq,qns-item-noham,50,353978,0.0-1.0-0.49
"<b>When you disagree with someone, it?s important to listen to them carefully.",Highly disagree,51/150,Somewhat agree,3,1698241776915,1698241781866,\Somewhat agree\,\Somewhat agree\,\3\,1698241781059,1698241781059,4144,4144,4951,buq,qns-item-noham,51,358933,0.0-1.0-0.50
<b>Evidence pointing in the wrong direction isn?t really evidence at all.,Highly disagree,52/150,Somewhat agree,3,1698241781872,1698241790330,\Somewhat agree\,\Somewhat agree\,\3\,1698241789531,1698241789531,7659,7659,8458,buq,qns-item-noham,52,367398,0.0-1.0-0.51
"<b>If the political party I support messes up, it makes me think politics is rotten.",Highly disagree,53/150,Somewhat agree,3,1698241790346,1698241797753,\Somewhat agree\,\Somewhat agree\,\3\,1698241797111,1698241797111,6765,6765,7407,buq,qns-item-noham,53,374821,0.0-1.0-0.52
<b>Lots of important topics can only really be understood by some groups of people.,Highly disagree,54/150,Highly disagree,1,1698241797759,1698241807041,\Highly disagree\,\Highly disagree\,\1\,1698241806156,1698241806156,8397,8397,9282,buq,qns-item-noham,54,384108,0.0-1.0-0.53
<b>Details almost always matter for being right about something.,Highly disagree,55/150,Somewhat disagree,2,1698241807044,1698241818423,\Somewhat agree\,\Somewhat disagree\,\3\,1698241814729,1698241817621,7685,10577,11379,buq,qns-item-noham,55,395490,0.0-1.0-0.54
"<b>The most important thing in politics is winning, not convincing people.",Highly disagree,56/150,Highly disagree,1,1698241818429,1698241837185,\Highly disagree\,\Highly disagree\,\1\,1698241836484,1698241836484,18055,18055,18756,buq,qns-item-noham,56,414253,0.0-1.0-0.55
<b>Having conflicting beliefs means you haven?t thought about them enough.,Highly disagree,57/150,Highly disagree,1,1698241837192,1698241842228,\Highly disagree\,\Highly disagree\,\1\,1698241841451,1698241841451,4259,4259,5036,buq,qns-item-noham,57,419296,0.0-1.0-0.56
<b>Other people have sometimes convinced me to change my mind on important topics.,Highly disagree,58/150,Somewhat agree,3,1698241842235,1698241849340,\Somewhat agree\,\Somewhat agree\,\3\,1698241848606,1698241848606,6371,6371,7105,buq,qns-item-noham,58,426408,0.0-1.0-0.57
<b>I do not often change my political opinions.,Highly disagree,59/150,Somewhat agree,3,1698241849346,1698241857015,\Somewhat agree\,\Somewhat agree\,\3\,1698241853036,1698241853036,3690,3690,7669,buq,qns-item-noham,59,434083,0.0-1.0-0.58
<b>Thinking about how different things relate to one another is critical in life.,Highly disagree,60/150,Highly agree,4,1698241857032,1698241864453,\Highly agree\,\Highly agree\,\4\,1698241863737,1698241863737,6705,6705,7421,buq,qns-item-noham,60,441520,0.0-1.0-0.59
<b>True beliefs can have unfortunate implications.,Highly disagree,61/150,Somewhat agree,3,1698241864457,1698241874097,\Somewhat agree\,\Somewhat agree\,\3\,1698241871101,1698241871101,6644,6644,9640,buq,qns-item-noham,61,451164,0.0-1.0-0.60
<b>It?s difficult to not have at least some conflicting beliefs.,Highly disagree,62/150,Highly agree,4,1698241874102,1698241878806,\Highly agree\,\Highly agree\,\4\,1698241878084,1698241878084,3982,3982,4704,buq,qns-item-noham,62,455873,0.0-1.0-0.61
"<b>When I learn new things, I think deeply about how my opinions should change.",Highly disagree,63/150,Somewhat agree,3,1698241878814,1698241884369,\Somewhat agree\,\Somewhat agree\,\3\,1698241883590,1698241883590,4776,4776,5555,buq,qns-item-noham,63,461437,0.0-1.0-0.62
<b>I think a lot about how to interpret different sorts of evidence.,Highly disagree,64/150,Somewhat agree,3,1698241884379,1698241889835,\Somewhat agree\,\Somewhat agree\,\3\,1698241889123,1698241889123,4744,4744,5456,buq,qns-item-noham,64,466902,0.0-1.0-0.63
<b>Politics is about thinking together and finding compromises.,Highly disagree,65/150,Highly agree,4,1698241889838,1698241896674,\Highly agree\,\Highly agree\,\4\,1698241895839,1698241895839,6001,6001,6836,buq,qns-item-noham,65,473741,0.0-1.0-0.64
<b>Wishful thinking causes a lot of problems.,Highly disagree,66/150,Somewhat agree,3,1698241896679,1698241901047,\Somewhat agree\,\Somewhat agree\,\3\,1698241900275,1698241900275,3596,3596,4368,buq,qns-item-noham,66,478114,0.0-1.0-0.65
<b>I judge a food item only once I try it many times.,Highly disagree,67/150,Somewhat disagree,2,1698241901053,1698241910206,\Somewhat disagree\,\Somewhat disagree\,\2\,1698241909358,1698241909358,8305,8305,9153,buq,qns-item-noham,67,487273,0.0-1.0-0.66
"<b>When a person holds conflicting beliefs, they should really try to figure out what?s wrong.",Highly disagree,68/150,Somewhat agree,3,1698241910212,1698241916337,\Somewhat agree\,\Somewhat agree\,\3\,1698241915588,1698241915588,5376,5376,6125,buq,qns-item-noham,68,493405,0.0-1.0-0.67
<b>Knowing what?s important in life is easy.,Highly disagree,69/150,Somewhat agree,3,1698241916355,1698241920896,\Somewhat agree\,\Somewhat agree\,\3\,1698241920058,1698241920058,3703,3703,4541,buq,qns-item-noham,69,497964,0.0-1.0-0.68
<b>Lots of smart people disagree about basic political questions.,Highly disagree,70/150,Somewhat disagree,2,1698241920917,1698241942614,\Somewhat agree\,\Somewhat disagree\,\3\,1698241928835,1698241936748,7918,15831,21697,buq,qns-item-noham,70,519681,0.0-1.0-0.69
<b>I swim across the Atlantic Ocean to get to work every day.,Highly disagree,71/150,Highly disagree,1,1698241942620,1698241949172,\Highly disagree\,\Highly disagree\,\1\,1698241945195,1698241945195,2575,2575,6552,buq,qns-item-noham,71,526240,0.0-1.0-0.70
"<b>Sometimes, you just have to ignore evidence that you know is wrong.",Highly disagree,72/150,Somewhat disagree,2,1698241949177,1698241959108,\Somewhat disagree\,\Somewhat disagree\,\2\,1698241956043,1698241956043,6866,6866,9931,buq,qns-item-noham,72,536176,0.0-1.0-0.71
<b>I have had some false beliefs.,Highly disagree,73/150,Highly agree,4,1698241959113,1698241964638,\Somewhat agree\,\Highly agree\,\3\,1698241961387,1698241963888,2274,4775,5525,buq,qns-item-noham,73,541705,0.0-1.0-0.72
"<b>If one friend does something that upsets me, I sometimes start to distrust people in general.",Highly disagree,74/150,Somewhat disagree,2,1698241964644,1698241972659,\Somewhat disagree\,\Somewhat disagree\,\2\,1698241971919,1698241971919,7275,7275,8015,buq,qns-item-noham,74,549726,0.0-1.0-0.73
<b>I easily apply what I learn in one situation to another.,Highly disagree,75/150,Highly agree,4,1698241972662,1698241979920,\Somewhat agree\,\Highly agree\,\3\,1698241976294,1698241979119,3632,6457,7258,buq,qns-item-noham,75,556988,0.0-1.0-0.74
<b>The facts about most important matters are easy to find.,Highly disagree,76/150,Highly agree,4,1698241979937,1698241990151,\Somewhat agree\,\Highly agree\,\3\,1698241985559,1698241988602,5622,8665,10214,buq,qns-item-noham,76,567219,0.0-1.0-0.75
<b>It?s better to know what?s true than to know what?s moral.,Highly disagree,77/150,Somewhat disagree,2,1698241990157,1698241998914,\Somewhat disagree\,\Somewhat disagree\,\2\,1698241998208,1698241998208,8051,8051,8757,buq,qns-item-noham,77,575981,0.0-1.0-0.76
<b>It?s good to be skeptical of people you agree with.,Highly disagree,78/150,Highly agree,4,1698241998917,1698242003312,\Highly agree\,\Highly agree\,\4\,1698242002528,1698242002528,3611,3611,4395,buq,qns-item-noham,78,580380,0.0-1.0-0.77
<b>Sometimes reasonable beliefs are wrong.,Highly disagree,79/150,Somewhat agree,3,1698242003321,1698242008208,\Somewhat agree\,\Somewhat agree\,\3\,1698242007534,1698242007534,4213,4213,4887,buq,qns-item-noham,79,585275,0.0-1.0-0.78
<b>I used to think the world was less complicated than I do now.,Highly disagree,80/150,Somewhat disagree,2,1698242008214,1698242014564,\Somewhat disagree\,\Somewhat disagree\,\2\,1698242013333,1698242013333,5119,5119,6350,buq,qns-item-noham,80,591631,0.0-1.0-0.79
<b>People are usually completely right or completely wrong.,Highly disagree,81/150,Highly disagree,1,1698242014570,1698242018909,\Highly disagree\,\Highly disagree\,\1\,1698242017851,1698242017851,3281,3281,4339,buq,qns-item-noham,81,595976,0.0-1.0-0.80
<b>I spend a lot of time considering alternatives to my beliefs.,Highly disagree,82/150,Somewhat agree,3,1698242018913,1698242022453,\Somewhat agree\,\Somewhat agree\,\3\,1698242021710,1698242021710,2797,2797,3540,buq,qns-item-noham,82,599521,0.0-1.0-0.81
"<b>Political enemies need to be defeated, not convinced.",Highly disagree,83/150,Somewhat disagree,2,1698242022461,1698242028079,\Somewhat disagree\,\Somewhat disagree\,\2\,1698242027327,1698242027327,4866,4866,5618,buq,qns-item-noham,83,605146,0.0-1.0-0.82
"<b>When forming an opinion about a restaurant, I am more swayed by my  latest meal there than  previous meals I?ve had there.",Highly disagree,84/150,Somewhat agree,3,1698242028085,1698242044905,\Somewhat agree\,\Somewhat agree\,\3\,1698242039715,1698242039715,11630,11630,16820,buq,qns-item-noham,84,621973,0.0-1.0-0.83
<b>I try to remain skeptical about most topics.,Highly disagree,85/150,Highly agree,4,1698242044910,1698242049776,\Highly agree\,\Highly agree\,\4\,1698242048726,1698242048726,3816,3816,4866,buq,qns-item-noham,85,626843,0.0-1.0-0.84
<b>Being wrong is usually obvious in retrospect.,Highly disagree,86/150,Somewhat disagree,2,1698242049778,1698242054463,\Somewhat disagree\,\Somewhat disagree\,\2\,1698242053705,1698242053705,3927,3927,4685,buq,qns-item-noham,86,631530,0.0-1.0-0.85
<b>It can be hard to realize that my beliefs are in conflict.,Highly disagree,87/150,Somewhat agree,3,1698242054468,1698242063535,\Somewhat agree\,\Somewhat agree\,\3\,1698242058781,1698242058781,4313,4313,9067,buq,qns-item-noham,87,640602,0.0-1.0-0.86
<b>I form my political views only after meticulously gathering historical and present information about their policies.,Highly disagree,88/150,Somewhat agree,3,1698242063540,1698242073433,\Somewhat agree\,\Somewhat agree\,\3\,1698242072771,1698242072771,9231,9231,9893,buq,qns-item-noham,88,650500,0.0-1.0-0.87
<b>Skeptical people are usually just bad-tempered.,Highly disagree,89/150,Somewhat disagree,2,1698242073438,1698242079679,\Somewhat disagree\,\Somewhat disagree\,\2\,1698242078893,1698242078893,5455,5455,6241,buq,qns-item-noham,89,656747,0.0-1.0-0.88
<b>It is difficult for me to remember the last time I was surprised by politics.,Highly disagree,90/150,Somewhat disagree,2,1698242079687,1698242088154,\Highly disagree\,\Somewhat disagree\,\1\,1698242083487,1698242086202,3800,6515,8467,buq,qns-item-noham,90,665221,0.0-1.0-0.89
"<b>When I find out I?m wrong, I think a lot about my related beliefs.",Highly disagree,91/150,Somewhat agree,3,1698242088159,1698242092059,\Somewhat agree\,\Somewhat agree\,\3\,1698242091325,1698242091325,3166,3166,3900,buq,qns-item-noham,91,669126,0.0-1.0-0.90
"<b>If the political party I support messes up, it makes me think you can?t trust anyone these days",Highly disagree,92/150,Somewhat agree,3,1698242092064,1698242100569,\Somewhat agree\,\Somewhat agree\,\3\,1698242099855,1698242099855,7791,7791,8505,buq,qns-item-noham,92,677636,0.0-1.0-0.91
<b>People?s brains turn off when they talk about politics.,Highly disagree,93/150,Somewhat agree,3,1698242100574,1698242108250,\Somewhat agree\,\Somewhat agree\,\3\,1698242105433,1698242105433,4859,4859,7676,buq,qns-item-noham,93,685318,0.0-1.0-0.92
<b>People who are wrong are usually just ignoring the obvious.,Highly disagree,94/150,Somewhat disagree,2,1698242108255,1698242117013,\Somewhat disagree\,\Somewhat disagree\,\2\,1698242115967,1698242115967,7712,7712,8758,buq,qns-item-noham,94,694080,0.0-1.0-0.93
"<b>The world isn?t that complicated, but it?s still hard to figure out how it works.",Highly disagree,95/150,Somewhat disagree,2,1698242117018,1698242127616,\Somewhat disagree\,\Somewhat disagree\,\2\,1698242122272,1698242122272,5254,5254,10598,buq,qns-item-noham,95,704684,0.0-1.0-0.94
"<b>When forming my views on people, I rely more on what they are like now rather than rely on my past experience with them.",Highly disagree,96/150,Somewhat disagree,2,1698242127621,1698242136228,\Somewhat disagree\,\Somewhat disagree\,\2\,1698242135464,1698242135464,7843,7843,8607,buq,qns-item-noham,96,713295,0.0-1.0-0.95
"<b>When people contradict my beliefs, I usually know about their evidence already.",Highly disagree,97/150,Somewhat agree,3,1698242136232,1698242145134,\Somewhat agree\,\Somewhat agree\,\3\,1698242144480,1698242144480,8248,8248,8902,buq,qns-item-noham,97,722201,0.0-1.0-0.96
<b>Being wrong is a matter of degree.,Highly disagree,98/150,Somewhat agree,3,1698242145138,1698242151732,\Somewhat agree\,\Somewhat agree\,\3\,1698242150993,1698242150993,5855,5855,6594,buq,qns-item-noham,98,728799,0.0-1.0-0.97
<b>Figuring out what?s true and what?s false mainly requires a strong moral compass.,Highly disagree,99/150,Somewhat agree,3,1698242151737,1698242166670,\Somewhat agree\,\Somewhat agree\,\3\,1698242164649,1698242164649,12912,12912,14933,buq,qns-item-noham,99,743737,0.0-1.0-0.98
<b>Most of the beliefs people have are at least somewhat understandable.,Highly disagree,100/150,Somewhat agree,3,1698242166675,1698242176403,\Somewhat agree\,\Somewhat agree\,\3\,1698242175417,1698242175417,8742,8742,9728,buq,qns-item-noham,100,753470,0.0-1.0-0.99
"<b>Usually I?m wrong about simple things, not complicated ones.",Highly disagree,101/150,Somewhat agree,3,1698242176408,1698242187387,\Somewhat agree\,\Somewhat agree\,\3\,1698242186726,1698242186726,10318,10318,10979,buq,qns-item-noham,101,764454,0.0-1.0-0.100
<b>Getting all the information I want about important things is hard.,Highly disagree,102/150,Highly agree,4,1698242187394,1698242192881,\Highly agree\,\Highly agree\,\4\,1698242192206,1698242192206,4812,4812,5487,buq,qns-item-noham,102,769948,0.0-1.0-0.101
<b>Most false beliefs spread because people try to deceive one another.,Highly disagree,103/150,Somewhat disagree,2,1698242192886,1698242197679,\Somewhat disagree\,\Somewhat disagree\,\2\,1698242197055,1698242197055,4169,4169,4793,buq,qns-item-noham,103,774746,0.0-1.0-0.102
<b>I can usually find something to agree with in most people?s beliefs.,Highly disagree,104/150,Somewhat agree,3,1698242197684,1698242203045,\Somewhat agree\,\Somewhat agree\,\3\,1698242202198,1698242202198,4514,4514,5361,buq,qns-item-noham,104,780112,0.0-1.0-0.103
<b>I only form my views of people once I get to know them very well.,Highly disagree,105/150,Somewhat agree,3,1698242203051,1698242208519,\Somewhat agree\,\Somewhat agree\,\3\,1698242207361,1698242207361,4310,4310,5468,buq,qns-item-noham,105,785586,0.0-1.0-0.104
"<b>When people tell me important things about the world, I usually believe them.",Highly disagree,106/150,Highly disagree,1,1698242208523,1698242216088,\Highly disagree\,\Highly disagree\,\1\,1698242215325,1698242215325,6802,6802,7565,buq,qns-item-noham,106,793155,0.0-1.0-0.105
"<b>If a friend does something that upsets me, it reminds me what an unpredictable place the world is.",Highly disagree,107/150,Highly disagree,1,1698242216096,1698242221510,\Highly disagree\,\Highly disagree\,\1\,1698242220060,1698242220060,3964,3964,5414,buq,qns-item-noham,107,798577,0.0-1.0-0.106
<b>Having some conflicting beliefs is inevitable.,Highly disagree,108/150,Highly agree,4,1698242221514,1698242226019,\Highly agree\,\Highly agree\,\4\,1698242225198,1698242225198,3684,3684,4505,buq,qns-item-noham,108,803086,0.0-1.0-0.107
<b>People are wrong because they haven?t thought much about things.,Highly disagree,109/150,Somewhat disagree,2,1698242226023,1698242231142,\Somewhat disagree\,\Somewhat disagree\,\2\,1698242229540,1698242229540,3517,3517,5119,buq,qns-item-noham,109,808209,0.0-1.0-0.108
<b>People tend to believe whatever is good for their friends.,Highly disagree,110/150,Somewhat disagree,2,1698242231146,1698242236233,\Somewhat disagree\,\Somewhat disagree\,\2\,1698242235266,1698242235266,4120,4120,5087,buq,qns-item-noham,110,813300,0.0-1.0-0.109
"<b>When I talk about important topics, I try to make sure people know I?m not always right.",Highly disagree,111/150,Highly agree,4,1698242236238,1698242241590,\Highly agree\,\Highly agree\,\4\,1698242240787,1698242240787,4549,4549,5352,buq,qns-item-noham,111,818657,0.0-1.0-0.110
<b>I used to be more certain my beliefs were true.,Highly disagree,112/150,Somewhat agree,3,1698242241594,1698242245418,\Somewhat agree\,\Somewhat agree\,\3\,1698242244588,1698242244588,2994,2994,3824,buq,qns-item-noham,112,822485,0.0-1.0-0.111
<b>It?s often pretty easy to figure out whether something is true based on who said it.,Highly disagree,113/150,Somewhat agree,3,1698242245424,1698242252094,\Somewhat agree\,\Somewhat agree\,\3\,1698242251412,1698242251412,5988,5988,6670,buq,qns-item-noham,113,829161,0.0-1.0-0.112
<b>Having bad food in my favorite restaurant will make me think the restaurant is no longer good.,Highly disagree,114/150,Somewhat agree,3,1698242252097,1698242258832,\Somewhat agree\,\Somewhat agree\,\3\,1698242258076,1698242258076,5979,5979,6735,buq,qns-item-noham,114,835899,0.0-1.0-0.113
<b>I transform into a hummingbird every day.,Highly disagree,115/150,Highly disagree,1,1698242258836,1698242262112,\Highly disagree\,\Highly disagree\,\1\,1698242261479,1698242261479,2643,2643,3276,buq,qns-item-noham,115,839179,0.0-1.0-0.114
"<b>Unfortunately, when people are wrong, it?s usually because they?re bad.",Highly disagree,116/150,Highly disagree,1,1698242262117,1698242266887,\Highly disagree\,\Highly disagree\,\1\,1698242266043,1698242266043,3926,3926,4770,buq,qns-item-noham,116,843954,0.0-1.0-0.115
<b>I think a lot about arguments against my views.,Highly disagree,117/150,Somewhat agree,3,1698242266890,1698242272187,\Somewhat agree\,\Somewhat agree\,\3\,1698242271407,1698242271407,4517,4517,5297,buq,qns-item-noham,117,849254,0.0-1.0-0.116
<b>Details tend to matter a lot for knowing whether a policy is good.,Highly disagree,118/150,Somewhat agree,3,1698242272194,1698242278136,\Somewhat agree\,\Somewhat agree\,\3\,1698242277356,1698242277523,5162,5329,5942,buq,qns-item-noham,118,855203,0.0-1.0-0.117
<b>Personal experience is usually more important than facts and figures.,Highly disagree,119/150,Somewhat agree,3,1698242278141,1698242282567,\Somewhat agree\,\Somewhat agree\,\3\,1698242281771,1698242281771,3630,3630,4426,buq,qns-item-noham,119,859634,0.0-1.0-0.118
<b>I?ve been tricked before about important matters.,Highly disagree,120/150,Highly agree,4,1698242282571,1698242286784,\Highly agree\,\Highly agree\,\4\,1698242285991,1698242285991,3420,3420,4213,buq,qns-item-noham,120,863851,0.0-1.0-0.119
<b>I would need to be totally wowed if I were to change my opinion of a restaurant I don?t like.,Highly disagree,121/150,Highly agree,4,1698242286789,1698242298795,\Highly agree\,\Highly agree\,\4\,1698242297898,1698242297898,11109,11109,12006,buq,qns-item-noham,121,875862,0.0-1.0-0.120
<b>I care a lot about politics.,Highly disagree,122/150,Somewhat disagree,2,1698242298799,1698242303172,\Somewhat disagree\,\Somewhat disagree\,\2\,1698242302399,1698242302399,3600,3600,4373,buq,qns-item-noham,122,880239,0.0-1.0-0.121
<b>People with conflicting beliefs usually have some facts they disagree on.,Highly disagree,123/150,Highly agree,4,1698242303178,1698242310026,\Highly agree\,\Highly agree\,\4\,1698242309315,1698242309315,6137,6137,6848,buq,qns-item-noham,123,887093,0.0-1.0-0.122
<b>There are some topics I?ve been really wrong about.,Highly disagree,124/150,Highly agree,4,1698242310033,1698242313544,\Highly agree\,\Highly agree\,\4\,1698242312791,1698242312791,2758,2758,3511,buq,qns-item-noham,124,890612,0.0-1.0-0.123
<b>Most beliefs can be supported with at least some evidence.,Highly disagree,125/150,Highly agree,4,1698242313551,1698242319665,\Highly agree\,\Highly agree\,\4\,1698242318884,1698242318884,5333,5333,6114,buq,qns-item-noham,125,896732,0.0-1.0-0.124
<b>Other people make life out to be more complicated than it really is.,Highly disagree,126/150,Somewhat disagree,2,1698242319670,1698242326023,\Somewhat disagree\,\Somewhat disagree\,\2\,1698242324971,1698242324971,5301,5301,6353,buq,qns-item-noham,126,903090,0.0-1.0-0.125
"<b>My political views are being shaped continuously as I gather more information, rather than relying on what I?ve known to be true of my party in the past. ",Highly disagree,127/150,Highly agree,4,1698242326026,1698242331892,\Highly agree\,\Highly agree\,\4\,1698242331060,1698242331060,5034,5034,5866,buq,qns-item-noham,127,908959,0.0-1.0-0.126
<b>It?s pretty unusual for true things to seem false.,Highly disagree,128/150,Highly disagree,1,1698242331896,1698242339818,\Highly disagree\,\Highly disagree\,\1\,1698242339077,1698242339077,7181,7181,7922,buq,qns-item-noham,128,916885,0.0-1.0-0.127
"<b>Policy details don?t matter much, just the big picture.",Highly disagree,129/150,Highly disagree,1,1698242339825,1698242344339,\Highly disagree\,\Highly disagree\,\1\,1698242343413,1698242343413,3588,3588,4514,buq,qns-item-noham,129,921406,0.0-1.0-0.128
<b>I know my friends so well they can hardly ever surprise me.,Highly disagree,130/150,Somewhat agree,3,1698242344345,1698242353145,\Highly agree\,\Somewhat agree\,\4\,1698242350403,1698242352453,6058,8108,8800,buq,qns-item-noham,130,930212,0.0-1.0-0.129
"<b>When I talk to people, I often think about why they have the beliefs they do.",Highly disagree,131/150,Highly agree,4,1698242353150,1698242358618,\Highly agree\,\Highly agree\,\4\,1698242357762,1698242357762,4612,4612,5468,buq,qns-item-noham,131,935685,0.0-1.0-0.130
<b>I do not often change my views on people.,Highly disagree,132/150,Somewhat agree,3,1698242358624,1698242364164,\Somewhat agree\,\Somewhat agree\,\3\,1698242363367,1698242363367,4743,4743,5540,buq,qns-item-noham,132,941231,0.0-1.0-0.131
<b>I often wish I had more time to spend figuring out what?s true and what?s false in life.,Highly disagree,133/150,Somewhat disagree,2,1698242364170,1698242368926,\Somewhat disagree\,\Somewhat disagree\,\2\,1698242368184,1698242368184,4014,4014,4756,buq,qns-item-noham,133,945993,0.0-1.0-0.132
<b>I?m more certain about my beliefs than I used to be.,Highly disagree,134/150,Somewhat agree,3,1698242368931,1698242376847,\Somewhat agree\,\Somewhat agree\,\3\,1698242374913,1698242374913,5982,5982,7916,buq,qns-item-noham,134,953914,0.0-1.0-0.133
"<b>Whenever I find out new information, I update my views on politics accordingly.",Highly disagree,135/150,Highly agree,4,1698242376851,1698242380626,\Highly agree\,\Highly agree\,\4\,1698242379599,1698242379599,2748,2748,3775,buq,qns-item-noham,135,957693,0.0-1.0-0.134
<b>People often tell falsehoods unintentionally.,Highly disagree,136/150,Somewhat agree,3,1698242380629,1698242385557,\Somewhat agree\,\Somewhat agree\,\3\,1698242384816,1698242384816,4187,4187,4928,buq,qns-item-noham,136,962624,0.0-1.0-0.135
<b>Most people don?t know much about most things.,Highly disagree,137/150,Somewhat agree,3,1698242385562,1698242391663,\Somewhat agree\,\Somewhat agree\,\3\,1698242390813,1698242390813,5251,5251,6101,buq,qns-item-noham,137,968730,0.0-1.0-0.136
"<b>If I find out something new about someone, I easily change my views about them.",Highly disagree,138/150,Somewhat disagree,2,1698242391667,1698242399140,\Somewhat disagree\,\Somewhat disagree\,\2\,1698242395819,1698242395819,4152,4152,7473,buq,qns-item-noham,138,976207,0.0-1.0-0.137
<b>Having true beliefs is difficult.,Highly disagree,139/150,Somewhat agree,3,1698242399144,1698242405224,\Somewhat agree\,\Somewhat agree\,\3\,1698242403821,1698242403821,4677,4677,6080,buq,qns-item-noham,139,982291,0.0-1.0-0.138
<b>I don?t try new foods since I know I won?t like them.,Highly disagree,140/150,Somewhat disagree,2,1698242405230,1698242410057,\Somewhat disagree\,\Somewhat disagree\,\2\,1698242409394,1698242409394,4164,4164,4827,buq,qns-item-noham,140,987124,0.0-1.0-0.139
<b>It?s easy to figure out what?s true or false based on who?s saying it.,Highly disagree,141/150,Somewhat agree,3,1698242410062,1698242413993,\Somewhat agree\,\Somewhat agree\,\3\,1698242413284,1698242413284,3222,3222,3931,buq,qns-item-noham,141,991060,0.0-1.0-0.140
<b>False things have seemed true to me many times.,Highly disagree,142/150,Somewhat disagree,2,1698242413999,1698242427891,\Highly agree\,\Somewhat disagree\,\4\,1698242418088,1698242426686,4089,12687,13892,buq,qns-item-noham,142,1004958,0.0-1.0-0.141
<b>It?s pretty easy to sort out what?s true and what?s false in life.,Highly disagree,143/150,Somewhat agree,3,1698242427896,1698242432295,\Somewhat agree\,\Somewhat agree\,\3\,1698242431468,1698242431468,3572,3572,4399,buq,qns-item-noham,143,1009362,0.0-1.0-0.142
<b>Knowing lots of statistics about something is usually important for understanding it.,Highly disagree,144/150,Somewhat agree,3,1698242432300,1698242439632,\Somewhat agree\,\Somewhat agree\,\3\,1698242438453,1698242438453,6153,6153,7332,buq,qns-item-noham,144,1016699,0.0-1.0-0.143
<b>Other people trick each other a lot.,Highly disagree,145/150,Highly agree,4,1698242439636,1698242443962,\Highly agree\,\Highly agree\,\4\,1698242442959,1698242442959,3323,3323,4326,buq,qns-item-noham,145,1021029,0.0-1.0-0.144
<b>I would need to learn a lot about a person for my opinion of them to be swayed.,Highly disagree,146/150,Somewhat agree,3,1698242443967,1698242449731,\Somewhat agree\,\Somewhat agree\,\3\,1698242447940,1698242447940,3973,3973,5764,buq,qns-item-noham,146,1026798,0.0-1.0-0.145
<b>People can?t usually trick me when it comes to topics I care about.,Highly disagree,147/150,Somewhat agree,3,1698242449735,1698242455638,\Somewhat agree\,\Somewhat agree\,\3\,1698242454782,1698242454782,5047,5047,5903,buq,qns-item-noham,147,1032705,0.0-1.0-0.146
<b>I do not often change my views on food.,Highly disagree,148/150,Somewhat disagree,2,1698242455644,1698242464612,\Somewhat disagree\,\Somewhat disagree\,\2\,1698242463601,1698242463601,7957,7957,8968,buq,qns-item-noham,148,1041679,0.0-1.0-0.147
<b>Specific policies are often very important to me.,Highly disagree,149/150,Somewhat agree,3,1698242464617,1698242469544,\Somewhat agree\,\Somewhat agree\,\3\,1698242468764,1698242468764,4147,4147,4927,buq,qns-item-noham,149,1046612,0.0-1.0-0.148
<b>Most people are woefully under-informed.,Highly disagree,150/150,Highly agree,4,1698242469549,1698242472922,\Highly agree\,\Highly agree\,\4\,1698242472129,1698242472129,2580,2580,3373,buq,qns-item-noham,150,1049990,0.0-1.0-0.149
