Question,qns_options,quest_num,answer,answer_num,question_load_timestamp,next_btn_timestamp,text_selected,final_text_selected,option_num_selected,preview_timestamps,final_text_selected_time_stamp,rt_first_option_click,rt_final_option_click,rt_submit_click,questionnaire,trial_type,trial_index,time_elapsed,internal_node_id
<b>Considering other people?s perspectives can help us figure out what?s true or false.,Highly disagree,1/150,Somewhat disagree,2,1.69824E+12,1.69824E+12,\Somewhat disagree\,\Somewhat disagree\,\2\,1.69824E+12,1.69824E+12,18321,18321,24032,buq,qns-item-noham,1,70574,0.0-1.0-0.0
<b>Knowing what?s true and knowing what to do about it are usually basically the same.,Highly disagree,2/150,Highly disagree,1,1.69824E+12,1.69824E+12,\Highly disagree\,\Highly disagree\,\1\,1.69824E+12,1.69824E+12,20716,20716,27763,buq,qns-item-noham,2,98345,0.0-1.0-0.1
<b>Most people just believe whatever is convenient for them.,Highly disagree,3/150,Highly agree,4,1.69824E+12,1.69824E+12,\Highly agree\,\Highly agree\,\4\,1.69824E+12,1.69824E+12,15983,15983,25371,buq,qns-item-noham,3,123719,0.0-1.0-0.2
<b>Even people who are wrong about most things can be right sometimes.,Highly disagree,4/150,Somewhat agree,3,1.69824E+12,1.69824E+12,\Somewhat agree\,\Somewhat agree\,\3\,1.69824E+12,1.69824E+12,17541,17541,23365,buq,qns-item-noham,4,147087,0.0-1.0-0.3
"<b>If the political party I support does something that upsets me, then the party may have changed, and I need to re-evaluate my support.",Highly disagree,5/150,Highly agree,4,1.69824E+12,1.69824E+12,\Highly agree\,\Highly agree\,\4\,1.69824E+12,1.69824E+12,17471,17471,35999,buq,qns-item-noham,5,183089,0.0-1.0-0.4
"<b>When people disagree, one side is usually completely right.",Highly disagree,6/150,Somewhat disagree,2,1.69824E+12,1.69824E+12,\Somewhat disagree\,\Somewhat disagree\,\2\,1.69824E+12,1.69824E+12,13350,13350,22141,buq,qns-item-noham,6,205232,0.0-1.0-0.5
<b>People have lots of false beliefs.,Highly disagree,7/150,Highly agree,4,1.69824E+12,1.69824E+12,\Highly agree\,\Highly agree\,\4\,1.69824E+12,1.69824E+12,23168,23168,34261,buq,qns-item-noham,7,239496,0.0-1.0-0.6
<b>Having some big beliefs helps me sort out minor ones.,Highly disagree,8/150,Somewhat disagree,2,1.69824E+12,1.69824E+12,\Somewhat disagree\,\Somewhat disagree\,\2\,1.69824E+12,1.69824E+12,18682,18682,26022,buq,qns-item-noham,8,265520,0.0-1.0-0.7
<b>Political questions are usually pretty complicated.,Highly disagree,9/150,Highly agree,4,1.69824E+12,1.69824E+12,\Highly agree\,\Highly agree\,\4\,1.69824E+12,1.69824E+12,18950,18950,30946,buq,qns-item-noham,9,296469,0.0-1.0-0.8
<b>Figuring out what?s important in life requires learning a lot of facts.,Highly disagree,10/150,Highly agree,4,1.69824E+12,1.69824E+12,\Somewhat agree\,\Highly agree\,\3\,1.69824E+12,1.69824E+12,16220,20984,27929,buq,qns-item-noham,10,324401,0.0-1.0-0.9
<b>It is difficult for me to remember the last time I was surprised by politics.,Highly disagree,11/150,Highly disagree,1,1.69824E+12,1.69824E+12,\Highly disagree\,\Highly disagree\,\1\,1.69824E+12,1.69824E+12,16764,16764,23760,buq,qns-item-noham,11,348164,0.0-1.0-0.10
<b>People?s false beliefs are understandable.,Highly disagree,12/150,Somewhat disagree,2,1.69824E+12,1.69824E+12,\Somewhat disagree\,\Somewhat disagree\,\2\,1.69824E+12,1.69824E+12,17737,17737,29087,buq,qns-item-noham,12,377253,0.0-1.0-0.11
<b>I spend a lot of time trying to be informed about politics.,Highly disagree,13/150,Highly disagree,1,1.69824E+12,1.69824E+12,\Highly disagree\,\Highly disagree\,\1\,1.69824E+12,1.69824E+12,13596,13596,24324,buq,qns-item-noham,13,401581,0.0-1.0-0.12
<b>I think a lot about whether my beliefs are right.,Highly disagree,14/150,Somewhat disagree,2,1.69824E+12,1.69824E+12,\Somewhat disagree\,\Somewhat disagree\,\2\,1.69824E+12,1.69824E+12,16088,16088,27968,buq,qns-item-noham,14,429552,0.0-1.0-0.13
<b>Statistics can be pretty misleading sometimes.,Highly disagree,15/150,Somewhat agree,3,1.69824E+12,1.69824E+12,\Somewhat agree\,\Somewhat agree\,\3\,1.69824E+12,1.69824E+12,12858,12858,18173,buq,qns-item-noham,15,447727,0.0-1.0-0.14
<b>Figuring out what?s true and what?s false takes a lot of time and effort.,Highly disagree,16/150,Somewhat agree,3,1.69824E+12,1.69824E+12,\Somewhat agree\,\Somewhat agree\,\3\,1.69824E+12,1.69824E+12,19303,19303,25040,buq,qns-item-noham,16,472769,0.0-1.0-0.15
"<b>If a friend does something bad to me, it was likely an error on their part.",Highly disagree,17/150,Highly agree,4,1.69824E+12,1.69824E+12,\Highly agree\,\Highly agree\,\4\,1.69824E+12,1.69824E+12,18067,18067,25215,buq,qns-item-noham,17,497986,0.0-1.0-0.16
<b>I have lots of beliefs that I?m only sort of sure about.,Highly disagree,18/150,Somewhat agree,3,1.69824E+12,1.69824E+12,\Somewhat agree\,\Somewhat agree\,\3\,1.69824E+12,1.69824E+12,16724,16724,26324,buq,qns-item-noham,18,524312,0.0-1.0-0.17
"<b>If I go to my favorite restaurant and the food is surprisingly bad, it reminds me there are many disappointments in life.",Highly disagree,19/150,Somewhat agree,3,1.69824E+12,1.69824E+12,\Somewhat agree\,\Somewhat agree\,\3\,1.69824E+12,1.69824E+12,15970,15970,22397,buq,qns-item-noham,19,546711,0.0-1.0-0.18
<b>Sometimes my beliefs are inconvenient for me.,Highly disagree,20/150,Somewhat disagree,2,1.69824E+12,1.69824E+12,\Somewhat disagree\,\Somewhat disagree\,\2\,1.69824E+12,1.69824E+12,15674,15674,23808,buq,qns-item-noham,20,570522,0.0-1.0-0.19
<b>Paying attention to multiple news sources is important.,Highly disagree,21/150,Somewhat agree,3,1.69824E+12,1.69824E+12,\Somewhat agree\,\Somewhat agree\,\3\,1.69824E+12,1.69824E+12,15926,15926,26738,buq,qns-item-noham,21,597263,0.0-1.0-0.20
"<b>If you are paying attention, please select ?Somewhat agree?",Highly disagree,22/150,Somewhat agree,3,1.69824E+12,1.69824E+12,\Somewhat agree\,\Somewhat agree\,\3\,1.69824E+12,1.69824E+12,14411,14411,22418,buq,qns-item-noham,22,619683,0.0-1.0-0.21
"<b>When I talk to others, I often worry I?ll convince them of something I didn?t mean to.",Highly disagree,23/150,Highly disagree,1,1.69824E+12,1.69824E+12,\Highly disagree\,\Highly disagree\,\1\,1.69824E+12,1.69824E+12,15928,15928,31340,buq,qns-item-noham,23,651025,0.0-1.0-0.22
<b>I would need to learn something utterly shocking about my party in order to change my political views.,Highly disagree,24/150,Highly agree,4,1.69824E+12,1.69824E+12,\Highly agree\,\Highly agree\,\4\,1.69824E+12,1.69824E+12,25070,25070,36511,buq,qns-item-noham,24,687538,0.0-1.0-0.23
"<b>When I have new experiences, I tend to think of them as unique.",Highly disagree,25/150,Somewhat agree,3,1.69824E+12,1.69824E+12,\Somewhat agree\,\Somewhat agree\,\3\,1.69824E+12,1.69824E+12,16075,16075,29722,buq,qns-item-noham,25,717262,0.0-1.0-0.24
<b>Reading lots of things is important for understanding the world.,Highly disagree,26/150,Somewhat disagree,2,1.69824E+12,1.69824E+12,\Somewhat disagree\,\Somewhat disagree\,\2\,1.69824E+12,1.69824E+12,15865,15865,24999,buq,qns-item-noham,26,742263,0.0-1.0-0.25
<b>The world is complicated.,Highly disagree,27/150,Highly agree,4,1.69824E+12,1.69824E+12,\Highly agree\,\Highly agree\,\4\,1.69824E+12,1.69824E+12,11491,11491,19211,buq,qns-item-noham,27,761476,0.0-1.0-0.26
<b>I change my mind about specific policies pretty frequently.,Highly disagree,28/150,Somewhat disagree,2,1.69824E+12,1.69824E+12,\Somewhat disagree\,\Somewhat disagree\,\2\,1.69824E+12,1.69824E+12,16945,16945,26019,buq,qns-item-noham,28,787497,0.0-1.0-0.27
"<b>If a politician in my political party supports something I disagree with, I give them the benefit of the doubt, as such issues often involve hidden complexities that aren?t obvious.   ",Highly disagree,29/150,Highly disagree,1,1.69824E+12,1.69824E+12,\Highly disagree\,\Highly disagree\,\1\,1.69824E+12,1.69824E+12,26186,26186,42401,buq,qns-item-noham,29,829900,0.0-1.0-0.28
<b>People?s bad politics are usually motivated by hatefulness.,Highly disagree,30/150,Highly agree,4,1.69824E+12,1.69824E+12,\Highly agree\,\Highly agree\,\4\,1.69824E+12,1.69824E+12,13358,13358,20323,buq,qns-item-noham,30,850226,0.0-1.0-0.29
"<b>Most new experiences are just like old ones, but a little bit different.",Highly disagree,31/150,Somewhat disagree,2,1.69824E+12,1.69824E+12,\Somewhat disagree\,\Somewhat disagree\,\2\,1.69824E+12,1.69824E+12,20481,20481,27317,buq,qns-item-noham,31,877545,0.0-1.0-0.30
<b>I think a lot about how to reconcile my beliefs with one another.,Highly disagree,32/150,Somewhat disagree,2,1.69824E+12,1.69824E+12,\Somewhat disagree\,\Somewhat disagree\,\2\,1.69824E+12,1.69824E+12,17278,17278,24226,buq,qns-item-noham,32,901774,0.0-1.0-0.31
<b>Personal experience rarely leads people astray.,Highly disagree,33/150,Somewhat agree,3,1.69824E+12,1.69824E+12,\Somewhat agree\,\Somewhat agree\,\3\,1.69824E+12,1.69824E+12,19454,19454,28149,buq,qns-item-noham,33,929925,0.0-1.0-0.32
<b>I might have false beliefs about important topics.,Highly disagree,34/150,Somewhat agree,3,1.69824E+12,1.69824E+12,\Somewhat agree\,\Somewhat agree\,\3\,1.69824E+12,1.69824E+12,15309,15309,22190,buq,qns-item-noham,34,952118,0.0-1.0-0.33
"<b>If a good friend of mine does something unexpected that upsets me, I feel like I don?t know them anymore.",Highly disagree,35/150,Somewhat disagree,2,1.69824E+12,1.69824E+12,\Somewhat disagree\,\Somewhat disagree\,\2\,1.69824E+12,1.69824E+12,18659,18659,33353,buq,qns-item-noham,35,985472,0.0-1.0-0.34
<b>Other people?s beliefs are often incoherent.,Highly disagree,36/150,Highly agree,4,1.69824E+12,1.69824E+12,\Highly agree\,\Highly agree\,\4\,1.69824E+12,1.69824E+12,25687,25687,38214,buq,qns-item-noham,36,1023688,0.0-1.0-0.35
<b>It?s important to have friends who think about things differently than I do.,Highly disagree,37/150,Somewhat agree,3,1.69824E+12,1.69824E+12,\Somewhat agree\,\Somewhat agree\,\3\,1.69824E+12,1.69824E+12,19353,19353,29615,buq,qns-item-noham,37,1053305,0.0-1.0-0.36
"<b>Every now and then, a new experience will unsettle beliefs I?ve had for a while.",Highly disagree,38/150,Somewhat agree,3,1.69824E+12,1.69824E+12,\Somewhat agree\,\Somewhat agree\,\3\,1.69824E+12,1.69824E+12,18662,18662,36434,buq,qns-item-noham,38,1089742,0.0-1.0-0.37
<b>Some policies I agree with in principle are so bad I don?t support them. ,Highly disagree,39/150,Highly agree,4,1.69824E+12,1.69824E+12,\Highly agree\,\Highly agree\,\4\,1.69824E+12,1.69824E+12,15592,15592,29420,buq,qns-item-noham,39,1119164,0.0-1.0-0.38
<b>I?m pretty sure I?ve accidentally spread false information.,Highly disagree,40/150,Somewhat agree,3,1.69824E+12,1.69824E+12,\Somewhat agree\,\Somewhat agree\,\3\,1.69824E+12,1.69824E+12,19186,19186,28208,buq,qns-item-noham,40,1147376,0.0-1.0-0.39
"<b>If I go to my favorite restaurant and the food is unexpectedly bad, then they have changed owners.",Highly disagree,41/150,Somewhat disagree,2,1.69824E+12,1.69824E+12,\Somewhat disagree\,\Somewhat disagree\,\2\,1.69824E+12,1.69824E+12,20778,20778,30801,buq,qns-item-noham,41,1178179,0.0-1.0-0.40
"<b>In politics, it?s important to trust your friends and family.",Highly disagree,42/150,Somewhat disagree,2,1.69824E+12,1.69824E+12,\Somewhat disagree\,\Somewhat disagree\,\2\,1.69824E+12,1.69824E+12,14584,14584,25370,buq,qns-item-noham,42,1203551,0.0-1.0-0.41
<b>It?s OK to have some conflicting beliefs.,Highly disagree,43/150,Highly disagree,1,1.69824E+12,1.69824E+12,\Somewhat disagree\,\Highly disagree\,\2\,1.69824E+12,1.69824E+12,19328,24084,28538,buq,qns-item-noham,43,1232091,0.0-1.0-0.42
<b>Sometimes the details of a matter seem to conflict with the big picture.,Highly disagree,44/150,Highly agree,4,1.69824E+12,1.69824E+12,\Highly agree\,\Highly agree\,\4\,1.69824E+12,1.69824E+12,13261,13261,24341,buq,qns-item-noham,44,1256435,0.0-1.0-0.43
<b>Listening to people I disagree with makes my opinions better.,Highly disagree,45/150,Somewhat disagree,2,1.69824E+12,1.69824E+12,\Somewhat disagree\,\Somewhat disagree\,\2\,1.69824E+12,1.69824E+12,17463,17463,28318,buq,qns-item-noham,45,1284755,0.0-1.0-0.44
<b>Policies that sound bad are sometimes fine when you find out about their details.,Highly disagree,46/150,Highly disagree,1,1.69824E+12,1.69824E+12,\Highly disagree\,\Highly disagree\,\1\,1.69824E+12,1.69824E+12,27226,27226,31643,buq,qns-item-noham,46,1316400,0.0-1.0-0.45
"<b>The world is always changing, so my beliefs are sometimes out-dated.",Highly disagree,47/150,Somewhat agree,3,1.69824E+12,1.69824E+12,\Somewhat agree\,\Somewhat agree\,\3\,1.69824E+12,1.69824E+12,15965,15965,24636,buq,qns-item-noham,47,1341038,0.0-1.0-0.46
"<b>If I receive a bad meal at my favorite restaurant and the food is surprisingly bad, I do not think much of it, and assume the chef is just having an ?off? day.",Highly disagree,48/150,Somewhat disagree,2,1.69824E+12,1.69824E+12,\Somewhat disagree\,\Somewhat disagree\,\2\,1.69824E+12,1.69824E+12,16748,16748,28067,buq,qns-item-noham,48,1369107,0.0-1.0-0.47
"<b>False information is unavoidable, to some extent.",Highly disagree,49/150,Highly agree,4,1.69824E+12,1.69824E+12,\Highly agree\,\Highly agree\,\4\,1.69824E+12,1.69824E+12,14262,14262,21143,buq,qns-item-noham,49,1390253,0.0-1.0-0.48
<b>My moral compass sometimes makes it harder to determine what?s true.,Highly disagree,50/150,Somewhat agree,3,1.69824E+12,1.69824E+12,\Somewhat agree\,\Somewhat agree\,\3\,1.69824E+12,1.69824E+12,12888,12888,18569,buq,qns-item-noham,50,1408824,0.0-1.0-0.49
"<b>When you disagree with someone, it?s important to listen to them carefully.",Highly disagree,51/150,Somewhat agree,3,1.69824E+12,1.69824E+12,\Somewhat agree\,\Somewhat agree\,\3\,1.69824E+12,1.69824E+12,23644,23644,28381,buq,qns-item-noham,51,1437207,0.0-1.0-0.50
<b>Evidence pointing in the wrong direction isn?t really evidence at all.,Highly disagree,52/150,Highly agree,4,1.69824E+12,1.69824E+12,\Highly agree\,\Highly agree\,\4\,1.69824E+12,1.69824E+12,13723,13723,25970,buq,qns-item-noham,52,1463179,0.0-1.0-0.51
"<b>If the political party I support messes up, it makes me think politics is rotten.",Highly disagree,53/150,Somewhat agree,3,1.69824E+12,1.69824E+12,\Somewhat agree\,\Somewhat agree\,\3\,1.69824E+12,1.69824E+12,15354,15354,22153,buq,qns-item-noham,53,1485334,0.0-1.0-0.52
<b>Lots of important topics can only really be understood by some groups of people.,Highly disagree,54/150,Highly agree,4,1.69824E+12,1.69824E+12,\Highly agree\,\Highly agree\,\4\,1.69824E+12,1.69824E+12,13941,13941,21437,buq,qns-item-noham,54,1506773,0.0-1.0-0.53
<b>Details almost always matter for being right about something.,Highly disagree,55/150,Somewhat agree,3,1.69824E+12,1.69824E+12,\Somewhat agree\,\Somewhat agree\,\3\,1.69824E+12,1.69824E+12,18106,18106,30142,buq,qns-item-noham,55,1536917,0.0-1.0-0.54
"<b>The most important thing in politics is winning, not convincing people.",Highly disagree,56/150,Highly disagree,1,1.69824E+12,1.69824E+12,\Highly disagree\,\Highly disagree\,\1\,1.69824E+12,1.69824E+12,18515,18515,26361,buq,qns-item-noham,56,1563282,0.0-1.0-0.55
<b>Having conflicting beliefs means you haven?t thought about them enough.,Highly disagree,57/150,Somewhat agree,3,1.69824E+12,1.69824E+12,\Somewhat agree\,\Somewhat agree\,\3\,1.69824E+12,1.69824E+12,17831,17831,28486,buq,qns-item-noham,57,1591771,0.0-1.0-0.56
<b>Other people have sometimes convinced me to change my mind on important topics.,Highly disagree,58/150,Somewhat agree,3,1.69824E+12,1.69824E+12,\Somewhat agree\,\Somewhat agree\,\3\,1.69824E+12,1.69824E+12,33059,33059,43253,buq,qns-item-noham,58,1635026,0.0-1.0-0.57
<b>I do not often change my political opinions.,Highly disagree,59/150,Somewhat disagree,2,1.69824E+12,1.69824E+12,\Somewhat disagree\,\Somewhat disagree\,\2\,1.69824E+12,1.69824E+12,13078,13078,22828,buq,qns-item-noham,59,1657857,0.0-1.0-0.58
<b>Thinking about how different things relate to one another is critical in life.,Highly disagree,60/150,Somewhat agree,3,1.69824E+12,1.69824E+12,\Somewhat agree\,\Somewhat agree\,\3\,1.69824E+12,1.69824E+12,15896,15896,21678,buq,qns-item-noham,60,1679537,0.0-1.0-0.59
<b>True beliefs can have unfortunate implications.,Highly disagree,61/150,Somewhat agree,3,1.69824E+12,1.69824E+12,\Somewhat agree\,\Somewhat agree\,\3\,1.69824E+12,1.69824E+12,22939,22939,28376,buq,qns-item-noham,61,1707916,0.0-1.0-0.60
<b>It?s difficult to not have at least some conflicting beliefs.,Highly disagree,62/150,Somewhat disagree,2,1.69824E+12,1.69824E+12,\Somewhat disagree\,\Somewhat disagree\,\2\,1.69824E+12,1.69824E+12,13653,13653,20405,buq,qns-item-noham,62,1728324,0.0-1.0-0.61
"<b>When I learn new things, I think deeply about how my opinions should change.",Highly disagree,63/150,Somewhat agree,3,1.69824E+12,1.69824E+12,\Somewhat agree\,\Somewhat agree\,\3\,1.69824E+12,1.69824E+12,16373,16373,21859,buq,qns-item-noham,63,1750185,0.0-1.0-0.62
<b>I think a lot about how to interpret different sorts of evidence.,Highly disagree,64/150,Highly disagree,1,1.69824E+12,1.69824E+12,\Highly disagree\,\Highly disagree\,\1\,1.69824E+12,1.69824E+12,14207,14207,17018,buq,qns-item-noham,64,1767205,0.0-1.0-0.63
<b>Politics is about thinking together and finding compromises.,Highly disagree,65/150,Somewhat disagree,2,1.69824E+12,1.69824E+12,\Somewhat disagree\,\Somewhat disagree\,\2\,1.69824E+12,1.69824E+12,14044,14044,20227,buq,qns-item-noham,65,1787435,0.0-1.0-0.64
<b>Wishful thinking causes a lot of problems.,Highly disagree,66/150,Highly agree,4,1.69824E+12,1.69824E+12,\Highly agree\,\Highly agree\,\4\,1.69824E+12,1.69824E+12,12670,12670,18325,buq,qns-item-noham,66,1805763,0.0-1.0-0.65
<b>I judge a food item only once I try it many times.,Highly disagree,67/150,Somewhat agree,3,1.69824E+12,1.69824E+12,\Somewhat agree\,\Somewhat agree\,\3\,1.69824E+12,1.69824E+12,14675,14675,18008,buq,qns-item-noham,67,1823772,0.0-1.0-0.66
"<b>When a person holds conflicting beliefs, they should really try to figure out what?s wrong.",Highly disagree,68/150,Somewhat disagree,2,1.69824E+12,1.69824E+12,\Somewhat disagree\,\Somewhat disagree\,\2\,1.69824E+12,1.69824E+12,18186,18186,23606,buq,qns-item-noham,68,1847380,0.0-1.0-0.67
<b>Knowing what?s important in life is easy.,Highly disagree,69/150,Somewhat agree,3,1.69824E+12,1.69824E+12,\Somewhat agree\,\Somewhat agree\,\3\,1.69824E+12,1.69824E+12,10747,10747,21265,buq,qns-item-noham,69,1868647,0.0-1.0-0.68
<b>Lots of smart people disagree about basic political questions.,Highly disagree,70/150,Highly agree,4,1.69824E+12,1.69824E+12,\Highly agree\,\Highly agree\,\4\,1.69824E+12,1.69824E+12,20724,20724,25695,buq,qns-item-noham,70,1894344,0.0-1.0-0.69
<b>I swim across the Atlantic Ocean to get to work every day.,Highly disagree,71/150,Highly disagree,1,1.69824E+12,1.69824E+12,\Highly disagree\,\Highly disagree\,\1\,1.69824E+12,1.69824E+12,11187,11187,24491,buq,qns-item-noham,71,1918837,0.0-1.0-0.70
"<b>Sometimes, you just have to ignore evidence that you know is wrong.",Highly disagree,72/150,Somewhat agree,3,1.69824E+12,1.69824E+12,\Somewhat agree\,\Somewhat agree\,\3\,1.69824E+12,1.69824E+12,8267,8267,17270,buq,qns-item-noham,72,1936110,0.0-1.0-0.71
<b>I have had some false beliefs.,Highly disagree,73/150,Somewhat agree,3,1.69824E+12,1.69824E+12,\Somewhat agree\,\Somewhat agree\,\3\,1.69824E+12,1.69824E+12,8632,8632,14235,buq,qns-item-noham,73,1950348,0.0-1.0-0.72
"<b>If one friend does something that upsets me, I sometimes start to distrust people in general.",Highly disagree,74/150,Somewhat agree,3,1.69824E+12,1.69824E+12,\Somewhat agree\,\Somewhat agree\,\3\,1.69824E+12,1.69824E+12,20493,20493,25228,buq,qns-item-noham,74,1975578,0.0-1.0-0.73
<b>I easily apply what I learn in one situation to another.,Highly disagree,75/150,Somewhat disagree,2,1.69824E+12,1.69824E+12,\Somewhat disagree\,\Somewhat disagree\,\2\,1.69824E+12,1.69824E+12,15947,15947,22523,buq,qns-item-noham,75,1998103,0.0-1.0-0.74
<b>The facts about most important matters are easy to find.,Highly disagree,76/150,Somewhat disagree,2,1.69824E+12,1.69824E+12,\Somewhat disagree\,\Somewhat disagree\,\2\,1.69824E+12,1.69824E+12,13758,13758,22007,buq,qns-item-noham,76,2020112,0.0-1.0-0.75
<b>It?s better to know what?s true than to know what?s moral.,Highly disagree,77/150,Somewhat disagree,2,1.69824E+12,1.69824E+12,\Somewhat disagree\,\Somewhat disagree\,\2\,1.69824E+12,1.69824E+12,22071,22071,32575,buq,qns-item-noham,77,2052690,0.0-1.0-0.76
<b>It?s good to be skeptical of people you agree with.,Highly disagree,78/150,Somewhat agree,3,1.69824E+12,1.69824E+12,\Somewhat agree\,\Somewhat agree\,\3\,1.69824E+12,1.69824E+12,14936,14936,30029,buq,qns-item-noham,78,2082721,0.0-1.0-0.77
<b>Sometimes reasonable beliefs are wrong.,Highly disagree,79/150,Somewhat agree,3,1.69824E+12,1.69824E+12,\Somewhat agree\,\Somewhat agree\,\3\,1.69824E+12,1.69824E+12,12996,12996,21412,buq,qns-item-noham,79,2104135,0.0-1.0-0.78
<b>I used to think the world was less complicated than I do now.,Highly disagree,80/150,Highly disagree,1,1.69824E+12,1.69824E+12,\Highly disagree\,\Highly disagree\,\1\,1.69824E+12,1.69824E+12,14329,14329,21911,buq,qns-item-noham,80,2126048,0.0-1.0-0.79
<b>People are usually completely right or completely wrong.,Highly disagree,81/150,Highly agree,4,1.69824E+12,1.69824E+12,\Highly agree\,\Highly agree\,\4\,1.69824E+12,1.69824E+12,10705,10705,19488,buq,qns-item-noham,81,2145538,0.0-1.0-0.80
<b>I spend a lot of time considering alternatives to my beliefs.,Highly disagree,82/150,Somewhat disagree,2,1.69824E+12,1.69824E+12,\Somewhat disagree\,\Somewhat disagree\,\2\,1.69824E+12,1.69824E+12,9523,9523,18561,buq,qns-item-noham,82,2164101,0.0-1.0-0.81
"<b>Political enemies need to be defeated, not convinced.",Highly disagree,83/150,Highly disagree,1,1.69824E+12,1.69824E+12,\Highly disagree\,\Highly disagree\,\1\,1.69824E+12,1.69824E+12,14654,14654,22098,buq,qns-item-noham,83,2186201,0.0-1.0-0.82
"<b>When forming an opinion about a restaurant, I am more swayed by my  latest meal there than  previous meals I?ve had there.",Highly disagree,84/150,Somewhat agree,3,1.69824E+12,1.69824E+12,\Somewhat agree\,\Somewhat agree\,\3\,1.69824E+12,1.69824E+12,14216,14216,16912,buq,qns-item-noham,84,2203115,0.0-1.0-0.83
<b>I try to remain skeptical about most topics.,Highly disagree,85/150,Somewhat agree,3,1.69824E+12,1.69824E+12,\Somewhat agree\,\Somewhat agree\,\3\,1.69824E+12,1.69824E+12,15047,15047,17012,buq,qns-item-noham,85,2220130,0.0-1.0-0.84
<b>Being wrong is usually obvious in retrospect.,Highly disagree,86/150,Somewhat disagree,2,1.69824E+12,1.69824E+12,\Somewhat disagree\,\Somewhat disagree\,\2\,1.69824E+12,1.69824E+12,19212,19212,22909,buq,qns-item-noham,86,2243041,0.0-1.0-0.85
<b>It can be hard to realize that my beliefs are in conflict.,Highly disagree,87/150,Somewhat disagree,2,1.69824E+12,1.69824E+12,\Somewhat disagree\,\Somewhat disagree\,\2\,1.69824E+12,1.69824E+12,13968,13968,18544,buq,qns-item-noham,87,2261589,0.0-1.0-0.86
<b>I form my political views only after meticulously gathering historical and present information about their policies.,Highly disagree,88/150,Highly agree,4,1.69824E+12,1.69824E+12,\Highly agree\,\Highly agree\,\4\,1.69824E+12,1.69824E+12,13612,13612,17326,buq,qns-item-noham,88,2278917,0.0-1.0-0.87
<b>Skeptical people are usually just bad-tempered.,Highly disagree,89/150,Somewhat disagree,2,1.69824E+12,1.69824E+12,\Somewhat disagree\,\Somewhat disagree\,\2\,1.69824E+12,1.69824E+12,8427,8427,11523,buq,qns-item-noham,89,2290443,0.0-1.0-0.88
<b>It is difficult for me to remember the last time I was surprised by politics.,Highly disagree,90/150,Somewhat agree,3,1.69824E+12,1.69824E+12,\Somewhat agree\,\Somewhat agree\,\3\,1.69824E+12,1.69824E+12,10348,10348,15022,buq,qns-item-noham,90,2305467,0.0-1.0-0.89
"<b>When I find out I?m wrong, I think a lot about my related beliefs.",Highly disagree,91/150,Highly disagree,1,1.69824E+12,1.69824E+12,\Highly disagree\,\Highly disagree\,\1\,1.69824E+12,1.69824E+12,9129,9129,15825,buq,qns-item-noham,91,2321294,0.0-1.0-0.90
"<b>If the political party I support messes up, it makes me think you can?t trust anyone these days",Highly disagree,92/150,Somewhat agree,3,1.69824E+12,1.69824E+12,\Somewhat agree\,\Somewhat agree\,\3\,1.69824E+12,1.69824E+12,10023,10023,15968,buq,qns-item-noham,92,2337265,0.0-1.0-0.91
<b>People?s brains turn off when they talk about politics.,Highly disagree,93/150,Highly agree,4,1.69824E+12,1.69824E+12,\Highly agree\,\Highly agree\,\4\,1.69824E+12,1.69824E+12,15156,15156,20356,buq,qns-item-noham,93,2357624,0.0-1.0-0.92
<b>People who are wrong are usually just ignoring the obvious.,Highly disagree,94/150,Somewhat agree,3,1.69824E+12,1.69824E+12,\Somewhat agree\,\Somewhat agree\,\3\,1.69824E+12,1.69824E+12,11968,11968,17538,buq,qns-item-noham,94,2375164,0.0-1.0-0.93
"<b>The world isn?t that complicated, but it?s still hard to figure out how it works.",Highly disagree,95/150,Somewhat disagree,2,1.69824E+12,1.69824E+12,\Somewhat disagree\,\Somewhat disagree\,\2\,1.69824E+12,1.69824E+12,8849,8849,19372,buq,qns-item-noham,95,2394539,0.0-1.0-0.94
"<b>When forming my views on people, I rely more on what they are like now rather than rely on my past experience with them.",Highly disagree,96/150,Somewhat agree,3,1.69824E+12,1.69824E+12,\Somewhat agree\,\Somewhat agree\,\3\,1.69824E+12,1.69824E+12,19172,19172,27833,buq,qns-item-noham,96,2422374,0.0-1.0-0.95
"<b>When people contradict my beliefs, I usually know about their evidence already.",Highly disagree,97/150,Somewhat disagree,2,1.69824E+12,1.69825E+12,\Somewhat disagree\,\Somewhat disagree\,\2\,1.69824E+12,1.69824E+12,37463,37463,39603,buq,qns-item-noham,97,2461979,0.0-1.0-0.96
<b>Being wrong is a matter of degree.,Highly disagree,98/150,Highly disagree,1,1.69825E+12,1.69825E+12,\Highly disagree\,\Highly disagree\,\1\,1.69825E+12,1.69825E+12,12991,12991,18274,buq,qns-item-noham,98,2480255,0.0-1.0-0.97
<b>Figuring out what?s true and what?s false mainly requires a strong moral compass.,Highly disagree,99/150,Highly agree,4,1.69825E+12,1.69825E+12,\Highly agree\,\Highly agree\,\4\,1.69825E+12,1.69825E+12,10415,10415,16795,buq,qns-item-noham,99,2497052,0.0-1.0-0.98
<b>Most of the beliefs people have are at least somewhat understandable.,Highly disagree,100/150,Somewhat disagree,2,1.69825E+12,1.69825E+12,\Somewhat disagree\,\Somewhat disagree\,\2\,1.69825E+12,1.69825E+12,9787,9787,15628,buq,qns-item-noham,100,2512682,0.0-1.0-0.99
"<b>Usually I?m wrong about simple things, not complicated ones.",Highly disagree,101/150,Somewhat disagree,2,1.69825E+12,1.69825E+12,\Somewhat disagree\,\Somewhat disagree\,\2\,1.69825E+12,1.69825E+12,13802,13802,19495,buq,qns-item-noham,101,2532179,0.0-1.0-0.100
<b>Getting all the information I want about important things is hard.,Highly disagree,102/150,Somewhat agree,3,1.69825E+12,1.69825E+12,\Somewhat agree\,\Somewhat agree\,\3\,1.69825E+12,1.69825E+12,9269,9269,16159,buq,qns-item-noham,102,2548341,0.0-1.0-0.101
<b>Most false beliefs spread because people try to deceive one another.,Highly disagree,103/150,Highly agree,4,1.69825E+12,1.69825E+12,\Highly agree\,\Highly agree\,\4\,1.69825E+12,1.69825E+12,11234,11234,18356,buq,qns-item-noham,103,2566699,0.0-1.0-0.102
<b>I can usually find something to agree with in most people?s beliefs.,Highly disagree,104/150,Somewhat agree,3,1.69825E+12,1.69825E+12,\Somewhat agree\,\Somewhat agree\,\3\,1.69825E+12,1.69825E+12,9077,9077,20565,buq,qns-item-noham,104,2587267,0.0-1.0-0.103
<b>I only form my views of people once I get to know them very well.,Highly disagree,105/150,Somewhat agree,3,1.69825E+12,1.69825E+12,\Somewhat agree\,\Somewhat agree\,\3\,1.69825E+12,1.69825E+12,21839,21839,25718,buq,qns-item-noham,105,2612988,0.0-1.0-0.104
"<b>When people tell me important things about the world, I usually believe them.",Highly disagree,106/150,Somewhat agree,3,1.69825E+12,1.69825E+12,\Somewhat agree\,\Somewhat agree\,\3\,1.69825E+12,1.69825E+12,16415,16415,22864,buq,qns-item-noham,106,2635854,0.0-1.0-0.105
"<b>If a friend does something that upsets me, it reminds me what an unpredictable place the world is.",Highly disagree,107/150,Somewhat agree,3,1.69825E+12,1.69825E+12,\Somewhat agree\,\Somewhat agree\,\3\,1.69825E+12,1.69825E+12,21482,21482,24546,buq,qns-item-noham,107,2660402,0.0-1.0-0.106
<b>Having some conflicting beliefs is inevitable.,Highly disagree,108/150,Highly agree,4,1.69825E+12,1.69825E+12,\Highly agree\,\Highly agree\,\4\,1.69825E+12,1.69825E+12,9460,9460,14166,buq,qns-item-noham,108,2674570,0.0-1.0-0.107
<b>People are wrong because they haven?t thought much about things.,Highly disagree,109/150,Somewhat agree,3,1.69825E+12,1.69825E+12,\Somewhat agree\,\Somewhat agree\,\3\,1.69825E+12,1.69825E+12,12415,12415,18082,buq,qns-item-noham,109,2692654,0.0-1.0-0.108
<b>People tend to believe whatever is good for their friends.,Highly disagree,110/150,Highly agree,4,1.69825E+12,1.69825E+12,\Highly agree\,\Highly agree\,\4\,1.69825E+12,1.69825E+12,14264,14264,25601,buq,qns-item-noham,110,2718257,0.0-1.0-0.109
"<b>When I talk about important topics, I try to make sure people know I?m not always right.",Highly disagree,111/150,Somewhat disagree,2,1.69825E+12,1.69825E+12,\Somewhat disagree\,\Somewhat disagree\,\2\,1.69825E+12,1.69825E+12,12943,12943,19698,buq,qns-item-noham,111,2737957,0.0-1.0-0.110
<b>I used to be more certain my beliefs were true.,Highly disagree,112/150,Somewhat agree,3,1.69825E+12,1.69825E+12,\Somewhat agree\,\Somewhat agree\,\3\,1.69825E+12,1.69825E+12,11146,11146,18857,buq,qns-item-noham,112,2756816,0.0-1.0-0.111
<b>It?s often pretty easy to figure out whether something is true based on who said it.,Highly disagree,113/150,Somewhat agree,3,1.69825E+12,1.69825E+12,\Somewhat agree\,\Somewhat agree\,\3\,1.69825E+12,1.69825E+12,25132,25132,29579,buq,qns-item-noham,113,2786397,0.0-1.0-0.112
<b>Having bad food in my favorite restaurant will make me think the restaurant is no longer good.,Highly disagree,114/150,Highly agree,4,1.69825E+12,1.69825E+12,\Highly agree\,\Highly agree\,\4\,1.69825E+12,1.69825E+12,19873,19873,25293,buq,qns-item-noham,114,2811693,0.0-1.0-0.113
<b>I transform into a hummingbird every day.,Highly disagree,115/150,Highly disagree,1,1.69825E+12,1.69825E+12,\Highly disagree\,\Highly disagree\,\1\,1.69825E+12,1.69825E+12,11472,11472,17965,buq,qns-item-noham,115,2829660,0.0-1.0-0.114
"<b>Unfortunately, when people are wrong, it?s usually because they?re bad.",Highly disagree,116/150,Somewhat disagree,2,1.69825E+12,1.69825E+12,\Somewhat disagree\,\Somewhat disagree\,\2\,1.69825E+12,1.69825E+12,12826,12826,19046,buq,qns-item-noham,116,2848708,0.0-1.0-0.115
<b>I think a lot about arguments against my views.,Highly disagree,117/150,Highly disagree,1,1.69825E+12,1.69825E+12,\Highly disagree\,\Highly disagree\,\1\,1.69825E+12,1.69825E+12,17617,17617,23879,buq,qns-item-noham,117,2872589,0.0-1.0-0.116
<b>Details tend to matter a lot for knowing whether a policy is good.,Highly disagree,118/150,Highly agree,4,1.69825E+12,1.69825E+12,\Highly agree\,\Highly agree\,\4\,1.69825E+12,1.69825E+12,16502,16502,22755,buq,qns-item-noham,118,2895346,0.0-1.0-0.117
<b>Personal experience is usually more important than facts and figures.,Highly disagree,119/150,Somewhat agree,3,1.69825E+12,1.69825E+12,\Somewhat agree\,\Somewhat agree\,\3\,1.69825E+12,1.69825E+12,16782,16782,30765,buq,qns-item-noham,119,2926114,0.0-1.0-0.118
<b>I?ve been tricked before about important matters.,Highly disagree,120/150,Somewhat disagree,2,1.69825E+12,1.69825E+12,\Somewhat disagree\,\Somewhat disagree\,\2\,1.69825E+12,1.69825E+12,17524,17524,22560,buq,qns-item-noham,120,2948677,0.0-1.0-0.119
<b>I would need to be totally wowed if I were to change my opinion of a restaurant I don?t like.,Highly disagree,121/150,Highly agree,4,1.69825E+12,1.69825E+12,\Highly agree\,\Highly agree\,\4\,1.69825E+12,1.69825E+12,13624,13624,23274,buq,qns-item-noham,121,2971953,0.0-1.0-0.120
<b>I care a lot about politics.,Highly disagree,122/150,Highly disagree,1,1.69825E+12,1.69825E+12,\Highly disagree\,\Highly disagree\,\1\,1.69825E+12,1.69825E+12,16718,16718,22965,buq,qns-item-noham,122,2994921,0.0-1.0-0.121
<b>People with conflicting beliefs usually have some facts they disagree on.,Highly disagree,123/150,Somewhat agree,3,1.69825E+12,1.69825E+12,\Somewhat agree\,\Somewhat agree\,\3\,1.69825E+12,1.69825E+12,16131,16131,21737,buq,qns-item-noham,123,3016660,0.0-1.0-0.122
<b>There are some topics I?ve been really wrong about.,Highly disagree,124/150,Somewhat disagree,2,1.69825E+12,1.69825E+12,\Somewhat disagree\,\Somewhat disagree\,\2\,1.69825E+12,1.69825E+12,11235,11235,16801,buq,qns-item-noham,124,3033463,0.0-1.0-0.123
<b>Most beliefs can be supported with at least some evidence.,Highly disagree,125/150,Somewhat agree,3,1.69825E+12,1.69825E+12,\Somewhat agree\,\Somewhat agree\,\3\,1.69825E+12,1.69825E+12,15348,15348,24803,buq,qns-item-noham,125,3058268,0.0-1.0-0.124
<b>Other people make life out to be more complicated than it really is.,Highly disagree,126/150,Highly agree,4,1.69825E+12,1.69825E+12,\Highly agree\,\Highly agree\,\4\,1.69825E+12,1.69825E+12,14061,14061,20238,buq,qns-item-noham,126,3078510,0.0-1.0-0.125
"<b>My political views are being shaped continuously as I gather more information, rather than relying on what I?ve known to be true of my party in the past. ",Highly disagree,127/150,Somewhat agree,3,1.69825E+12,1.69825E+12,\Somewhat agree\,\Somewhat agree\,\3\,1.69825E+12,1.69825E+12,16341,16341,22105,buq,qns-item-noham,127,3100617,0.0-1.0-0.126
<b>It?s pretty unusual for true things to seem false.,Highly disagree,128/150,Somewhat disagree,2,1.69825E+12,1.69825E+12,\Somewhat disagree\,\Somewhat disagree\,\2\,1.69825E+12,1.69825E+12,7959,7959,16726,buq,qns-item-noham,128,3117346,0.0-1.0-0.127
"<b>Policy details don?t matter much, just the big picture.",Highly disagree,129/150,Somewhat agree,3,1.69825E+12,1.69825E+12,\Somewhat agree\,\Somewhat agree\,\3\,1.69825E+12,1.69825E+12,22767,22767,27241,buq,qns-item-noham,129,3144589,0.0-1.0-0.128
<b>I know my friends so well they can hardly ever surprise me.,Highly disagree,130/150,Somewhat disagree,2,1.69825E+12,1.69825E+12,\Somewhat disagree\,\Somewhat disagree\,\2\,1.69825E+12,1.69825E+12,15261,15261,20680,buq,qns-item-noham,130,3165271,0.0-1.0-0.129
"<b>When I talk to people, I often think about why they have the beliefs they do.",Highly disagree,131/150,Somewhat agree,3,1.69825E+12,1.69825E+12,\Somewhat agree\,\Somewhat agree\,\3\,1.69825E+12,1.69825E+12,18943,18943,26034,buq,qns-item-noham,131,3191307,0.0-1.0-0.130
<b>I do not often change my views on people.,Highly disagree,132/150,Somewhat disagree,2,1.69825E+12,1.69825E+12,\Somewhat disagree\,\Somewhat disagree\,\2\,1.69825E+12,1.69825E+12,9553,9553,18017,buq,qns-item-noham,132,3209326,0.0-1.0-0.131
<b>I often wish I had more time to spend figuring out what?s true and what?s false in life.,Highly disagree,133/150,Somewhat agree,3,1.69825E+12,1.69825E+12,\Somewhat agree\,\Somewhat agree\,\3\,1.69825E+12,1.69825E+12,19054,19054,26565,buq,qns-item-noham,133,3235894,0.0-1.0-0.132
<b>I?m more certain about my beliefs than I used to be.,Highly disagree,134/150,Somewhat agree,3,1.69825E+12,1.69825E+12,\Somewhat agree\,\Somewhat agree\,\3\,1.69825E+12,1.69825E+12,22646,22646,28026,buq,qns-item-noham,134,3263923,0.0-1.0-0.133
"<b>Whenever I find out new information, I update my views on politics accordingly.",Highly disagree,135/150,Somewhat agree,3,1.69825E+12,1.69825E+12,\Somewhat agree\,\Somewhat agree\,\3\,1.69825E+12,1.69825E+12,29988,29988,35201,buq,qns-item-noham,135,3299126,0.0-1.0-0.134
<b>People often tell falsehoods unintentionally.,Highly disagree,136/150,Somewhat disagree,2,1.69825E+12,1.69825E+12,\Somewhat disagree\,\Somewhat disagree\,\2\,1.69825E+12,1.69825E+12,38498,38498,45323,buq,qns-item-noham,136,3344452,0.0-1.0-0.135
<b>Most people don?t know much about most things.,Highly disagree,137/150,Highly agree,4,1.69825E+12,1.69825E+12,\Highly agree\,\Highly agree\,\4\,1.69825E+12,1.69825E+12,30536,30536,40343,buq,qns-item-noham,137,3384797,0.0-1.0-0.136
"<b>If I find out something new about someone, I easily change my views about them.",Highly disagree,138/150,Somewhat agree,3,1.69825E+12,1.69825E+12,\Somewhat agree\,\Somewhat agree\,\3\,1.69825E+12,1.69825E+12,19009,19009,28665,buq,qns-item-noham,138,3413464,0.0-1.0-0.137
<b>Having true beliefs is difficult.,Highly disagree,139/150,Somewhat disagree,2,1.69825E+12,1.69825E+12,\Somewhat disagree\,\Somewhat disagree\,\2\,1.69825E+12,1.69825E+12,10570,10570,20180,buq,qns-item-noham,139,3433646,0.0-1.0-0.138
<b>I don?t try new foods since I know I won?t like them.,Highly disagree,140/150,Somewhat agree,3,1.69825E+12,1.69825E+12,\Somewhat agree\,\Somewhat agree\,\3\,1.69825E+12,1.69825E+12,18815,18815,32649,buq,qns-item-noham,140,3466297,0.0-1.0-0.139
<b>It?s easy to figure out what?s true or false based on who?s saying it.,Highly disagree,141/150,Somewhat disagree,2,1.69825E+12,1.69825E+12,\Somewhat disagree\,\Somewhat disagree\,\2\,1.69825E+12,1.69825E+12,17076,17076,31508,buq,qns-item-noham,141,3497807,0.0-1.0-0.140
<b>False things have seemed true to me many times.,Highly disagree,142/150,Somewhat agree,3,1.69825E+12,1.69825E+12,\Somewhat agree\,\Somewhat agree\,\3\,1.69825E+12,1.69825E+12,10805,10805,22413,buq,qns-item-noham,142,3520223,0.0-1.0-0.141
<b>It?s pretty easy to sort out what?s true and what?s false in life.,Highly disagree,143/150,Somewhat disagree,2,1.69825E+12,1.69825E+12,\Somewhat disagree\,\Somewhat disagree\,\2\,1.69825E+12,1.69825E+12,23146,23146,33541,buq,qns-item-noham,143,3553767,0.0-1.0-0.142
<b>Knowing lots of statistics about something is usually important for understanding it.,Highly disagree,144/150,Highly agree,4,1.69825E+12,1.69825E+12,\Highly agree\,\Highly agree\,\4\,1.69825E+12,1.69825E+12,16690,16690,24986,buq,qns-item-noham,144,3578755,0.0-1.0-0.143
<b>Other people trick each other a lot.,Highly disagree,145/150,Somewhat agree,3,1.69825E+12,1.69825E+12,\Somewhat agree\,\Somewhat agree\,\3\,1.69825E+12,1.69825E+12,15098,15098,22214,buq,qns-item-noham,145,3600971,0.0-1.0-0.144
<b>I would need to learn a lot about a person for my opinion of them to be swayed.,Highly disagree,146/150,Somewhat disagree,2,1.69825E+12,1.69825E+12,\Somewhat disagree\,\Somewhat disagree\,\2\,1.69825E+12,1.69825E+12,10944,10944,28002,buq,qns-item-noham,146,3628975,0.0-1.0-0.145
<b>People can?t usually trick me when it comes to topics I care about.,Highly disagree,147/150,Somewhat agree,3,1.69825E+12,1.69825E+12,\Somewhat agree\,\Somewhat agree\,\3\,1.69825E+12,1.69825E+12,12268,12268,29462,buq,qns-item-noham,147,3658439,0.0-1.0-0.146
<b>I do not often change my views on food.,Highly disagree,148/150,Somewhat disagree,2,1.69825E+12,1.69825E+12,\Somewhat disagree\,\Somewhat disagree\,\2\,1.69825E+12,1.69825E+12,21151,21151,29225,buq,qns-item-noham,148,3687667,0.0-1.0-0.147
<b>Specific policies are often very important to me.,Highly disagree,149/150,Somewhat agree,3,1.69825E+12,1.69825E+12,\Somewhat agree\,\Somewhat agree\,\3\,1.69825E+12,1.69825E+12,14208,14208,37595,buq,qns-item-noham,149,3725264,0.0-1.0-0.148
<b>Most people are woefully under-informed.,Highly disagree,150/150,Highly agree,4,1.69825E+12,1.69825E+12,\Highly agree\,\Highly agree\,\4\,1.69825E+12,1.69825E+12,22395,22395,34478,buq,qns-item-noham,150,3759744,0.0-1.0-0.149