Question,qns_options,quest_num,answer,answer_num,question_load_timestamp,next_btn_timestamp,text_selected,final_text_selected,option_num_selected,preview_timestamps,final_text_selected_time_stamp,rt_first_option_click,rt_final_option_click,rt_submit_click,questionnaire,trial_type,trial_index,time_elapsed,internal_node_id
<b>Considering other people?s perspectives can help us figure out what?s true or false.,Highly disagree,1/150,Highly agree,4,1697749120509,1697749125996,\Highly agree\,\Highly agree\,\4\,1697749124471,1697749124471,3962,3962,5487,buq,qns-item-noham,1,21445,0.0-1.0-0.0
<b>Knowing what?s true and knowing what to do about it are usually basically the same.,Highly disagree,2/150,Somewhat agree,3,1697749125998,1697749135210,\Highly agree\,\Somewhat agree\,\4\,1697749133334,1697749134338,7336,8340,9212,buq,qns-item-noham,2,30659,0.0-1.0-0.1
<b>Most people just believe whatever is convenient for them.,Highly disagree,3/150,Highly agree,4,1697749135211,1697749138647,\Highly agree\,\Highly agree\,\4\,1697749137239,1697749137239,2028,2028,3436,buq,qns-item-noham,3,34096,0.0-1.0-0.2
<b>Even people who are wrong about most things can be right sometimes.,Highly disagree,4/150,Somewhat agree,3,1697749138648,1697749141591,\Somewhat agree\,\Somewhat agree\,\3\,1697749140904,1697749140904,2256,2256,2943,buq,qns-item-noham,4,37040,0.0-1.0-0.3
"<b>If the political party I support does something that upsets me, then the party may have changed, and I need to re-evaluate my support.",Highly disagree,5/150,Highly agree,4,1697749141592,1697749147656,\Highly agree\,\Highly agree\,\4\,1697749146238,1697749146238,4646,4646,6064,buq,qns-item-noham,5,43105,0.0-1.0-0.4
"<b>When people disagree, one side is usually completely right.",Highly disagree,6/150,Somewhat disagree,2,1697749147657,1697749151841,\Somewhat disagree\,\Somewhat disagree\,\2\,1697749150803,1697749150803,3146,3146,4184,buq,qns-item-noham,6,47291,0.0-1.0-0.5
<b>People have lots of false beliefs.,Highly disagree,7/150,Highly agree,4,1697749151842,1697749154808,\Highly agree\,\Highly agree\,\4\,1697749154052,1697749154052,2210,2210,2966,buq,qns-item-noham,7,50257,0.0-1.0-0.6
<b>Having some big beliefs helps me sort out minor ones.,Highly disagree,8/150,Somewhat agree,3,1697749154809,1697749159330,\Somewhat agree\,\Somewhat agree\,\3\,1697749158434,1697749158434,3625,3625,4521,buq,qns-item-noham,8,54779,0.0-1.0-0.7
<b>Political questions are usually pretty complicated.,Highly disagree,9/150,Highly agree,4,1697749159331,1697749162675,\Highly agree\,\Highly agree\,\4\,1697749161858,1697749161858,2527,2527,3344,buq,qns-item-noham,9,58124,0.0-1.0-0.8
<b>Figuring out what?s important in life requires learning a lot of facts.,Highly disagree,10/150,Highly agree,4,1697749162676,1697749166127,\Highly agree\,\Highly agree\,\4\,1697749165331,1697749165331,2655,2655,3451,buq,qns-item-noham,10,61576,0.0-1.0-0.9
<b>It is difficult for me to remember the last time I was surprised by politics.,Highly disagree,11/150,Highly agree,4,1697749166128,1697749173034,\Highly agree\,\Highly agree\,\4\,1697749169065,1697749169065,2937,2937,6906,buq,qns-item-noham,11,68484,0.0-1.0-0.10
<b>People?s false beliefs are understandable.,Highly disagree,12/150,Somewhat agree,3,1697749173036,1697749175574,\Somewhat agree\,\Somewhat agree\,\3\,1697749174861,1697749174861,1825,1825,2538,buq,qns-item-noham,12,71023,0.0-1.0-0.11
<b>I spend a lot of time trying to be informed about politics.,Highly disagree,13/150,Somewhat disagree,2,1697749175575,1697749179025,\Somewhat agree\,\Somewhat disagree\,\3\,1697749177300,1697749177859,1725,2284,3450,buq,qns-item-noham,13,74474,0.0-1.0-0.12
<b>I think a lot about whether my beliefs are right.,Highly disagree,14/150,Somewhat agree,3,1697749179026,1697749181156,\Somewhat agree\,\Somewhat agree\,\3\,1697749180445,1697749180445,1419,1419,2130,buq,qns-item-noham,14,76605,0.0-1.0-0.13
<b>Statistics can be pretty misleading sometimes.,Highly disagree,15/150,Somewhat agree,3,1697749181157,1697749187401,\Somewhat agree\,\Somewhat agree\,\3\,1697749186364,1697749186364,5207,5207,6244,buq,qns-item-noham,15,82850,0.0-1.0-0.14
<b>Figuring out what?s true and what?s false takes a lot of time and effort.,Highly disagree,16/150,Highly agree,4,1697749187402,1697749199467,\Highly agree\,\Highly agree\,\4\,1697749198637,1697749198637,11235,11235,12065,buq,qns-item-noham,16,94916,0.0-1.0-0.15
"<b>If a friend does something bad to me, it was likely an error on their part.",Highly disagree,17/150,Somewhat agree,3,1697749199468,1697749204963,\Somewhat agree\,\Somewhat agree\,\3\,1697749202442,1697749202442,2974,2974,5495,buq,qns-item-noham,17,100412,0.0-1.0-0.16
<b>I have lots of beliefs that I?m only sort of sure about.,Highly disagree,18/150,Highly agree,4,1697749204963,1697749209187,\Highly agree\,\Highly agree\,\4\,1697749208474,1697749208474,3511,3511,4224,buq,qns-item-noham,18,104636,0.0-1.0-0.17
"<b>If I go to my favorite restaurant and the food is surprisingly bad, it reminds me there are many disappointments in life.",Highly disagree,19/150,Somewhat agree,3,1697749209188,1697749212708,\Somewhat agree\,\Somewhat agree\,\3\,1697749211957,1697749211957,2769,2769,3520,buq,qns-item-noham,19,108157,0.0-1.0-0.18
<b>Sometimes my beliefs are inconvenient for me.,Highly disagree,20/150,Somewhat agree,3,1697749212708,1697749215511,\Somewhat agree\,\Somewhat agree\,\3\,1697749214825,1697749214825,2117,2117,2803,buq,qns-item-noham,20,110960,0.0-1.0-0.19
<b>Paying attention to multiple news sources is important.,Highly disagree,21/150,Highly agree,4,1697749215512,1697749217852,\Highly agree\,\Highly agree\,\4\,1697749217164,1697749217164,1652,1652,2340,buq,qns-item-noham,21,113301,0.0-1.0-0.20
"<b>If you are paying attention, please select ?Somewhat agree?",Highly disagree,22/150,Somewhat agree,3,1697749217853,1697749220154,\Somewhat agree\,\Somewhat agree\,\3\,1697749219119,1697749219119,1266,1266,2301,buq,qns-item-noham,22,115603,0.0-1.0-0.21
"<b>When I talk to others, I often worry I?ll convince them of something I didn?t mean to.",Highly disagree,23/150,Highly disagree,1,1697749220154,1697749226450,\Highly disagree\,\Highly disagree\,\1\,1697749225713,1697749225713,5559,5559,6296,buq,qns-item-noham,23,121899,0.0-1.0-0.22
<b>I would need to learn something utterly shocking about my party in order to change my political views.,Highly disagree,24/150,Somewhat agree,3,1697749226451,1697749232247,\Somewhat agree\,\Somewhat agree\,\3\,1697749229036,1697749229036,2585,2585,5796,buq,qns-item-noham,24,127696,0.0-1.0-0.23
"<b>When I have new experiences, I tend to think of them as unique.",Highly disagree,25/150,Highly agree,4,1697749232247,1697749236318,\Highly agree\,\Highly agree\,\4\,1697749235632,1697749235632,3385,3385,4071,buq,qns-item-noham,25,131767,0.0-1.0-0.24
<b>Reading lots of things is important for understanding the world.,Highly disagree,26/150,Highly agree,4,1697749236319,1697749245486,\Highly agree\,\Highly agree\,\4\,1697749244645,1697749244645,8326,8326,9167,buq,qns-item-noham,26,140935,0.0-1.0-0.25
<b>The world is complicated.,Highly disagree,27/150,Highly agree,4,1697749245486,1697749247545,\Highly agree\,\Highly agree\,\4\,1697749246870,1697749246870,1384,1384,2059,buq,qns-item-noham,27,142994,0.0-1.0-0.26
<b>I change my mind about specific policies pretty frequently.,Highly disagree,28/150,Somewhat disagree,2,1697749247546,1697749250078,\Somewhat disagree\,\Somewhat disagree\,\2\,1697749249500,1697749249500,1954,1954,2532,buq,qns-item-noham,28,145527,0.0-1.0-0.27
"<b>If a politician in my political party supports something I disagree with, I give them the benefit of the doubt, as such issues often involve hidden complexities that aren?t obvious.   ",Highly disagree,29/150,Somewhat agree,3,1697749250078,1697749256273,\Somewhat agree\,\Somewhat agree\,\3\,1697749255159,1697749255159,5081,5081,6195,buq,qns-item-noham,29,151722,0.0-1.0-0.28
<b>People?s bad politics are usually motivated by hatefulness.,Highly disagree,30/150,Highly agree,4,1697749256273,1697749259317,\Highly agree\,\Highly agree\,\4\,1697749258403,1697749258403,2130,2130,3044,buq,qns-item-noham,30,154766,0.0-1.0-0.29
"<b>Most new experiences are just like old ones, but a little bit different.",Highly disagree,31/150,Somewhat agree,3,1697749259318,1697749262479,\Somewhat agree\,\Somewhat agree\,\3\,1697749261724,1697749261724,2406,2406,3161,buq,qns-item-noham,31,157928,0.0-1.0-0.30
<b>I think a lot about how to reconcile my beliefs with one another.,Highly disagree,32/150,Highly disagree,1,1697749262480,1697749273031,\Highly disagree\,\Highly disagree\,\1\,1697749271987,1697749271987,9507,9507,10551,buq,qns-item-noham,32,168480,0.0-1.0-0.31
<b>Personal experience rarely leads people astray.,Highly disagree,33/150,Somewhat disagree,2,1697749273032,1697749276657,\Somewhat disagree\,\Somewhat disagree\,\2\,1697749276081,1697749276081,3049,3049,3625,buq,qns-item-noham,33,172106,0.0-1.0-0.32
<b>I might have false beliefs about important topics.,Highly disagree,34/150,Somewhat agree,3,1697749276658,1697749279076,\Somewhat agree\,\Somewhat agree\,\3\,1697749278498,1697749278498,1840,1840,2418,buq,qns-item-noham,34,174525,0.0-1.0-0.33
"<b>If a good friend of mine does something unexpected that upsets me, I feel like I don?t know them anymore.",Highly disagree,35/150,Somewhat agree,3,1697749279076,1697749283340,\Somewhat agree\,\Somewhat agree\,\3\,1697749282764,1697749282764,3688,3688,4264,buq,qns-item-noham,35,178789,0.0-1.0-0.34
<b>Other people?s beliefs are often incoherent.,Highly disagree,36/150,Highly disagree,1,1697749283340,1697749286468,\Highly disagree\,\Highly disagree\,\1\,1697749285653,1697749285653,2313,2313,3128,buq,qns-item-noham,36,181917,0.0-1.0-0.35
<b>It?s important to have friends who think about things differently than I do.,Highly disagree,37/150,Somewhat agree,3,1697749286468,1697749290857,\Somewhat agree\,\Somewhat agree\,\3\,1697749288348,1697749288348,1880,1880,4389,buq,qns-item-noham,37,186306,0.0-1.0-0.36
"<b>Every now and then, a new experience will unsettle beliefs I?ve had for a while.",Highly disagree,38/150,Highly agree,4,1697749290857,1697749293857,\Highly agree\,\Highly agree\,\4\,1697749293196,1697749293196,2339,2339,3000,buq,qns-item-noham,38,189306,0.0-1.0-0.37
<b>Some policies I agree with in principle are so bad I don?t support them. ,Highly disagree,39/150,Somewhat agree,3,1697749293857,1697749300865,\Somewhat agree\,\Somewhat agree\,\3\,1697749300118,1697749300118,6261,6261,7008,buq,qns-item-noham,39,196314,0.0-1.0-0.38
<b>I?m pretty sure I?ve accidentally spread false information.,Highly disagree,40/150,Somewhat agree,3,1697749300866,1697749304168,\Somewhat agree\,\Somewhat agree\,\3\,1697749303217,1697749303217,2351,2351,3302,buq,qns-item-noham,40,199617,0.0-1.0-0.39
"<b>If I go to my favorite restaurant and the food is unexpectedly bad, then they have changed owners.",Highly disagree,41/150,Somewhat disagree,2,1697749304170,1697749308197,\Somewhat disagree\,\Somewhat disagree\,\2\,1697749307487,1697749307487,3317,3317,4027,buq,qns-item-noham,41,203646,0.0-1.0-0.40
"<b>In politics, it?s important to trust your friends and family.",Highly disagree,42/150,Somewhat agree,3,1697749308199,1697749311731,\Somewhat agree\,\Somewhat agree\,\3\,1697749311142,1697749311142,2943,2943,3532,buq,qns-item-noham,42,207180,0.0-1.0-0.41
<b>It?s OK to have some conflicting beliefs.,Highly disagree,43/150,Highly agree,4,1697749311732,1697749315634,\Highly agree\,\Highly agree\,\4\,1697749315007,1697749315007,3275,3275,3902,buq,qns-item-noham,43,211083,0.0-1.0-0.42
<b>Sometimes the details of a matter seem to conflict with the big picture.,Highly disagree,44/150,Highly agree,4,1697749315635,1697749323115,\Somewhat agree\,\Highly agree\,\3\,1697749320213,1697749322247,4578,6612,7480,buq,qns-item-noham,44,218564,0.0-1.0-0.43
<b>Listening to people I disagree with makes my opinions better.,Highly disagree,45/150,Somewhat agree,3,1697749323115,1697749325572,\Somewhat agree\,\Somewhat agree\,\3\,1697749324974,1697749324974,1859,1859,2457,buq,qns-item-noham,45,221021,0.0-1.0-0.44
<b>Policies that sound bad are sometimes fine when you find out about their details.,Highly disagree,46/150,Somewhat agree,3,1697749325573,1697749329156,\Somewhat agree\,\Somewhat agree\,\3\,1697749328444,1697749328444,2871,2871,3583,buq,qns-item-noham,46,224605,0.0-1.0-0.45
"<b>The world is always changing, so my beliefs are sometimes out-dated.",Highly disagree,47/150,Highly agree,4,1697749329157,1697749331721,\Highly agree\,\Highly agree\,\4\,1697749330999,1697749330999,1842,1842,2564,buq,qns-item-noham,47,227170,0.0-1.0-0.46
"<b>If I receive a bad meal at my favorite restaurant and the food is surprisingly bad, I do not think much of it, and assume the chef is just having an ?off? day.",Highly disagree,48/150,Highly agree,4,1697749331722,1697749336190,\Highly agree\,\Highly agree\,\4\,1697749335289,1697749335289,3567,3567,4468,buq,qns-item-noham,48,231639,0.0-1.0-0.47
"<b>False information is unavoidable, to some extent.",Highly disagree,49/150,Highly agree,4,1697749336191,1697749340502,\Highly agree\,\Highly agree\,\4\,1697749339805,1697749339805,3614,3614,4311,buq,qns-item-noham,49,235951,0.0-1.0-0.48
<b>My moral compass sometimes makes it harder to determine what?s true.,Highly disagree,50/150,Somewhat disagree,2,1697749340503,1697749343290,\Somewhat disagree\,\Somewhat disagree\,\2\,1697749342583,1697749342583,2080,2080,2787,buq,qns-item-noham,50,238739,0.0-1.0-0.49
"<b>When you disagree with someone, it?s important to listen to them carefully.",Highly disagree,51/150,Somewhat agree,3,1697749343292,1697749345486,\Somewhat agree\,\Somewhat agree\,\3\,1697749344870,1697749344870,1578,1578,2194,buq,qns-item-noham,51,240935,0.0-1.0-0.50
<b>Evidence pointing in the wrong direction isn?t really evidence at all.,Highly disagree,52/150,Highly disagree,1,1697749345487,1697749349219,\Highly disagree\,\Highly disagree\,\1\,1697749348566,1697749348566,3079,3079,3732,buq,qns-item-noham,52,244668,0.0-1.0-0.51
"<b>If the political party I support messes up, it makes me think politics is rotten.",Highly disagree,53/150,Somewhat agree,3,1697749349220,1697749360792,\Somewhat agree\,\Somewhat agree\,\3\,1697749360084,1697749360084,10864,10864,11572,buq,qns-item-noham,53,256241,0.0-1.0-0.52
<b>Lots of important topics can only really be understood by some groups of people.,Highly disagree,54/150,Somewhat disagree,2,1697749360793,1697749367685,\Somewhat disagree\,\Somewhat disagree\,\2\,1697749366998,1697749366998,6205,6205,6892,buq,qns-item-noham,54,263134,0.0-1.0-0.53
<b>Details almost always matter for being right about something.,Highly disagree,55/150,Highly agree,4,1697749367686,1697749371256,\Highly agree\,\Highly agree\,\4\,1697749370432,1697749370432,2746,2746,3570,buq,qns-item-noham,55,266705,0.0-1.0-0.54
"<b>The most important thing in politics is winning, not convincing people.",Highly disagree,56/150,Highly disagree,1,1697749371257,1697749382901,\Highly disagree\,\Highly disagree\,\1\,1697749379872,1697749379872,8615,8615,11644,buq,qns-item-noham,56,278350,0.0-1.0-0.55
<b>Having conflicting beliefs means you haven?t thought about them enough.,Highly disagree,57/150,Highly agree,4,1697749382902,1697749385694,\Highly agree\,\Highly agree\,\4\,1697749384968,1697749384968,2066,2066,2792,buq,qns-item-noham,57,281143,0.0-1.0-0.56
<b>Other people have sometimes convinced me to change my mind on important topics.,Highly disagree,58/150,Highly agree,4,1697749385695,1697749390099,\Somewhat agree\,\Highly agree\,\3\,1697749387272,1697749389364,1577,3669,4404,buq,qns-item-noham,58,285548,0.0-1.0-0.57
<b>I do not often change my political opinions.,Highly disagree,59/150,Somewhat disagree,2,1697749390100,1697749392480,\Somewhat disagree\,\Somewhat disagree\,\2\,1697749391893,1697749391893,1793,1793,2380,buq,qns-item-noham,59,287929,0.0-1.0-0.58
<b>Thinking about how different things relate to one another is critical in life.,Highly disagree,60/150,Somewhat agree,3,1697749392480,1697749395747,\Somewhat agree\,\Somewhat agree\,\3\,1697749394452,1697749394452,1972,1972,3267,buq,qns-item-noham,60,291196,0.0-1.0-0.59
<b>True beliefs can have unfortunate implications.,Highly disagree,61/150,Somewhat agree,3,1697749395747,1697749407030,\Somewhat agree\,\Somewhat agree\,\3\,1697749406383,1697749406383,10636,10636,11283,buq,qns-item-noham,61,302479,0.0-1.0-0.60
<b>It?s difficult to not have at least some conflicting beliefs.,Highly disagree,62/150,Highly agree,4,1697749407030,1697749410603,\Highly agree\,\Highly agree\,\4\,1697749409968,1697749409968,2938,2938,3573,buq,qns-item-noham,62,306052,0.0-1.0-0.61
"<b>When I learn new things, I think deeply about how my opinions should change.",Highly disagree,63/150,Somewhat agree,3,1697749410604,1697749418540,\Somewhat agree\,\Somewhat agree\,\3\,1697749417807,1697749417807,7203,7203,7936,buq,qns-item-noham,63,313990,0.0-1.0-0.62
<b>I think a lot about how to interpret different sorts of evidence.,Highly disagree,64/150,Somewhat agree,3,1697749418541,1697749431597,\Somewhat agree\,\Somewhat agree\,\3\,1697749431008,1697749431008,12467,12467,13056,buq,qns-item-noham,64,327046,0.0-1.0-0.63
<b>Politics is about thinking together and finding compromises.,Highly disagree,65/150,Highly agree,4,1697749431598,1697749434488,\Highly agree\,\Highly agree\,\4\,1697749433789,1697749433789,2191,2191,2890,buq,qns-item-noham,65,329937,0.0-1.0-0.64
<b>Wishful thinking causes a lot of problems.,Highly disagree,66/150,Somewhat agree,3,1697749434489,1697749438893,\Somewhat agree\,\Somewhat agree\,\3\,1697749438254,1697749438254,3765,3765,4404,buq,qns-item-noham,66,334342,0.0-1.0-0.65
<b>I judge a food item only once I try it many times.,Highly disagree,67/150,Somewhat disagree,2,1697749438894,1697749443209,\Somewhat disagree\,\Somewhat disagree\,\2\,1697749442599,1697749442599,3705,3705,4315,buq,qns-item-noham,67,338658,0.0-1.0-0.66
"<b>When a person holds conflicting beliefs, they should really try to figure out what?s wrong.",Highly disagree,68/150,Highly agree,4,1697749443210,1697749458442,\Highly agree\,\Highly agree\,\4\,1697749457701,1697749457701,14491,14491,15232,buq,qns-item-noham,68,353891,0.0-1.0-0.67
<b>Knowing what?s important in life is easy.,Highly disagree,69/150,Somewhat agree,3,1697749458443,1697749462836,\Somewhat agree\,\Somewhat agree\,\3\,1697749462156,1697749462156,3713,3713,4393,buq,qns-item-noham,69,358285,0.0-1.0-0.68
<b>Lots of smart people disagree about basic political questions.,Highly disagree,70/150,Highly agree,4,1697749462837,1697749465350,\Highly agree\,\Highly agree\,\4\,1697749464618,1697749464618,1781,1781,2513,buq,qns-item-noham,70,360799,0.0-1.0-0.69
<b>I swim across the Atlantic Ocean to get to work every day.,Highly disagree,71/150,Highly disagree,1,1697749465352,1697749469919,\Highly disagree\,\Highly disagree\,\1\,1697749466871,1697749466871,1519,1519,4567,buq,qns-item-noham,71,365368,0.0-1.0-0.70
"<b>Sometimes, you just have to ignore evidence that you know is wrong.",Highly disagree,72/150,Somewhat disagree,2,1697749469920,1697749474556,\Somewhat disagree\,\Somewhat disagree\,\2\,1697749473992,1697749473992,4072,4072,4636,buq,qns-item-noham,72,370005,0.0-1.0-0.71
<b>I have had some false beliefs.,Highly disagree,73/150,Somewhat agree,3,1697749474556,1697749476614,\Somewhat agree\,\Somewhat agree\,\3\,1697749476051,1697749476051,1495,1495,2058,buq,qns-item-noham,73,372063,0.0-1.0-0.72
"<b>If one friend does something that upsets me, I sometimes start to distrust people in general.",Highly disagree,74/150,Highly disagree,1,1697749476615,1697749479419,\Highly disagree\,\Highly disagree\,\1\,1697749478679,1697749478679,2064,2064,2804,buq,qns-item-noham,74,374868,0.0-1.0-0.73
<b>I easily apply what I learn in one situation to another.,Highly disagree,75/150,Highly agree,4,1697749479420,1697749483321,\Highly agree\,\Highly agree\,\4\,1697749482416,1697749482416,2996,2996,3901,buq,qns-item-noham,75,378770,0.0-1.0-0.74
<b>The facts about most important matters are easy to find.,Highly disagree,76/150,Somewhat agree,3,1697749483322,1697749489919,\Somewhat agree\,\Somewhat agree\,\3\,1697749489132,1697749489132,5810,5810,6597,buq,qns-item-noham,76,385368,0.0-1.0-0.75
<b>It?s better to know what?s true than to know what?s moral.,Highly disagree,77/150,Highly agree,4,1697749489920,1697749495097,\Highly agree\,\Highly agree\,\4\,1697749492790,1697749492790,2870,2870,5177,buq,qns-item-noham,77,390546,0.0-1.0-0.76
<b>It?s good to be skeptical of people you agree with.,Highly disagree,78/150,Somewhat agree,3,1697749495098,1697749499259,\Somewhat agree\,\Somewhat agree\,\3\,1697749498654,1697749498654,3556,3556,4161,buq,qns-item-noham,78,394708,0.0-1.0-0.77
<b>Sometimes reasonable beliefs are wrong.,Highly disagree,79/150,Highly agree,4,1697749499259,1697749501518,\Highly agree\,\Highly agree\,\4\,1697749500644,1697749500644,1385,1385,2259,buq,qns-item-noham,79,396967,0.0-1.0-0.78
<b>I used to think the world was less complicated than I do now.,Highly disagree,80/150,Highly agree,4,1697749501519,1697749507191,\Highly agree\,\Highly agree\,\4\,1697749506492,1697749506492,4973,4973,5672,buq,qns-item-noham,80,402640,0.0-1.0-0.79
<b>People are usually completely right or completely wrong.,Highly disagree,81/150,Somewhat disagree,2,1697749507192,1697749510341,\Somewhat disagree\,\Somewhat disagree\,\2\,1697749509720,1697749509720,2528,2528,3149,buq,qns-item-noham,81,405790,0.0-1.0-0.80
<b>I spend a lot of time considering alternatives to my beliefs.,Highly disagree,82/150,Somewhat disagree,2,1697749510341,1697749514194,\Somewhat disagree\,\Somewhat disagree\,\2\,1697749513439,1697749513439,3098,3098,3853,buq,qns-item-noham,82,409643,0.0-1.0-0.81
"<b>Political enemies need to be defeated, not convinced.",Highly disagree,83/150,Highly disagree,1,1697749514195,1697749517145,\Highly disagree\,\Highly disagree\,\1\,1697749516499,1697749516499,2304,2304,2950,buq,qns-item-noham,83,412594,0.0-1.0-0.82
"<b>When forming an opinion about a restaurant, I am more swayed by my  latest meal there than  previous meals I?ve had there.",Highly disagree,84/150,Highly agree,4,1697749517145,1697749520248,\Highly agree\,\Highly agree\,\4\,1697749519555,1697749519555,2410,2410,3103,buq,qns-item-noham,84,415697,0.0-1.0-0.83
<b>I try to remain skeptical about most topics.,Highly disagree,85/150,Somewhat agree,3,1697749520249,1697749522396,\Somewhat agree\,\Somewhat agree\,\3\,1697749521854,1697749521854,1605,1605,2147,buq,qns-item-noham,85,417845,0.0-1.0-0.84
<b>Being wrong is usually obvious in retrospect.,Highly disagree,86/150,Somewhat disagree,2,1697749522397,1697749526726,\Somewhat disagree\,\Somewhat disagree\,\2\,1697749525873,1697749525873,3476,3476,4329,buq,qns-item-noham,86,422176,0.0-1.0-0.85
<b>It can be hard to realize that my beliefs are in conflict.,Highly disagree,87/150,Somewhat disagree,2,1697749526727,1697749531044,\Somewhat disagree\,\Somewhat disagree\,\2\,1697749530480,1697749530480,3753,3753,4317,buq,qns-item-noham,87,426493,0.0-1.0-0.86
<b>I form my political views only after meticulously gathering historical and present information about their policies.,Highly disagree,88/150,Somewhat disagree,2,1697749531045,1697749549966,\Somewhat disagree\,\Somewhat disagree\,\2\,1697749548968,1697749548968,17923,17923,18921,buq,qns-item-noham,88,445415,0.0-1.0-0.87
<b>Skeptical people are usually just bad-tempered.,Highly disagree,89/150,Highly disagree,1,1697749549966,1697749555657,\Highly disagree\,\Highly disagree\,\1\,1697749555052,1697749555052,5086,5086,5691,buq,qns-item-noham,89,451106,0.0-1.0-0.88
<b>It is difficult for me to remember the last time I was surprised by politics.,Highly disagree,90/150,Highly agree,4,1697749555658,1697749574908,\Highly agree\,\Highly agree\,\4\,1697749574213,1697749574213,18555,18555,19250,buq,qns-item-noham,90,470357,0.0-1.0-0.89
"<b>When I find out I?m wrong, I think a lot about my related beliefs.",Highly disagree,91/150,Somewhat agree,3,1697749574909,1697749578783,\Somewhat agree\,\Somewhat agree\,\3\,1697749578263,1697749578263,3354,3354,3874,buq,qns-item-noham,91,474232,0.0-1.0-0.90
"<b>If the political party I support messes up, it makes me think you can?t trust anyone these days",Highly disagree,92/150,Somewhat agree,3,1697749578784,1697749597257,\Somewhat agree\,\Somewhat agree\,\3\,1697749596589,1697749596589,17805,17805,18473,buq,qns-item-noham,92,492706,0.0-1.0-0.91
<b>People?s brains turn off when they talk about politics.,Highly disagree,93/150,Highly agree,4,1697749597258,1697749603735,\Highly agree\,\Highly agree\,\4\,1697749601650,1697749601650,4392,4392,6477,buq,qns-item-noham,93,499184,0.0-1.0-0.92
<b>People who are wrong are usually just ignoring the obvious.,Highly disagree,94/150,Somewhat agree,3,1697749603736,1697749624235,\Somewhat agree\,\Somewhat agree\,\3\,1697749623522,1697749623522,19786,19786,20499,buq,qns-item-noham,94,519685,0.0-1.0-0.93
"<b>The world isn?t that complicated, but it?s still hard to figure out how it works.",Highly disagree,95/150,Highly disagree,1,1697749624237,1697749627174,\Highly disagree\,\Highly disagree\,\1\,1697749625976,1697749625976,1739,1739,2937,buq,qns-item-noham,95,522623,0.0-1.0-0.94
"<b>When forming my views on people, I rely more on what they are like now rather than rely on my past experience with them.",Highly disagree,96/150,Somewhat agree,3,1697749627175,1697749634477,\Somewhat agree\,\Somewhat agree\,\3\,1697749633694,1697749633694,6519,6519,7302,buq,qns-item-noham,96,529926,0.0-1.0-0.95
"<b>When people contradict my beliefs, I usually know about their evidence already.",Highly disagree,97/150,Highly disagree,1,1697749634478,1697749638384,\Highly disagree\,\Highly disagree\,\1\,1697749637613,1697749637613,3135,3135,3906,buq,qns-item-noham,97,533833,0.0-1.0-0.96
<b>Being wrong is a matter of degree.,Highly disagree,98/150,Somewhat agree,3,1697749638385,1697749641410,\Somewhat agree\,\Somewhat agree\,\3\,1697749640895,1697749640895,2510,2510,3025,buq,qns-item-noham,98,536859,0.0-1.0-0.97
<b>Figuring out what?s true and what?s false mainly requires a strong moral compass.,Highly disagree,99/150,Highly agree,4,1697749641411,1697749646397,\Somewhat agree\,\Highly agree\,\3\,1697749645385,1697749645831,3974,4420,4986,buq,qns-item-noham,99,541846,0.0-1.0-0.98
<b>Most of the beliefs people have are at least somewhat understandable.,Highly disagree,100/150,Somewhat agree,3,1697749646398,1697749650308,\Somewhat agree\,\Somewhat agree\,\3\,1697749649169,1697749649169,2771,2771,3910,buq,qns-item-noham,100,545757,0.0-1.0-0.99
"<b>Usually I?m wrong about simple things, not complicated ones.",Highly disagree,101/150,Somewhat disagree,2,1697749650309,1697749669891,\Somewhat disagree\,\Somewhat disagree\,\2\,1697749669267,1697749669267,18958,18958,19582,buq,qns-item-noham,101,565340,0.0-1.0-0.100
<b>Getting all the information I want about important things is hard.,Highly disagree,102/150,Somewhat disagree,2,1697749669892,1697749694715,\Somewhat disagree\,\Somewhat disagree\,\2\,1697749694012,1697749694012,24120,24120,24823,buq,qns-item-noham,102,590164,0.0-1.0-0.101
<b>Most false beliefs spread because people try to deceive one another.,Highly disagree,103/150,Highly agree,4,1697749694715,1697749697254,\Highly agree\,\Highly agree\,\4\,1697749696643,1697749696643,1928,1928,2539,buq,qns-item-noham,103,592703,0.0-1.0-0.102
<b>I can usually find something to agree with in most people?s beliefs.,Highly disagree,104/150,Highly agree,4,1697749697254,1697749700636,\Somewhat agree\,\Highly agree\,\3\,1697749698885,1697749699998,1631,2744,3382,buq,qns-item-noham,104,596085,0.0-1.0-0.103
<b>I only form my views of people once I get to know them very well.,Highly disagree,105/150,Somewhat agree,3,1697749700636,1697749704029,\Highly agree\,\Somewhat agree\,\4\,1697749702175,1697749703458,1539,2822,3393,buq,qns-item-noham,105,599478,0.0-1.0-0.104
"<b>When people tell me important things about the world, I usually believe them.",Highly disagree,106/150,Somewhat agree,3,1697749704030,1697749706970,\Somewhat disagree\,\Somewhat agree\,\2\,1697749706045,1697749706525,2015,2495,2940,buq,qns-item-noham,106,602419,0.0-1.0-0.105
"<b>If a friend does something that upsets me, it reminds me what an unpredictable place the world is.",Highly disagree,107/150,Highly agree,4,1697749706971,1697749710237,\Highly agree\,\Highly agree\,\4\,1697749709595,1697749709595,2624,2624,3266,buq,qns-item-noham,107,605686,0.0-1.0-0.106
<b>Having some conflicting beliefs is inevitable.,Highly disagree,108/150,Somewhat agree,3,1697749710238,1697749712380,\Somewhat agree\,\Somewhat agree\,\3\,1697749711837,1697749711837,1599,1599,2142,buq,qns-item-noham,108,607829,0.0-1.0-0.107
<b>People are wrong because they haven?t thought much about things.,Highly disagree,109/150,Highly agree,4,1697749712381,1697749716572,\Highly agree\,\Highly agree\,\4\,1697749715170,1697749715170,2789,2789,4191,buq,qns-item-noham,109,612021,0.0-1.0-0.108
<b>People tend to believe whatever is good for their friends.,Highly disagree,110/150,Somewhat agree,3,1697749716572,1697749719397,\Somewhat agree\,\Somewhat agree\,\3\,1697749718884,1697749718884,2312,2312,2825,buq,qns-item-noham,110,614846,0.0-1.0-0.109
"<b>When I talk about important topics, I try to make sure people know I?m not always right.",Highly disagree,111/150,Somewhat agree,3,1697749719397,1697749735072,\Somewhat agree\,\Somewhat agree\,\3\,1697749734475,1697749734475,15078,15078,15675,buq,qns-item-noham,111,630521,0.0-1.0-0.110
<b>I used to be more certain my beliefs were true.,Highly disagree,112/150,Somewhat disagree,2,1697749735073,1697749740002,\Somewhat disagree\,\Somewhat disagree\,\2\,1697749739470,1697749739470,4397,4397,4929,buq,qns-item-noham,112,635451,0.0-1.0-0.111
<b>It?s often pretty easy to figure out whether something is true based on who said it.,Highly disagree,113/150,Somewhat agree,3,1697749740002,1697749742592,\Somewhat agree\,\Somewhat agree\,\3\,1697749742004,1697749742004,2002,2002,2590,buq,qns-item-noham,113,638041,0.0-1.0-0.112
<b>Having bad food in my favorite restaurant will make me think the restaurant is no longer good.,Highly disagree,114/150,Highly agree,4,1697749742593,1697749745446,\Highly agree\,\Highly agree\,\4\,1697749744733,1697749744733,2140,2140,2853,buq,qns-item-noham,114,640895,0.0-1.0-0.113
<b>I transform into a hummingbird every day.,Highly disagree,115/150,Highly disagree,1,1697749745446,1697749759780,\Highly disagree\,\Highly disagree\,\1\,1697749758077,1697749758077,12631,12631,14334,buq,qns-item-noham,115,655229,0.0-1.0-0.114
"<b>Unfortunately, when people are wrong, it?s usually because they?re bad.",Highly disagree,116/150,Highly disagree,1,1697749759781,1697749764706,\Highly disagree\,\Highly disagree\,\1\,1697749764068,1697749764068,4287,4287,4925,buq,qns-item-noham,116,660155,0.0-1.0-0.115
<b>I think a lot about arguments against my views.,Highly disagree,117/150,Somewhat agree,3,1697749764706,1697749767243,\Somewhat agree\,\Somewhat agree\,\3\,1697749766606,1697749766606,1900,1900,2537,buq,qns-item-noham,117,662692,0.0-1.0-0.116
<b>Details tend to matter a lot for knowing whether a policy is good.,Highly disagree,118/150,Somewhat agree,3,1697749767244,1697749769663,\Somewhat agree\,\Somewhat agree\,\3\,1697749769064,1697749769064,1820,1820,2419,buq,qns-item-noham,118,665112,0.0-1.0-0.117
<b>Personal experience is usually more important than facts and figures.,Highly disagree,119/150,Highly disagree,1,1697749769664,1697749780877,\Highly disagree\,\Highly disagree\,\1\,1697749780347,1697749780347,10683,10683,11213,buq,qns-item-noham,119,676326,0.0-1.0-0.118
<b>I?ve been tricked before about important matters.,Highly disagree,120/150,Somewhat agree,3,1697749780879,1697749782876,\Somewhat agree\,\Somewhat agree\,\3\,1697749782503,1697749782503,1624,1624,1997,buq,qns-item-noham,120,678325,0.0-1.0-0.119
<b>I would need to be totally wowed if I were to change my opinion of a restaurant I don?t like.,Highly disagree,121/150,Highly agree,4,1697749782877,1697749787055,\Highly agree\,\Highly agree\,\4\,1697749786333,1697749786333,3456,3456,4178,buq,qns-item-noham,121,682504,0.0-1.0-0.120
<b>I care a lot about politics.,Highly disagree,122/150,Somewhat disagree,2,1697749787056,1697749799047,\Somewhat disagree\,\Somewhat disagree\,\2\,1697749798513,1697749798513,11457,11457,11991,buq,qns-item-noham,122,694496,0.0-1.0-0.121
<b>People with conflicting beliefs usually have some facts they disagree on.,Highly disagree,123/150,Somewhat agree,3,1697749799048,1697749819990,\Somewhat agree\,\Somewhat agree\,\3\,1697749818855,1697749818855,19807,19807,20942,buq,qns-item-noham,123,715439,0.0-1.0-0.122
<b>There are some topics I?ve been really wrong about.,Highly disagree,124/150,Highly agree,4,1697749819991,1697749822740,\Highly agree\,\Highly agree\,\4\,1697749822056,1697749822056,2065,2065,2749,buq,qns-item-noham,124,718189,0.0-1.0-0.123
<b>Most beliefs can be supported with at least some evidence.,Highly disagree,125/150,Somewhat agree,3,1697749822741,1697749825301,\Somewhat agree\,\Somewhat agree\,\3\,1697749824745,1697749824745,2004,2004,2560,buq,qns-item-noham,125,720750,0.0-1.0-0.124
<b>Other people make life out to be more complicated than it really is.,Highly disagree,126/150,Somewhat disagree,2,1697749825302,1697749827811,\Somewhat disagree\,\Somewhat disagree\,\2\,1697749827353,1697749827353,2051,2051,2509,buq,qns-item-noham,126,723260,0.0-1.0-0.125
"<b>My political views are being shaped continuously as I gather more information, rather than relying on what I?ve known to be true of my party in the past. ",Highly disagree,127/150,Highly agree,4,1697749827812,1697749872988,\Highly agree\,\Highly agree\,\4\,1697749872133,1697749872133,44321,44321,45176,buq,qns-item-noham,127,768437,0.0-1.0-0.126
<b>It?s pretty unusual for true things to seem false.,Highly disagree,128/150,Somewhat agree,3,1697749872989,1697749877887,\Somewhat agree\,\Somewhat agree\,\3\,1697749877214,1697749877214,4225,4225,4898,buq,qns-item-noham,128,773336,0.0-1.0-0.127
"<b>Policy details don?t matter much, just the big picture.",Highly disagree,129/150,Highly disagree,1,1697749877887,1697749886689,\Highly disagree\,\Highly disagree\,\1\,1697749886099,1697749886099,8212,8212,8802,buq,qns-item-noham,129,782138,0.0-1.0-0.128
<b>I know my friends so well they can hardly ever surprise me.,Highly disagree,130/150,Somewhat agree,3,1697749886690,1697749889586,\Somewhat agree\,\Somewhat agree\,\3\,1697749889127,1697749889127,2437,2437,2896,buq,qns-item-noham,130,785035,0.0-1.0-0.129
"<b>When I talk to people, I often think about why they have the beliefs they do.",Highly disagree,131/150,Highly agree,4,1697749889587,1697749891881,\Highly agree\,\Highly agree\,\4\,1697749891268,1697749891268,1681,1681,2294,buq,qns-item-noham,131,787330,0.0-1.0-0.130
<b>I do not often change my views on people.,Highly disagree,132/150,Somewhat agree,3,1697749891881,1697749894494,\Somewhat agree\,\Somewhat agree\,\3\,1697749893971,1697749893971,2090,2090,2613,buq,qns-item-noham,132,789943,0.0-1.0-0.131
<b>I often wish I had more time to spend figuring out what?s true and what?s false in life.,Highly disagree,133/150,Highly agree,4,1697749894494,1697749898242,\Highly agree\,\Highly agree\,\4\,1697749897720,1697749897720,3226,3226,3748,buq,qns-item-noham,133,793691,0.0-1.0-0.132
<b>I?m more certain about my beliefs than I used to be.,Highly disagree,134/150,Somewhat agree,3,1697749898242,1697749909145,\Somewhat agree\,\Somewhat agree\,\3\,1697749908583,1697749908583,10341,10341,10903,buq,qns-item-noham,134,804594,0.0-1.0-0.133
"<b>Whenever I find out new information, I update my views on politics accordingly.",Highly disagree,135/150,Highly agree,4,1697749909146,1697749911146,\Highly agree\,\Highly agree\,\4\,1697749910540,1697749910540,1394,1394,2000,buq,qns-item-noham,135,806595,0.0-1.0-0.134
<b>People often tell falsehoods unintentionally.,Highly disagree,136/150,Somewhat agree,3,1697749911147,1697749913752,\Somewhat agree\,\Somewhat agree\,\3\,1697749913266,1697749913266,2119,2119,2605,buq,qns-item-noham,136,809201,0.0-1.0-0.135
<b>Most people don?t know much about most things.,Highly disagree,137/150,Highly agree,4,1697749913753,1697749916698,\Highly agree\,\Highly agree\,\4\,1697749915990,1697749915990,2237,2237,2945,buq,qns-item-noham,137,812147,0.0-1.0-0.136
"<b>If I find out something new about someone, I easily change my views about them.",Highly disagree,138/150,Somewhat agree,3,1697749916699,1697749941597,\Somewhat agree\,\Somewhat agree\,\3\,1697749940114,1697749940114,23415,23415,24898,buq,qns-item-noham,138,837046,0.0-1.0-0.137
<b>Having true beliefs is difficult.,Highly disagree,139/150,Highly disagree,1,1697749941598,1697749943657,\Highly disagree\,\Highly disagree\,\1\,1697749942989,1697749942989,1391,1391,2059,buq,qns-item-noham,139,839106,0.0-1.0-0.138
<b>I don?t try new foods since I know I won?t like them.,Highly disagree,140/150,Highly agree,4,1697749943657,1697749947437,\Somewhat agree\,\Highly agree\,\3\,1697749945502,1697749946374,1845,2717,3780,buq,qns-item-noham,140,842887,0.0-1.0-0.139
<b>It?s easy to figure out what?s true or false based on who?s saying it.,Highly disagree,141/150,Somewhat agree,3,1697749947438,1697749950505,\Somewhat agree\,\Somewhat agree\,\3\,1697749949847,1697749949847,2409,2409,3067,buq,qns-item-noham,141,845954,0.0-1.0-0.140
<b>False things have seemed true to me many times.,Highly disagree,142/150,Somewhat disagree,2,1697749950505,1697749953226,\Somewhat disagree\,\Somewhat disagree\,\2\,1697749952681,1697749952681,2176,2176,2721,buq,qns-item-noham,142,848675,0.0-1.0-0.141
<b>It?s pretty easy to sort out what?s true and what?s false in life.,Highly disagree,143/150,Somewhat agree,3,1697749953227,1697749956259,\Somewhat agree\,\Somewhat agree\,\3\,1697749955626,1697749955626,2399,2399,3032,buq,qns-item-noham,143,851708,0.0-1.0-0.142
<b>Knowing lots of statistics about something is usually important for understanding it.,Highly disagree,144/150,Highly agree,4,1697749956260,1697749966845,\Highly agree\,\Highly agree\,\4\,1697749966066,1697749966066,9806,9806,10585,buq,qns-item-noham,144,862294,0.0-1.0-0.143
<b>Other people trick each other a lot.,Highly disagree,145/150,Highly agree,4,1697749966846,1697749969793,\Highly agree\,\Highly agree\,\4\,1697749969103,1697749969103,2257,2257,2947,buq,qns-item-noham,145,865242,0.0-1.0-0.144
<b>I would need to learn a lot about a person for my opinion of them to be swayed.,Highly disagree,146/150,Highly agree,4,1697749969794,1697749972418,\Highly agree\,\Highly agree\,\4\,1697749971820,1697749971820,2026,2026,2624,buq,qns-item-noham,146,867867,0.0-1.0-0.145
<b>People can?t usually trick me when it comes to topics I care about.,Highly disagree,147/150,Highly agree,4,1697749972418,1697749975412,\Highly agree\,\Highly agree\,\4\,1697749974876,1697749974876,2458,2458,2994,buq,qns-item-noham,147,870861,0.0-1.0-0.146
<b>I do not often change my views on food.,Highly disagree,148/150,Highly agree,4,1697749975413,1697749978339,\Highly agree\,\Highly agree\,\4\,1697749977818,1697749977818,2405,2405,2926,buq,qns-item-noham,148,873788,0.0-1.0-0.147
<b>Specific policies are often very important to me.,Highly disagree,149/150,Somewhat agree,3,1697749978340,1697749980662,\Somewhat agree\,\Somewhat agree\,\3\,1697749979876,1697749979876,1536,1536,2322,buq,qns-item-noham,149,876112,0.0-1.0-0.148
<b>Most people are woefully under-informed.,Highly disagree,150/150,Highly agree,4,1697749980663,1697749996673,\Highly agree\,\Highly agree\,\4\,1697749996076,1697749996076,15413,15413,16010,buq,qns-item-noham,150,892122,0.0-1.0-0.149
