Question,qns_options,quest_num,answer,answer_num,question_load_timestamp,next_btn_timestamp,text_selected,final_text_selected,option_num_selected,preview_timestamps,final_text_selected_time_stamp,rt_first_option_click,rt_final_option_click,rt_submit_click,questionnaire,trial_type,trial_index,time_elapsed,internal_node_id
<b>Considering other people?s perspectives can help us figure out what?s true or false.,Highly disagree,1/150,Somewhat agree,3,1698182399562,1698182410159,\Somewhat agree\,\Somewhat agree\,\3\,1698182409375,1698182409410,9813,9848,10597,buq,qns-item-noham,1,2343497,0.0-1.0-0.0
<b>Knowing what?s true and knowing what to do about it are usually basically the same.,Highly disagree,2/150,Highly disagree,1,1698182410175,1698182414191,\Highly disagree\,\Highly disagree\,\1\,1698182413344,1698182413344,3169,3169,4016,buq,qns-item-noham,2,2347529,0.0-1.0-0.1
<b>Most people just believe whatever is convenient for them.,Highly disagree,3/150,Highly disagree,1,1698182414197,1698182418167,\Highly disagree\,\Highly disagree\,\1\,1698182415518,1698182415559,1321,1362,3970,buq,qns-item-noham,3,2351505,0.0-1.0-0.2
<b>Even people who are wrong about most things can be right sometimes.,Highly disagree,4/150,Highly agree,4,1698182418172,1698182422495,\Highly agree\,\Highly agree\,\4\,1698182421880,1698182421880,3708,3708,4323,buq,qns-item-noham,4,2355833,0.0-1.0-0.3
"<b>If the political party I support does something that upsets me, then the party may have changed, and I need to re-evaluate my support.",Highly disagree,5/150,Highly agree,4,1698182422501,1698182430824,\Highly agree\,\Highly agree\,\4\,1698182430083,1698182430083,7582,7582,8323,buq,qns-item-noham,5,2364163,0.0-1.0-0.4
"<b>When people disagree, one side is usually completely right.",Highly disagree,6/150,Highly disagree,1,1698182430828,1698182433089,\Highly disagree\,\Highly disagree\,\1\,1698182432571,1698182432571,1743,1743,2261,buq,qns-item-noham,6,2366427,0.0-1.0-0.5
<b>People have lots of false beliefs.,Highly disagree,7/150,Highly agree,4,1698182433094,1698182435870,\Highly agree\,\Highly agree\,\4\,1698182434667,1698182434667,1573,1573,2776,buq,qns-item-noham,7,2369208,0.0-1.0-0.6
<b>Having some big beliefs helps me sort out minor ones.,Highly disagree,8/150,Highly disagree,1,1698182435872,1698182438819,\Highly disagree\,\Highly disagree\,\1\,1698182438054,1698182438054,2182,2182,2947,buq,qns-item-noham,8,2372157,0.0-1.0-0.7
<b>Political questions are usually pretty complicated.,Highly disagree,9/150,Highly agree,4,1698182438822,1698182444544,\Highly agree\,\Highly agree\,\4\,1698182443853,1698182443853,5031,5031,5722,buq,qns-item-noham,9,2377883,0.0-1.0-0.8
<b>Figuring out what?s important in life requires learning a lot of facts.,Highly disagree,10/150,Highly agree,4,1698182444548,1698182446777,\Highly agree\,\Highly agree\,\4\,1698182446317,1698182446317,1769,1769,2229,buq,qns-item-noham,10,2380116,0.0-1.0-0.9
<b>It is difficult for me to remember the last time I was surprised by politics.,Highly disagree,11/150,Highly disagree,1,1698182446781,1698182450858,\Highly disagree\,\Highly disagree\,\1\,1698182449958,1698182449958,3177,3177,4077,buq,qns-item-noham,11,2384196,0.0-1.0-0.10
<b>People?s false beliefs are understandable.,Highly disagree,12/150,Highly agree,4,1698182450862,1698182454893,\Highly agree\,\Highly agree\,\4\,1698182454370,1698182454370,3508,3508,4031,buq,qns-item-noham,12,2388231,0.0-1.0-0.11
<b>I spend a lot of time trying to be informed about politics.,Highly disagree,13/150,Highly agree,4,1698182454896,1698182457235,\Highly agree\,\Highly agree\,\4\,1698182456813,1698182456813,1917,1917,2339,buq,qns-item-noham,13,2390573,0.0-1.0-0.12
<b>I think a lot about whether my beliefs are right.,Highly disagree,14/150,Highly agree,4,1698182457238,1698182459221,\Highly agree\,\Highly agree\,\4\,1698182458712,1698182458712,1474,1474,1983,buq,qns-item-noham,14,2392559,0.0-1.0-0.13
<b>Statistics can be pretty misleading sometimes.,Highly disagree,15/150,Highly agree,4,1698182459224,1698182629463,\Highly agree\,\Highly agree\,\4\,1698182461184,1698182628736,1960,169512,170239,buq,qns-item-noham,15,2562801,0.0-1.0-0.14
<b>Figuring out what?s true and what?s false takes a lot of time and effort.,Highly disagree,16/150,Highly agree,4,1698182629467,1698182632831,\Highly agree\,\Highly agree\,\4\,1698182632254,1698182632335,2787,2868,3364,buq,qns-item-noham,16,2566169,0.0-1.0-0.15
"<b>If a friend does something bad to me, it was likely an error on their part.",Highly disagree,17/150,Somewhat disagree,2,1698182632836,1698182640585,\Somewhat disagree\,\Somewhat disagree\,\2\,1698182639718,1698182639791,6882,6955,7749,buq,qns-item-noham,17,2573923,0.0-1.0-0.16
<b>I have lots of beliefs that I?m only sort of sure about.,Highly disagree,18/150,Highly agree,4,1698182640588,1698182643552,\Highly agree\,\Highly agree\,\4\,1698182642832,1698182642888,2244,2300,2964,buq,qns-item-noham,18,2576890,0.0-1.0-0.17
"<b>If I go to my favorite restaurant and the food is surprisingly bad, it reminds me there are many disappointments in life.",Highly disagree,19/150,Highly agree,4,1698182643560,1698182649089,\Highly agree\,\Highly agree\,\4\,1698182646798,1698182646887,3238,3327,5529,buq,qns-item-noham,19,2582427,0.0-1.0-0.18
<b>Sometimes my beliefs are inconvenient for me.,Highly disagree,20/150,Highly agree,4,1698182649095,1698182869695,\Highly agree\,\Highly agree\,\4\,1698182869023,1698182869111,219928,220016,220600,buq,qns-item-noham,20,2803033,0.0-1.0-0.19
<b>Paying attention to multiple news sources is important.,Highly disagree,21/150,Highly agree,4,1698182869699,1698182872863,\Highly agree\,\Highly agree\,\4\,1698182872222,1698182872278,2523,2579,3164,buq,qns-item-noham,21,2806201,0.0-1.0-0.20
"<b>If you are paying attention, please select ?Somewhat agree?",Highly disagree,22/150,Somewhat agree,3,1698182872869,1698183087240,\Somewhat agree\,\Somewhat agree\,\3\,1698183086360,1698183086360,213491,213491,214371,buq,qns-item-noham,22,3020578,0.0-1.0-0.21
"<b>When I talk to others, I often worry I?ll convince them of something I didn?t mean to.",Highly disagree,23/150,Somewhat agree,3,1698183087244,1698183103984,\Somewhat agree\,\Somewhat agree\,\3\,1698183101526,1698183101526,14282,14282,16740,buq,qns-item-noham,23,3037322,0.0-1.0-0.22
<b>I would need to learn something utterly shocking about my party in order to change my political views.,Highly disagree,24/150,Somewhat disagree,2,1698183103987,1698183110855,\Somewhat disagree\,\Somewhat disagree\,\2\,1698183110134,1698183110214,6147,6227,6868,buq,qns-item-noham,24,3044194,0.0-1.0-0.23
"<b>When I have new experiences, I tend to think of them as unique.",Highly disagree,25/150,Highly agree,4,1698183110859,1698183114521,\Highly agree\,\Highly agree\,\4\,1698183113744,1698183113808,2885,2949,3662,buq,qns-item-noham,25,3047859,0.0-1.0-0.24
<b>Reading lots of things is important for understanding the world.,Highly disagree,26/150,Highly agree,4,1698183114528,1698183117263,\Highly agree\,\Highly agree\,\4\,1698183116478,1698183116508,1950,1980,2735,buq,qns-item-noham,26,3050601,0.0-1.0-0.25
<b>The world is complicated.,Highly disagree,27/150,Highly agree,4,1698183117268,1698183120278,\Highly agree\,\Highly agree\,\4\,1698183119288,1698183119288,2020,2020,3010,buq,qns-item-noham,27,3053616,0.0-1.0-0.26
<b>I change my mind about specific policies pretty frequently.,Highly disagree,28/150,Highly agree,4,1698183120281,1698183124151,\Highly agree\,\Highly agree\,\4\,1698183123070,1698183123070,2789,2789,3870,buq,qns-item-noham,28,3057489,0.0-1.0-0.27
"<b>If a politician in my political party supports something I disagree with, I give them the benefit of the doubt, as such issues often involve hidden complexities that aren?t obvious.   ",Highly disagree,29/150,Somewhat disagree,2,1698183124155,1698183207513,\Somewhat disagree\,\Somewhat disagree\,\2\,1698183206458,1698183206458,82303,82303,83358,buq,qns-item-noham,29,3140851,0.0-1.0-0.28
<b>People?s bad politics are usually motivated by hatefulness.,Highly disagree,30/150,Somewhat disagree,2,1698183207517,1698183263141,\Somewhat disagree\,\Somewhat disagree\,\2\,1698183262080,1698183262080,54563,54563,55624,buq,qns-item-noham,30,3196479,0.0-1.0-0.29
"<b>Most new experiences are just like old ones, but a little bit different.",Highly disagree,31/150,Highly disagree,1,1698183263144,1698183267707,\Somewhat agree\,\Highly disagree\,\3\,1698183265049,1698183266918,1905,3774,4563,buq,qns-item-noham,31,3201045,0.0-1.0-0.30
<b>I think a lot about how to reconcile my beliefs with one another.,Highly disagree,32/150,Somewhat disagree,2,1698183267711,1698183272023,\Somewhat disagree\,\Somewhat disagree\,\2\,1698183271180,1698183271180,3469,3469,4312,buq,qns-item-noham,32,3205361,0.0-1.0-0.31
<b>Personal experience rarely leads people astray.,Highly disagree,33/150,Somewhat disagree,2,1698183272027,1698183275196,\Somewhat disagree\,\Somewhat disagree\,\2\,1698183274060,1698183274060,2033,2033,3169,buq,qns-item-noham,33,3208534,0.0-1.0-0.32
<b>I might have false beliefs about important topics.,Highly disagree,34/150,Highly agree,4,1698183275198,1698183426431,\Highly agree\,\Highly agree\,\4\,1698183425656,1698183425656,150458,150458,151233,buq,qns-item-noham,34,3359769,0.0-1.0-0.33
"<b>If a good friend of mine does something unexpected that upsets me, I feel like I don?t know them anymore.",Highly disagree,35/150,Highly disagree,1,1698183426436,1698183435053,\Highly disagree\,\Highly disagree\,\1\,1698183434088,1698183434088,7652,7652,8617,buq,qns-item-noham,35,3368391,0.0-1.0-0.34
<b>Other people?s beliefs are often incoherent.,Highly disagree,36/150,Highly agree,4,1698183435056,1698183436876,\Highly agree\,\Highly agree\,\4\,1698183436337,1698183436337,1281,1281,1820,buq,qns-item-noham,36,3370215,0.0-1.0-0.35
<b>It?s important to have friends who think about things differently than I do.,Highly disagree,37/150,Highly agree,4,1698183436879,1698183486224,\Highly agree\,\Highly agree\,\4\,1698183484682,1698183484682,47803,47803,49345,buq,qns-item-noham,37,3419563,0.0-1.0-0.36
"<b>Every now and then, a new experience will unsettle beliefs I?ve had for a while.",Highly disagree,38/150,Highly agree,4,1698183486227,1698183489803,\Highly agree\,\Highly agree\,\4\,1698183487739,1698183487739,1512,1512,3576,buq,qns-item-noham,38,3423141,0.0-1.0-0.37
<b>Some policies I agree with in principle are so bad I don?t support them. ,Highly disagree,39/150,Highly agree,4,1698183489807,1698183493139,\Highly agree\,\Highly agree\,\4\,1698183492268,1698183492268,2461,2461,3332,buq,qns-item-noham,39,3426477,0.0-1.0-0.38
<b>I?m pretty sure I?ve accidentally spread false information.,Highly disagree,40/150,Somewhat agree,3,1698183493143,1698183498211,\Highly agree\,\Somewhat agree\,\4\,1698183494688,1698183497203,1545,4060,5068,buq,qns-item-noham,40,3431549,0.0-1.0-0.39
"<b>If I go to my favorite restaurant and the food is unexpectedly bad, then they have changed owners.",Highly disagree,41/150,Highly disagree,1,1698183498214,1698183501838,\Highly agree\,\Highly disagree\,\4\,1698183499254,1698183501344,1040,3130,3624,buq,qns-item-noham,41,3435176,0.0-1.0-0.40
"<b>In politics, it?s important to trust your friends and family.",Highly disagree,42/150,Somewhat agree,3,1698183501841,1698183508069,\Somewhat disagree\,\Somewhat agree\,\2\,1698183505754,1698183507418,3913,5577,6228,buq,qns-item-noham,42,3441407,0.0-1.0-0.41
<b>It?s OK to have some conflicting beliefs.,Highly disagree,43/150,Highly agree,4,1698183508071,1698183509858,\Highly agree\,\Highly agree\,\4\,1698183509364,1698183509364,1293,1293,1787,buq,qns-item-noham,43,3443196,0.0-1.0-0.42
<b>Sometimes the details of a matter seem to conflict with the big picture.,Highly disagree,44/150,Highly agree,4,1698183509862,1698183785363,\Highly agree\,\Highly agree\,\4\,1698183511698,1698183784287,1836,274425,275501,buq,qns-item-noham,44,3718701,0.0-1.0-0.43
<b>Listening to people I disagree with makes my opinions better.,Highly disagree,45/150,Highly agree,4,1698183785365,1698183788371,\Highly agree\,\Highly agree\,\4\,1698183787769,1698183787769,2404,2404,3006,buq,qns-item-noham,45,3721710,0.0-1.0-0.44
<b>Policies that sound bad are sometimes fine when you find out about their details.,Highly disagree,46/150,Highly agree,4,1698183788375,1698183790549,\Highly agree\,\Highly agree\,\4\,1698183789856,1698183789856,1481,1481,2174,buq,qns-item-noham,46,3723887,0.0-1.0-0.45
"<b>The world is always changing, so my beliefs are sometimes out-dated.",Highly disagree,47/150,Highly agree,4,1698183790554,1698183792860,\Highly agree\,\Highly agree\,\4\,1698183791971,1698183791971,1417,1417,2306,buq,qns-item-noham,47,3726198,0.0-1.0-0.46
"<b>If I receive a bad meal at my favorite restaurant and the food is surprisingly bad, I do not think much of it, and assume the chef is just having an ?off? day.",Highly disagree,48/150,Highly agree,4,1698183792863,1698183795825,\Highly agree\,\Highly agree\,\4\,1698183793529,1698183793529,666,666,2962,buq,qns-item-noham,48,3729163,0.0-1.0-0.47
"<b>False information is unavoidable, to some extent.",Highly disagree,49/150,Highly agree,4,1698183795829,1698183882836,\Highly agree\,\Highly agree\,\4\,1698183881816,1698183881816,85987,85987,87007,buq,qns-item-noham,49,3816174,0.0-1.0-0.48
<b>My moral compass sometimes makes it harder to determine what?s true.,Highly disagree,50/150,Highly agree,4,1698183882839,1698183888732,\Highly agree\,\Highly agree\,\4\,1698183887439,1698183887439,4600,4600,5893,buq,qns-item-noham,50,3822070,0.0-1.0-0.49
"<b>When you disagree with someone, it?s important to listen to them carefully.",Highly disagree,51/150,Highly agree,4,1698183888736,1698183895639,\Highly agree\,\Highly agree\,\4\,1698183894954,1698183894954,6218,6218,6903,buq,qns-item-noham,51,3828977,0.0-1.0-0.50
<b>Evidence pointing in the wrong direction isn?t really evidence at all.,Highly disagree,52/150,Highly disagree,1,1698183895642,1698183898422,\Highly disagree\,\Highly disagree\,\1\,1698183897896,1698183897896,2254,2254,2780,buq,qns-item-noham,52,3831760,0.0-1.0-0.51
"<b>If the political party I support messes up, it makes me think politics is rotten.",Highly disagree,53/150,Highly disagree,1,1698183898424,1698183901922,\Highly disagree\,\Highly disagree\,\1\,1698183901366,1698183901366,2942,2942,3498,buq,qns-item-noham,53,3835260,0.0-1.0-0.52
<b>Lots of important topics can only really be understood by some groups of people.,Highly disagree,54/150,Highly disagree,1,1698183901927,1698183906158,\Highly disagree\,\Highly disagree\,\1\,1698183905148,1698183905148,3221,3221,4231,buq,qns-item-noham,54,3839496,0.0-1.0-0.53
<b>Details almost always matter for being right about something.,Highly disagree,55/150,Highly agree,4,1698183906162,1698183911999,\Highly agree\,\Highly agree\,\4\,1698183911262,1698183911262,5100,5100,5837,buq,qns-item-noham,55,3845337,0.0-1.0-0.54
"<b>The most important thing in politics is winning, not convincing people.",Highly disagree,56/150,Highly disagree,1,1698183912006,1698183916582,\Highly disagree\,\Highly disagree\,\1\,1698183914276,1698183914276,2270,2270,4576,buq,qns-item-noham,56,3849920,0.0-1.0-0.55
<b>Having conflicting beliefs means you haven?t thought about them enough.,Highly disagree,57/150,Highly disagree,1,1698183916586,1698184168847,\Highly agree\,\Highly disagree\,\4\,1698184153963,1698184166940,237377,250354,252261,buq,qns-item-noham,57,4102185,0.0-1.0-0.56
<b>Other people have sometimes convinced me to change my mind on important topics.,Highly disagree,58/150,Highly agree,4,1698184168850,1698184174356,\Highly agree\,\Highly agree\,\4\,1698184173341,1698184173341,4491,4491,5506,buq,qns-item-noham,58,4107694,0.0-1.0-0.57
<b>I do not often change my political opinions.,Highly disagree,59/150,Highly disagree,1,1698184174360,1698184176153,\Highly disagree\,\Highly disagree\,\1\,1698184175704,1698184175704,1344,1344,1793,buq,qns-item-noham,59,4109491,0.0-1.0-0.58
<b>Thinking about how different things relate to one another is critical in life.,Highly disagree,60/150,Highly agree,4,1698184176156,1698184177960,\Highly agree\,\Highly agree\,\4\,1698184177506,1698184177506,1350,1350,1804,buq,qns-item-noham,60,4111298,0.0-1.0-0.59
<b>True beliefs can have unfortunate implications.,Highly disagree,61/150,Highly agree,4,1698184177963,1698184179602,\Highly agree\,\Highly agree\,\4\,1698184179103,1698184179103,1140,1140,1639,buq,qns-item-noham,61,4112940,0.0-1.0-0.60
<b>It?s difficult to not have at least some conflicting beliefs.,Highly disagree,62/150,Highly agree,4,1698184179605,1698184182026,\Highly agree\,\Highly agree\,\4\,1698184180532,1698184180532,927,927,2421,buq,qns-item-noham,62,4115364,0.0-1.0-0.61
"<b>When I learn new things, I think deeply about how my opinions should change.",Highly disagree,63/150,Highly agree,4,1698184182029,1698184183452,\Highly agree\,\Highly agree\,\4\,1698184182765,1698184182765,736,736,1423,buq,qns-item-noham,63,4116790,0.0-1.0-0.62
<b>I think a lot about how to interpret different sorts of evidence.,Highly disagree,64/150,Highly agree,4,1698184183457,1698184184837,\Highly agree\,\Highly agree\,\4\,1698184184073,1698184184073,616,616,1380,buq,qns-item-noham,64,4118175,0.0-1.0-0.63
<b>Politics is about thinking together and finding compromises.,Highly disagree,65/150,Highly agree,4,1698184184840,1698184186186,\Highly agree\,\Highly agree\,\4\,1698184185342,1698184185342,502,502,1346,buq,qns-item-noham,65,4119524,0.0-1.0-0.64
<b>Wishful thinking causes a lot of problems.,Highly disagree,66/150,Highly disagree,1,1698184186188,1698184190111,\Highly agree\,\Highly disagree\,\4\,1698184186934,1698184189433,746,3245,3923,buq,qns-item-noham,66,4123449,0.0-1.0-0.65
<b>I judge a food item only once I try it many times.,Highly disagree,67/150,Highly agree,4,1698184190114,1698184193924,\Highly agree\,\Highly agree\,\4\,1698184191320,1698184193382,1206,3268,3810,buq,qns-item-noham,67,4127262,0.0-1.0-0.66
"<b>When a person holds conflicting beliefs, they should really try to figure out what?s wrong.",Highly disagree,68/150,Highly agree,4,1698184193926,1698184198026,\Highly agree\,\Highly agree\,\4\,1698184197486,1698184197486,3560,3560,4100,buq,qns-item-noham,68,4131364,0.0-1.0-0.67
<b>Knowing what?s important in life is easy.,Highly disagree,69/150,Highly agree,4,1698184198030,1698184201682,\Highly agree\,\Highly agree\,\4\,1698184200530,1698184200530,2500,2500,3652,buq,qns-item-noham,69,4135020,0.0-1.0-0.68
<b>Lots of smart people disagree about basic political questions.,Highly disagree,70/150,Highly agree,4,1698184201686,1698184205787,\Highly agree\,\Highly agree\,\4\,1698184205324,1698184205324,3638,3638,4101,buq,qns-item-noham,70,4139125,0.0-1.0-0.69
<b>I swim across the Atlantic Ocean to get to work every day.,Highly disagree,71/150,Highly disagree,1,1698184205791,1698184207539,\Highly disagree\,\Highly disagree\,\1\,1698184207032,1698184207032,1241,1241,1748,buq,qns-item-noham,71,4140877,0.0-1.0-0.70
"<b>Sometimes, you just have to ignore evidence that you know is wrong.",Highly disagree,72/150,Highly disagree,1,1698184207543,1698184210307,\Highly disagree\,\Highly disagree\,\1\,1698184209769,1698184209769,2226,2226,2764,buq,qns-item-noham,72,4143645,0.0-1.0-0.71
<b>I have had some false beliefs.,Highly disagree,73/150,Highly agree,4,1698184210310,1698184212295,\Highly agree\,\Highly agree\,\4\,1698184211824,1698184211824,1514,1514,1985,buq,qns-item-noham,73,4145633,0.0-1.0-0.72
"<b>If one friend does something that upsets me, I sometimes start to distrust people in general.",Highly disagree,74/150,Highly disagree,1,1698184212298,1698184248967,\Highly agree\,\Highly disagree\,\4\,1698184237497,1698184247354,25199,35056,36669,buq,qns-item-noham,74,4182305,0.0-1.0-0.73
<b>I easily apply what I learn in one situation to another.,Highly disagree,75/150,Highly agree,4,1698184248971,1698184253717,\Highly agree\,\Highly agree\,\4\,1698184251786,1698184251786,2815,2815,4746,buq,qns-item-noham,75,4187056,0.0-1.0-0.74
<b>The facts about most important matters are easy to find.,Highly disagree,76/150,Somewhat disagree,2,1698184253721,1698184257724,\Highly agree\,\Somewhat disagree\,\4\,1698184255257,1698184257242,1536,3521,4003,buq,qns-item-noham,76,4191062,0.0-1.0-0.75
<b>It?s better to know what?s true than to know what?s moral.,Highly disagree,77/150,Highly agree,4,1698184257726,1698184260105,\Highly agree\,\Highly agree\,\4\,1698184258769,1698184258769,1043,1043,2379,buq,qns-item-noham,77,4193443,0.0-1.0-0.76
<b>It?s good to be skeptical of people you agree with.,Highly disagree,78/150,Highly agree,4,1698184260108,1698184263546,\Highly agree\,\Highly agree\,\4\,1698184262060,1698184262060,1952,1952,3438,buq,qns-item-noham,78,4196884,0.0-1.0-0.77
<b>Sometimes reasonable beliefs are wrong.,Highly disagree,79/150,Highly agree,4,1698184263548,1698184265503,\Highly agree\,\Highly agree\,\4\,1698184264492,1698184264492,944,944,1955,buq,qns-item-noham,79,4198841,0.0-1.0-0.78
<b>I used to think the world was less complicated than I do now.,Highly disagree,80/150,Highly agree,4,1698184265506,1698184268241,\Highly agree\,\Highly agree\,\4\,1698184266132,1698184266132,626,626,2735,buq,qns-item-noham,80,4201579,0.0-1.0-0.79
<b>People are usually completely right or completely wrong.,Highly disagree,81/150,Highly disagree,1,1698184268245,1698184270805,\Highly agree\,\Highly disagree\,\4\,1698184268887,1698184270354,642,2109,2560,buq,qns-item-noham,81,4204143,0.0-1.0-0.80
<b>I spend a lot of time considering alternatives to my beliefs.,Highly disagree,82/150,Highly agree,4,1698184270809,1698184538415,\Highly agree\,\Highly agree\,\4\,1698184537942,1698184537942,267133,267133,267606,buq,qns-item-noham,82,4471753,0.0-1.0-0.81
"<b>Political enemies need to be defeated, not convinced.",Highly disagree,83/150,Highly disagree,1,1698184538425,1698184545222,\Somewhat disagree\,\Highly disagree\,\2\,1698184541742,1698184542710,3317,4285,6797,buq,qns-item-noham,83,4478560,0.0-1.0-0.82
"<b>When forming an opinion about a restaurant, I am more swayed by my  latest meal there than  previous meals I?ve had there.",Highly disagree,84/150,Somewhat disagree,2,1698184545235,1698184617039,\Highly agree\,\Somewhat disagree\,\4\,1698184614064,1698184615543,68829,70308,71804,buq,qns-item-noham,84,4550377,0.0-1.0-0.83
<b>I try to remain skeptical about most topics.,Highly disagree,85/150,Highly agree,4,1698184617044,1698184630136,\Highly agree\,\Highly agree\,\4\,1698184618623,1698184618623,1579,1579,13092,buq,qns-item-noham,85,4563474,0.0-1.0-0.84
<b>Being wrong is usually obvious in retrospect.,Highly disagree,86/150,Highly disagree,1,1698184630140,1698184633015,\Highly disagree\,\Highly disagree\,\1\,1698184632432,1698184632432,2292,2292,2875,buq,qns-item-noham,86,4566353,0.0-1.0-0.85
<b>It can be hard to realize that my beliefs are in conflict.,Highly disagree,87/150,Highly agree,4,1698184633020,1698184636808,\Highly agree\,\Highly agree\,\4\,1698184634047,1698184634071,1027,1051,3788,buq,qns-item-noham,87,4570147,0.0-1.0-0.86
<b>I form my political views only after meticulously gathering historical and present information about their policies.,Highly disagree,88/150,Highly agree,4,1698184636812,1698184639359,\Highly agree\,\Highly agree\,\4\,1698184638496,1698184638496,1684,1684,2547,buq,qns-item-noham,88,4572697,0.0-1.0-0.87
<b>Skeptical people are usually just bad-tempered.,Highly disagree,89/150,Highly disagree,1,1698184639362,1698184643176,\Highly disagree\,\Highly disagree\,\1\,1698184642271,1698184642456,2909,3094,3814,buq,qns-item-noham,89,4576514,0.0-1.0-0.88
<b>It is difficult for me to remember the last time I was surprised by politics.,Highly disagree,90/150,Highly disagree,1,1698184643180,1698184695560,\Highly disagree\,\Highly disagree\,\1\,1698184694968,1698184694968,51788,51788,52380,buq,qns-item-noham,90,4628898,0.0-1.0-0.89
"<b>When I find out I?m wrong, I think a lot about my related beliefs.",Highly disagree,91/150,Highly agree,4,1698184695563,1698184698124,\Highly agree\,\Highly agree\,\4\,1698184696920,1698184696920,1357,1357,2561,buq,qns-item-noham,91,4631462,0.0-1.0-0.90
"<b>If the political party I support messes up, it makes me think you can?t trust anyone these days",Highly disagree,92/150,Highly disagree,1,1698184698126,1698184701448,\Somewhat disagree\,\Highly disagree\,\2\,1698184700384,1698184700826,2258,2700,3322,buq,qns-item-noham,92,4634786,0.0-1.0-0.91
<b>People?s brains turn off when they talk about politics.,Highly disagree,93/150,Highly disagree,1,1698184701453,1698184703425,\Highly disagree\,\Highly disagree\,\1\,1698184702944,1698184702944,1491,1491,1972,buq,qns-item-noham,93,4636763,0.0-1.0-0.92
<b>People who are wrong are usually just ignoring the obvious.,Highly disagree,94/150,Highly disagree,1,1698184703429,1698184706409,\Highly disagree\,\Highly disagree\,\1\,1698184705825,1698184705825,2396,2396,2980,buq,qns-item-noham,94,4639747,0.0-1.0-0.93
"<b>The world isn?t that complicated, but it?s still hard to figure out how it works.",Highly disagree,95/150,Highly agree,4,1698184706413,1698184715083,\Highly disagree\,\Highly agree\,\1\,1698184710920,1698184713664,4507,7251,8670,buq,qns-item-noham,95,4648421,0.0-1.0-0.94
"<b>When forming my views on people, I rely more on what they are like now rather than rely on my past experience with them.",Highly disagree,96/150,Highly agree,4,1698184715087,1698184724572,\Highly agree\,\Highly agree\,\4\,1698184720806,1698184720806,5719,5719,9485,buq,qns-item-noham,96,4657910,0.0-1.0-0.95
"<b>When people contradict my beliefs, I usually know about their evidence already.",Highly disagree,97/150,Somewhat agree,3,1698184724575,1698184734311,\Highly disagree\,\Somewhat agree\,\1\,1698184727292,1698184733808,2717,9233,9736,buq,qns-item-noham,97,4667649,0.0-1.0-0.96
<b>Being wrong is a matter of degree.,Highly disagree,98/150,Somewhat agree,3,1698184734313,1698184739980,\Highly disagree\,\Somewhat agree\,\1\,1698184736732,1698184739565,2419,5252,5667,buq,qns-item-noham,98,4673319,0.0-1.0-0.97
<b>Figuring out what?s true and what?s false mainly requires a strong moral compass.,Highly disagree,99/150,Somewhat disagree,2,1698184739985,1698184743792,\Highly agree\,\Somewhat disagree\,\4\,1698184742038,1698184742999,2053,3014,3807,buq,qns-item-noham,99,4677130,0.0-1.0-0.98
<b>Most of the beliefs people have are at least somewhat understandable.,Highly disagree,100/150,Highly agree,4,1698184743796,1698184746497,\Highly agree\,\Highly agree\,\4\,1698184745409,1698184745409,1613,1613,2701,buq,qns-item-noham,100,4679835,0.0-1.0-0.99
"<b>Usually I?m wrong about simple things, not complicated ones.",Highly disagree,101/150,Somewhat disagree,2,1698184746499,1698184751341,\Somewhat disagree\,\Somewhat disagree\,\2\,1698184750887,1698184750887,4388,4388,4842,buq,qns-item-noham,101,4684679,0.0-1.0-0.100
<b>Getting all the information I want about important things is hard.,Highly disagree,102/150,Highly agree,4,1698184751344,1698184754432,\Somewhat agree\,\Highly agree\,\3\,1698184753587,1698184753987,2243,2643,3088,buq,qns-item-noham,102,4687770,0.0-1.0-0.101
<b>Most false beliefs spread because people try to deceive one another.,Highly disagree,103/150,Somewhat disagree,2,1698184754436,1698184757150,\Somewhat disagree\,\Somewhat disagree\,\2\,1698184756595,1698184756595,2159,2159,2714,buq,qns-item-noham,103,4690488,0.0-1.0-0.102
<b>I can usually find something to agree with in most people?s beliefs.,Highly disagree,104/150,Highly agree,4,1698184757155,1698184820367,\Highly agree\,\Highly agree\,\4\,1698184819836,1698184819836,62681,62681,63212,buq,qns-item-noham,104,4753705,0.0-1.0-0.103
<b>I only form my views of people once I get to know them very well.,Highly disagree,105/150,Highly agree,4,1698184820374,1698184825181,\Highly disagree\,\Highly agree\,\1\,1698184822805,1698184824574,2431,4200,4807,buq,qns-item-noham,105,4758519,0.0-1.0-0.104
"<b>When people tell me important things about the world, I usually believe them.",Highly disagree,106/150,Highly disagree,1,1698184825184,1698184828970,\Highly agree\,\Highly disagree\,\4\,1698184825935,1698184828433,751,3249,3786,buq,qns-item-noham,106,4762308,0.0-1.0-0.105
"<b>If a friend does something that upsets me, it reminds me what an unpredictable place the world is.",Highly disagree,107/150,Highly disagree,1,1698184828974,1698184832453,\Highly agree\,\Highly disagree\,\4\,1698184830040,1698184831586,1066,2612,3479,buq,qns-item-noham,107,4765791,0.0-1.0-0.106
<b>Having some conflicting beliefs is inevitable.,Highly disagree,108/150,Highly agree,4,1698184832455,1698184834421,\Highly agree\,\Highly agree\,\4\,1698184833742,1698184833742,1287,1287,1966,buq,qns-item-noham,108,4767759,0.0-1.0-0.107
<b>People are wrong because they haven?t thought much about things.,Highly disagree,109/150,Somewhat agree,3,1698184834426,1698184838036,\Highly agree\,\Somewhat agree\,\4\,1698184834905,1698184837526,479,3100,3610,buq,qns-item-noham,109,4771374,0.0-1.0-0.108
<b>People tend to believe whatever is good for their friends.,Highly disagree,110/150,Highly disagree,1,1698184838038,1698184840815,\Highly disagree\,\Highly disagree\,\1\,1698184840365,1698184840365,2327,2327,2777,buq,qns-item-noham,110,4774153,0.0-1.0-0.109
"<b>When I talk about important topics, I try to make sure people know I?m not always right.",Highly disagree,111/150,Highly agree,4,1698184840817,1698184845582,\Highly agree\,\Highly agree\,\4\,1698184844851,1698184844851,4034,4034,4765,buq,qns-item-noham,111,4778920,0.0-1.0-0.110
<b>I used to be more certain my beliefs were true.,Highly disagree,112/150,Somewhat agree,3,1698184845584,1698184848722,\Highly agree\,\Somewhat agree\,\4\,1698184846325,1698184848154,741,2570,3138,buq,qns-item-noham,112,4782061,0.0-1.0-0.111
<b>It?s often pretty easy to figure out whether something is true based on who said it.,Highly disagree,113/150,Highly disagree,1,1698184848726,1698184851658,\Somewhat disagree\,\Highly disagree\,\2\,1698184850803,1698184851296,2077,2570,2932,buq,qns-item-noham,113,4784996,0.0-1.0-0.112
<b>Having bad food in my favorite restaurant will make me think the restaurant is no longer good.,Highly disagree,114/150,Highly disagree,1,1698184851662,1698184855396,\Highly disagree\,\Highly disagree\,\1\,1698184854789,1698184854789,3127,3127,3734,buq,qns-item-noham,114,4788734,0.0-1.0-0.113
<b>I transform into a hummingbird every day.,Highly disagree,115/150,Highly disagree,1,1698184855399,1698184857182,\Highly disagree\,\Highly disagree\,\1\,1698184856761,1698184856761,1362,1362,1783,buq,qns-item-noham,115,4790520,0.0-1.0-0.114
"<b>Unfortunately, when people are wrong, it?s usually because they?re bad.",Highly disagree,116/150,Highly disagree,1,1698184857188,1698184873093,\Highly disagree\,\Highly disagree\,\1\,1698184872566,1698184872566,15378,15378,15905,buq,qns-item-noham,116,4806431,0.0-1.0-0.115
<b>I think a lot about arguments against my views.,Highly disagree,117/150,Highly agree,4,1698184873096,1698184877645,\Highly disagree\,\Highly agree\,\1\,1698184874589,1698184877185,1493,4089,4549,buq,qns-item-noham,117,4810983,0.0-1.0-0.116
<b>Details tend to matter a lot for knowing whether a policy is good.,Highly disagree,118/150,Highly agree,4,1698184877649,1698185448944,\Highly agree\,\Highly agree\,\4\,1698185446187,1698185446187,568538,568538,571295,buq,qns-item-noham,118,5382282,0.0-1.0-0.117
<b>Personal experience is usually more important than facts and figures.,Highly disagree,119/150,Highly disagree,1,1698185448947,1698185476480,\Highly agree\,\Highly disagree\,\4\,1698185475384,1698185476027,26437,27080,27533,buq,qns-item-noham,119,5409818,0.0-1.0-0.118
<b>I?ve been tricked before about important matters.,Highly disagree,120/150,Somewhat agree,3,1698185476484,1698185480416,\Somewhat agree\,\Somewhat agree\,\3\,1698185479354,1698185479390,2870,2906,3932,buq,qns-item-noham,120,5413754,0.0-1.0-0.119
<b>I would need to be totally wowed if I were to change my opinion of a restaurant I don?t like.,Highly disagree,121/150,Highly disagree,1,1698185480422,1698185486209,\Highly disagree\,\Highly disagree\,\1\,1698185483372,1698185483372,2950,2950,5787,buq,qns-item-noham,121,5419547,0.0-1.0-0.120
<b>I care a lot about politics.,Highly disagree,122/150,Highly agree,4,1698185486211,1698185487698,\Highly agree\,\Highly agree\,\4\,1698185487228,1698185487228,1017,1017,1487,buq,qns-item-noham,122,5421036,0.0-1.0-0.121
<b>People with conflicting beliefs usually have some facts they disagree on.,Highly disagree,123/150,Highly agree,4,1698185487700,1698185489837,\Highly agree\,\Highly agree\,\4\,1698185488706,1698185488706,1006,1006,2137,buq,qns-item-noham,123,5423175,0.0-1.0-0.122
<b>There are some topics I?ve been really wrong about.,Highly disagree,124/150,Highly agree,4,1698185489840,1698185491242,\Highly agree\,\Highly agree\,\4\,1698185490445,1698185490445,605,605,1402,buq,qns-item-noham,124,5424580,0.0-1.0-0.123
<b>Most beliefs can be supported with at least some evidence.,Highly disagree,125/150,Highly agree,4,1698185491246,1698185497118,\Highly agree\,\Highly agree\,\4\,1698185491808,1698185491808,562,562,5872,buq,qns-item-noham,125,5430456,0.0-1.0-0.124
<b>Other people make life out to be more complicated than it really is.,Highly disagree,126/150,Highly disagree,1,1698185497122,1698185500950,\Highly agree\,\Highly disagree\,\4\,1698185499989,1698185500464,2867,3342,3828,buq,qns-item-noham,126,5434288,0.0-1.0-0.125
"<b>My political views are being shaped continuously as I gather more information, rather than relying on what I?ve known to be true of my party in the past. ",Highly disagree,127/150,Highly agree,4,1698185500955,1698185648733,\Highly agree\,\Highly agree\,\4\,1698185645353,1698185648194,144398,147239,147778,buq,qns-item-noham,127,5582071,0.0-1.0-0.126
<b>It?s pretty unusual for true things to seem false.,Highly disagree,128/150,Highly disagree,1,1698185648740,1698185653939,\Highly agree\,\Highly disagree\,\4\,1698185649796,1698185653476,1056,4736,5199,buq,qns-item-noham,128,5587277,0.0-1.0-0.127
"<b>Policy details don?t matter much, just the big picture.",Highly disagree,129/150,Highly disagree,1,1698185653942,1698185737625,\Highly disagree\,\Highly disagree\,\1\,1698185737104,1698185737104,83162,83162,83683,buq,qns-item-noham,129,5670963,0.0-1.0-0.128
<b>I know my friends so well they can hardly ever surprise me.,Highly disagree,130/150,Highly disagree,1,1698185737628,1698185739612,\Highly disagree\,\Highly disagree\,\1\,1698185739174,1698185739174,1546,1546,1984,buq,qns-item-noham,130,5672950,0.0-1.0-0.129
"<b>When I talk to people, I often think about why they have the beliefs they do.",Highly disagree,131/150,Highly agree,4,1698185739615,1698185742471,\Highly agree\,\Highly agree\,\4\,1698185742004,1698185742004,2389,2389,2856,buq,qns-item-noham,131,5675809,0.0-1.0-0.130
<b>I do not often change my views on people.,Highly disagree,132/150,Highly disagree,1,1698185742474,1698185746016,\Highly agree\,\Highly disagree\,\4\,1698185743292,1698185745434,818,2960,3542,buq,qns-item-noham,132,5679354,0.0-1.0-0.131
<b>I often wish I had more time to spend figuring out what?s true and what?s false in life.,Highly disagree,133/150,Highly agree,4,1698185746018,1698185749599,\Highly agree\,\Highly agree\,\4\,1698185749145,1698185749145,3127,3127,3581,buq,qns-item-noham,133,5682937,0.0-1.0-0.132
<b>I?m more certain about my beliefs than I used to be.,Highly disagree,134/150,Highly disagree,1,1698185749602,1698185752317,\Highly disagree\,\Highly disagree\,\1\,1698185751486,1698185751486,1884,1884,2715,buq,qns-item-noham,134,5685655,0.0-1.0-0.133
"<b>Whenever I find out new information, I update my views on politics accordingly.",Highly disagree,135/150,Highly agree,4,1698185752321,1698185754133,\Highly agree\,\Highly agree\,\4\,1698185753463,1698185753463,1142,1142,1812,buq,qns-item-noham,135,5687471,0.0-1.0-0.134
<b>People often tell falsehoods unintentionally.,Highly disagree,136/150,Highly agree,4,1698185754137,1698185820896,\Highly agree\,\Highly agree\,\4\,1698185755045,1698185820472,908,66335,66759,buq,qns-item-noham,136,5754234,0.0-1.0-0.135
<b>Most people don?t know much about most things.,Highly disagree,137/150,Highly agree,4,1698185820899,1698185823438,\Highly agree\,\Highly agree\,\4\,1698185821550,1698185821550,651,651,2539,buq,qns-item-noham,137,5756776,0.0-1.0-0.136
"<b>If I find out something new about someone, I easily change my views about them.",Highly disagree,138/150,Highly agree,4,1698185823440,1698185825816,\Highly agree\,\Highly agree\,\4\,1698185824138,1698185824138,698,698,2376,buq,qns-item-noham,138,5759154,0.0-1.0-0.137
<b>Having true beliefs is difficult.,Highly disagree,139/150,Highly agree,4,1698185825820,1698185827455,\Highly agree\,\Highly agree\,\4\,1698185826339,1698185826339,519,519,1635,buq,qns-item-noham,139,5760793,0.0-1.0-0.138
<b>I don?t try new foods since I know I won?t like them.,Highly disagree,140/150,Highly disagree,1,1698185827459,1698185830080,\Highly disagree\,\Highly disagree\,\1\,1698185829504,1698185829504,2045,2045,2621,buq,qns-item-noham,140,5763419,0.0-1.0-0.139
<b>It?s easy to figure out what?s true or false based on who?s saying it.,Highly disagree,141/150,Highly agree,4,1698185830083,1698185919972,\Highly agree\,\Highly agree\,\4\,1698185833159,1698185833159,3076,3076,89889,buq,qns-item-noham,141,5853310,0.0-1.0-0.140
<b>False things have seemed true to me many times.,Highly disagree,142/150,Highly agree,4,1698185919976,1698185923384,\Highly agree\,\Highly agree\,\4\,1698185922961,1698185922961,2985,2985,3408,buq,qns-item-noham,142,5856722,0.0-1.0-0.141
<b>It?s pretty easy to sort out what?s true and what?s false in life.,Highly disagree,143/150,Highly disagree,1,1698185923389,1698185925874,\Highly disagree\,\Highly disagree\,\1\,1698185925370,1698185925370,1981,1981,2485,buq,qns-item-noham,143,5859212,0.0-1.0-0.142
<b>Knowing lots of statistics about something is usually important for understanding it.,Highly disagree,144/150,Highly agree,4,1698185925878,1698185928330,\Highly agree\,\Highly agree\,\4\,1698185927546,1698185927546,1668,1668,2452,buq,qns-item-noham,144,5861668,0.0-1.0-0.143
<b>Other people trick each other a lot.,Highly disagree,145/150,Highly agree,4,1698185928332,1698185929892,\Highly agree\,\Highly agree\,\4\,1698185929160,1698185929160,828,828,1560,buq,qns-item-noham,145,5863230,0.0-1.0-0.144
<b>I would need to learn a lot about a person for my opinion of them to be swayed.,Highly disagree,146/150,Highly agree,4,1698185929895,1698185933941,\Highly agree\,\Highly agree\,\4\,1698185930676,1698185930676,781,781,4046,buq,qns-item-noham,146,5867279,0.0-1.0-0.145
<b>People can?t usually trick me when it comes to topics I care about.,Highly disagree,147/150,Somewhat disagree,2,1698185933944,1698185951313,\Highly agree\,\Somewhat disagree\,\4\,1698185934926,1698185950880,982,16936,17369,buq,qns-item-noham,147,5884651,0.0-1.0-0.146
<b>I do not often change my views on food.,Highly disagree,148/150,Highly disagree,1,1698185951315,1698185953846,\Highly disagree\,\Highly disagree\,\1\,1698185953381,1698185953381,2066,2066,2531,buq,qns-item-noham,148,5887184,0.0-1.0-0.147
<b>Specific policies are often very important to me.,Highly disagree,149/150,Highly agree,4,1698185953849,1698186103762,\Highly disagree\,\Highly agree\,\1\,1698186097354,1698186102764,143505,148915,149913,buq,qns-item-noham,149,6037100,0.0-1.0-0.148
<b>Most people are woefully under-informed.,Highly disagree,150/150,Highly agree,4,1698186103766,1698186106029,\Highly agree\,\Highly agree\,\4\,1698186105179,1698186105179,1413,1413,2263,buq,qns-item-noham,150,6039367,0.0-1.0-0.149
