Question,qns_options,quest_num,answer,answer_num,question_load_timestamp,next_btn_timestamp,text_selected,final_text_selected,option_num_selected,preview_timestamps,final_text_selected_time_stamp,rt_first_option_click,rt_final_option_click,rt_submit_click,questionnaire,trial_type,trial_index,time_elapsed,internal_node_id
<b>Considering other people?s perspectives can help us figure out what?s true or false.,Highly disagree,1/150,Highly agree,4,1698239219973,1698239232321,\Highly agree\,\Highly agree\,\4\,1698239229937,1698239229937,9964,9964,12348,buq,qns-item-noham,1,21362,0.0-1.0-0.0
<b>Knowing what?s true and knowing what to do about it are usually basically the same.,Highly disagree,2/150,Somewhat agree,3,1698239232323,1698239239207,\Somewhat agree\,\Somewhat agree\,\3\,1698239237573,1698239237573,5250,5250,6884,buq,qns-item-noham,2,28248,0.0-1.0-0.1
<b>Most people just believe whatever is convenient for them.,Highly disagree,3/150,Somewhat agree,3,1698239239212,1698239248168,\Somewhat agree\,\Somewhat agree\,\3\,1698239244524,1698239247094,5312,7882,8956,buq,qns-item-noham,3,37209,0.0-1.0-0.2
<b>Even people who are wrong about most things can be right sometimes.,Highly disagree,4/150,Highly agree,4,1698239248172,1698239256472,\Highly agree\,\Highly agree\,\4\,1698239255157,1698239255157,6985,6985,8300,buq,qns-item-noham,4,45513,0.0-1.0-0.3
"<b>If the political party I support does something that upsets me, then the party may have changed, and I need to re-evaluate my support.",Highly disagree,5/150,Somewhat agree,3,1698239256474,1698239273652,\Somewhat disagree\,\Somewhat agree\,\2\,1698239265901,1698239270627,9427,14153,17178,buq,qns-item-noham,5,62693,0.0-1.0-0.4
"<b>When people disagree, one side is usually completely right.",Highly disagree,6/150,Somewhat agree,3,1698239273656,1698239283305,\Somewhat agree\,\Somewhat agree\,\3\,1698239281861,1698239281861,8205,8205,9649,buq,qns-item-noham,6,72346,0.0-1.0-0.5
<b>People have lots of false beliefs.,Highly disagree,7/150,Somewhat agree,3,1698239283307,1698239294290,\Somewhat agree\,\Somewhat agree\,\3\,1698239292473,1698239292473,9166,9166,10983,buq,qns-item-noham,7,83331,0.0-1.0-0.6
<b>Having some big beliefs helps me sort out minor ones.,Highly disagree,8/150,Highly agree,4,1698239294293,1698239300484,\Highly agree\,\Highly agree\,\4\,1698239298506,1698239298506,4213,4213,6191,buq,qns-item-noham,8,89525,0.0-1.0-0.7
<b>Political questions are usually pretty complicated.,Highly disagree,9/150,Somewhat agree,3,1698239300486,1698239312595,\Somewhat disagree\,\Somewhat agree\,\2\,1698239309999,1698239310149,9513,9663,12109,buq,qns-item-noham,9,101637,0.0-1.0-0.8
<b>Figuring out what?s important in life requires learning a lot of facts.,Highly disagree,10/150,Highly agree,4,1698239312598,1698239324002,\Highly agree\,\Highly agree\,\4\,1698239317773,1698239317773,5175,5175,11404,buq,qns-item-noham,10,113043,0.0-1.0-0.9
<b>It is difficult for me to remember the last time I was surprised by politics.,Highly disagree,11/150,Somewhat agree,3,1698239324004,1698239333517,\Somewhat agree\,\Somewhat agree\,\3\,1698239330987,1698239330987,6983,6983,9513,buq,qns-item-noham,11,122558,0.0-1.0-0.10
<b>People?s false beliefs are understandable.,Highly disagree,12/150,Somewhat disagree,2,1698239333520,1698239341615,\Somewhat disagree\,\Somewhat disagree\,\2\,1698239338583,1698239338583,5063,5063,8095,buq,qns-item-noham,12,130656,0.0-1.0-0.11
<b>I spend a lot of time trying to be informed about politics.,Highly disagree,13/150,Somewhat agree,3,1698239341618,1698239348465,\Somewhat agree\,\Somewhat agree\,\3\,1698239346120,1698239346120,4502,4502,6847,buq,qns-item-noham,13,137506,0.0-1.0-0.12
<b>I think a lot about whether my beliefs are right.,Highly disagree,14/150,Highly agree,4,1698239348467,1698239356601,\Somewhat agree\,\Highly agree\,\3\,1698239353323,1698239354590,4856,6123,8134,buq,qns-item-noham,14,145642,0.0-1.0-0.13
<b>Statistics can be pretty misleading sometimes.,Highly disagree,15/150,Somewhat agree,3,1698239356604,1698239363592,\Somewhat agree\,\Somewhat agree\,\3\,1698239361173,1698239361173,4569,4569,6988,buq,qns-item-noham,15,152633,0.0-1.0-0.14
<b>Figuring out what?s true and what?s false takes a lot of time and effort.,Highly disagree,16/150,Somewhat agree,3,1698239363594,1698239373925,\Somewhat agree\,\Somewhat agree\,\3\,1698239370955,1698239370955,7361,7361,10331,buq,qns-item-noham,16,162966,0.0-1.0-0.15
"<b>If a friend does something bad to me, it was likely an error on their part.",Highly disagree,17/150,Somewhat agree,3,1698239373927,1698239381690,\Somewhat agree\,\Somewhat agree\,\3\,1698239379911,1698239379911,5984,5984,7763,buq,qns-item-noham,17,170731,0.0-1.0-0.16
<b>I have lots of beliefs that I?m only sort of sure about.,Highly disagree,18/150,Highly agree,4,1698239381692,1698239391510,\Highly agree\,\Highly agree\,\4\,1698239390026,1698239390026,8334,8334,9818,buq,qns-item-noham,18,180551,0.0-1.0-0.17
"<b>If I go to my favorite restaurant and the food is surprisingly bad, it reminds me there are many disappointments in life.",Highly disagree,19/150,Somewhat disagree,2,1698239391513,1698239406163,\Somewhat disagree\,\Somewhat disagree\,\2\,1698239404719,1698239404719,13206,13206,14650,buq,qns-item-noham,19,195204,0.0-1.0-0.18
<b>Sometimes my beliefs are inconvenient for me.,Highly disagree,20/150,Somewhat agree,3,1698239406164,1698239414925,\Somewhat agree\,\Somewhat agree\,\3\,1698239412005,1698239412005,5841,5841,8761,buq,qns-item-noham,20,203966,0.0-1.0-0.19
<b>Paying attention to multiple news sources is important.,Highly disagree,21/150,Highly agree,4,1698239414928,1698239424300,\Highly agree\,\Highly agree\,\4\,1698239422363,1698239422363,7435,7435,9372,buq,qns-item-noham,21,213341,0.0-1.0-0.20
"<b>If you are paying attention, please select ?Somewhat agree?",Highly disagree,22/150,Somewhat agree,3,1698239424302,1698239431089,\Somewhat agree\,\Somewhat agree\,\3\,1698239429022,1698239429022,4720,4720,6787,buq,qns-item-noham,22,220131,0.0-1.0-0.21
"<b>When I talk to others, I often worry I?ll convince them of something I didn?t mean to.",Highly disagree,23/150,Somewhat disagree,2,1698239431092,1698239438889,\Somewhat disagree\,\Somewhat disagree\,\2\,1698239437526,1698239437526,6434,6434,7797,buq,qns-item-noham,23,227930,0.0-1.0-0.22
<b>I would need to learn something utterly shocking about my party in order to change my political views.,Highly disagree,24/150,Somewhat agree,3,1698239438890,1698239447820,\Somewhat agree\,\Somewhat agree\,\3\,1698239443287,1698239443287,4397,4397,8930,buq,qns-item-noham,24,236861,0.0-1.0-0.23
"<b>When I have new experiences, I tend to think of them as unique.",Highly disagree,25/150,Somewhat agree,3,1698239447822,1698239456073,\Somewhat agree\,\Somewhat agree\,\3\,1698239454528,1698239454528,6706,6706,8251,buq,qns-item-noham,25,245114,0.0-1.0-0.24
<b>Reading lots of things is important for understanding the world.,Highly disagree,26/150,Highly agree,4,1698239456075,1698239462903,\Highly agree\,\Highly agree\,\4\,1698239460850,1698239460850,4775,4775,6828,buq,qns-item-noham,26,251944,0.0-1.0-0.25
<b>The world is complicated.,Highly disagree,27/150,Somewhat agree,3,1698239462906,1698239468303,\Somewhat agree\,\Somewhat agree\,\3\,1698239466255,1698239466255,3349,3349,5397,buq,qns-item-noham,27,257344,0.0-1.0-0.26
<b>I change my mind about specific policies pretty frequently.,Highly disagree,28/150,Somewhat disagree,2,1698239468306,1698239475782,\Somewhat disagree\,\Somewhat disagree\,\2\,1698239474180,1698239474180,5874,5874,7476,buq,qns-item-noham,28,264823,0.0-1.0-0.27
"<b>If a politician in my political party supports something I disagree with, I give them the benefit of the doubt, as such issues often involve hidden complexities that aren?t obvious.   ",Highly disagree,29/150,Somewhat agree,3,1698239475785,1698239499541,\Somewhat disagree\,\Somewhat agree\,\2\,1698239494689,1698239496306,18904,20521,23756,buq,qns-item-noham,29,288582,0.0-1.0-0.28
<b>People?s bad politics are usually motivated by hatefulness.,Highly disagree,30/150,Highly agree,4,1698239499544,1698239509510,\Somewhat agree\,\Highly agree\,\3\,1698239506392,1698239508039,6848,8495,9966,buq,qns-item-noham,30,298551,0.0-1.0-0.29
"<b>Most new experiences are just like old ones, but a little bit different.",Highly disagree,31/150,Somewhat agree,3,1698239509513,1698239528496,\Somewhat agree\,\Somewhat agree\,\3\,1698239526554,1698239526554,17041,17041,18983,buq,qns-item-noham,31,317537,0.0-1.0-0.30
<b>I think a lot about how to reconcile my beliefs with one another.,Highly disagree,32/150,Highly agree,4,1698239528498,1698239536207,\Highly agree\,\Highly agree\,\4\,1698239534423,1698239534423,5925,5925,7709,buq,qns-item-noham,32,325248,0.0-1.0-0.31
<b>Personal experience rarely leads people astray.,Highly disagree,33/150,Somewhat agree,3,1698239536208,1698239543545,\Somewhat agree\,\Somewhat agree\,\3\,1698239541765,1698239541765,5557,5557,7337,buq,qns-item-noham,33,332586,0.0-1.0-0.32
<b>I might have false beliefs about important topics.,Highly disagree,34/150,Somewhat disagree,2,1698239543547,1698239564773,\Somewhat disagree\,\Somewhat disagree\,\2\,1698239559628,1698239563011,16081,19464,21226,buq,qns-item-noham,34,353814,0.0-1.0-0.33
"<b>If a good friend of mine does something unexpected that upsets me, I feel like I don?t know them anymore.",Highly disagree,35/150,Somewhat agree,3,1698239564774,1698239577411,\Somewhat agree\,\Somewhat agree\,\3\,1698239571769,1698239575778,6995,11004,12637,buq,qns-item-noham,35,366452,0.0-1.0-0.34
<b>Other people?s beliefs are often incoherent.,Highly disagree,36/150,Somewhat agree,3,1698239577413,1698239594319,\Somewhat agree\,\Somewhat agree\,\3\,1698239591407,1698239591407,13994,13994,16906,buq,qns-item-noham,36,383360,0.0-1.0-0.35
<b>It?s important to have friends who think about things differently than I do.,Highly disagree,37/150,Somewhat agree,3,1698239594321,1698239608102,\Somewhat agree\,\Somewhat agree\,\3\,1698239602448,1698239602448,8127,8127,13781,buq,qns-item-noham,37,397143,0.0-1.0-0.36
"<b>Every now and then, a new experience will unsettle beliefs I?ve had for a while.",Highly disagree,38/150,Somewhat agree,3,1698239608104,1698239618934,\Somewhat agree\,\Somewhat agree\,\3\,1698239617129,1698239617129,9025,9025,10830,buq,qns-item-noham,38,407975,0.0-1.0-0.37
<b>Some policies I agree with in principle are so bad I don?t support them. ,Highly disagree,39/150,Somewhat agree,3,1698239618936,1698239629353,\Somewhat agree\,\Somewhat agree\,\3\,1698239626224,1698239626224,7288,7288,10417,buq,qns-item-noham,39,418394,0.0-1.0-0.38
<b>I?m pretty sure I?ve accidentally spread false information.,Highly disagree,40/150,Highly disagree,1,1698239629355,1698239637751,\Highly disagree\,\Highly disagree\,\1\,1698239636166,1698239636166,6811,6811,8396,buq,qns-item-noham,40,426792,0.0-1.0-0.39
"<b>If I go to my favorite restaurant and the food is unexpectedly bad, then they have changed owners.",Highly disagree,41/150,Somewhat disagree,2,1698239637755,1698239648599,\Somewhat disagree\,\Somewhat disagree\,\2\,1698239646746,1698239646746,8991,8991,10844,buq,qns-item-noham,41,437640,0.0-1.0-0.40
"<b>In politics, it?s important to trust your friends and family.",Highly disagree,42/150,Somewhat disagree,2,1698239648601,1698239659826,\Somewhat agree\,\Somewhat disagree\,\3\,1698239655026,1698239657767,6425,9166,11225,buq,qns-item-noham,42,448867,0.0-1.0-0.41
<b>It?s OK to have some conflicting beliefs.,Highly disagree,43/150,Somewhat agree,3,1698239659828,1698239665711,\Somewhat agree\,\Somewhat agree\,\3\,1698239664022,1698239664022,4194,4194,5883,buq,qns-item-noham,43,454752,0.0-1.0-0.42
<b>Sometimes the details of a matter seem to conflict with the big picture.,Highly disagree,44/150,Highly agree,4,1698239665713,1698239672287,\Highly agree\,\Highly agree\,\4\,1698239670523,1698239670523,4810,4810,6574,buq,qns-item-noham,44,461328,0.0-1.0-0.43
<b>Listening to people I disagree with makes my opinions better.,Highly disagree,45/150,Somewhat agree,3,1698239672289,1698239678692,\Somewhat agree\,\Somewhat agree\,\3\,1698239676104,1698239676104,3815,3815,6403,buq,qns-item-noham,45,467733,0.0-1.0-0.44
<b>Policies that sound bad are sometimes fine when you find out about their details.,Highly disagree,46/150,Somewhat agree,3,1698239678694,1698239687194,\Somewhat agree\,\Somewhat agree\,\3\,1698239685223,1698239685223,6529,6529,8500,buq,qns-item-noham,46,476235,0.0-1.0-0.45
"<b>The world is always changing, so my beliefs are sometimes out-dated.",Highly disagree,47/150,Somewhat agree,3,1698239687197,1698239692662,\Somewhat agree\,\Somewhat agree\,\3\,1698239690796,1698239690796,3599,3599,5465,buq,qns-item-noham,47,481703,0.0-1.0-0.46
"<b>If I receive a bad meal at my favorite restaurant and the food is surprisingly bad, I do not think much of it, and assume the chef is just having an ?off? day.",Highly disagree,48/150,Somewhat agree,3,1698239692664,1698239703663,\Somewhat agree\,\Somewhat agree\,\3\,1698239701502,1698239701502,8838,8838,10999,buq,qns-item-noham,48,492704,0.0-1.0-0.47
"<b>False information is unavoidable, to some extent.",Highly disagree,49/150,Somewhat agree,3,1698239703665,1698239720959,\Somewhat agree\,\Somewhat agree\,\3\,1698239718777,1698239718777,15112,15112,17294,buq,qns-item-noham,49,510000,0.0-1.0-0.48
<b>My moral compass sometimes makes it harder to determine what?s true.,Highly disagree,50/150,Somewhat agree,3,1698239720961,1698239733884,\Somewhat agree\,\Somewhat agree\,\3\,1698239732378,1698239732378,11417,11417,12923,buq,qns-item-noham,50,522925,0.0-1.0-0.49
"<b>When you disagree with someone, it?s important to listen to them carefully.",Highly disagree,51/150,Highly agree,4,1698239733886,1698239747791,\Highly agree\,\Highly agree\,\4\,1698239745866,1698239745866,11980,11980,13905,buq,qns-item-noham,51,536832,0.0-1.0-0.50
<b>Evidence pointing in the wrong direction isn?t really evidence at all.,Highly disagree,52/150,Somewhat disagree,2,1698239747793,1698239755442,\Somewhat disagree\,\Somewhat disagree\,\2\,1698239753597,1698239753597,5804,5804,7649,buq,qns-item-noham,52,544483,0.0-1.0-0.51
"<b>If the political party I support messes up, it makes me think politics is rotten.",Highly disagree,53/150,Somewhat agree,3,1698239755446,1698239762312,\Somewhat agree\,\Somewhat agree\,\3\,1698239760386,1698239760386,4940,4940,6866,buq,qns-item-noham,53,551353,0.0-1.0-0.52
<b>Lots of important topics can only really be understood by some groups of people.,Highly disagree,54/150,Somewhat agree,3,1698239762314,1698239771320,\Somewhat agree\,\Somewhat agree\,\3\,1698239769621,1698239769621,7307,7307,9006,buq,qns-item-noham,54,560362,0.0-1.0-0.53
<b>Details almost always matter for being right about something.,Highly disagree,55/150,Highly agree,4,1698239771323,1698239782741,\Highly agree\,\Highly agree\,\4\,1698239778661,1698239778661,7338,7338,11418,buq,qns-item-noham,55,571782,0.0-1.0-0.54
"<b>The most important thing in politics is winning, not convincing people.",Highly disagree,56/150,Somewhat agree,3,1698239782743,1698239809609,\Somewhat agree\,\Somewhat agree\,\3\,1698239807902,1698239807902,25159,25159,26866,buq,qns-item-noham,56,598650,0.0-1.0-0.55
<b>Having conflicting beliefs means you haven?t thought about them enough.,Highly disagree,57/150,Somewhat agree,3,1698239809611,1698239819606,\Somewhat agree\,\Somewhat agree\,\3\,1698239816002,1698239816002,6391,6391,9995,buq,qns-item-noham,57,608648,0.0-1.0-0.56
<b>Other people have sometimes convinced me to change my mind on important topics.,Highly disagree,58/150,Somewhat agree,3,1698239819609,1698239841603,\Somewhat agree\,\Somewhat agree\,\3\,1698239837044,1698239837044,17435,17435,21994,buq,qns-item-noham,58,630645,0.0-1.0-0.57
<b>I do not often change my political opinions.,Highly disagree,59/150,Somewhat agree,3,1698239841606,1698239853590,\Somewhat agree\,\Somewhat agree\,\3\,1698239851693,1698239851693,10087,10087,11984,buq,qns-item-noham,59,642631,0.0-1.0-0.58
<b>Thinking about how different things relate to one another is critical in life.,Highly disagree,60/150,Somewhat agree,3,1698239853592,1698239868922,\Somewhat agree\,\Somewhat agree\,\3\,1698239865703,1698239865703,12111,12111,15330,buq,qns-item-noham,60,657964,0.0-1.0-0.59
<b>True beliefs can have unfortunate implications.,Highly disagree,61/150,Somewhat agree,3,1698239868925,1698239880999,\Somewhat agree\,\Somewhat agree\,\3\,1698239879439,1698239879439,10514,10514,12074,buq,qns-item-noham,61,670040,0.0-1.0-0.60
<b>It?s difficult to not have at least some conflicting beliefs.,Highly disagree,62/150,Somewhat disagree,2,1698239881000,1698239896817,\Somewhat agree\,\Somewhat disagree\,\3\,1698239893684,1698239895326,12684,14326,15817,buq,qns-item-noham,62,685858,0.0-1.0-0.61
"<b>When I learn new things, I think deeply about how my opinions should change.",Highly disagree,63/150,Somewhat agree,3,1698239896820,1698239906986,\Somewhat agree\,\Somewhat agree\,\3\,1698239904871,1698239904871,8051,8051,10166,buq,qns-item-noham,63,696027,0.0-1.0-0.62
<b>I think a lot about how to interpret different sorts of evidence.,Highly disagree,64/150,Somewhat agree,3,1698239906989,1698239919125,\Somewhat agree\,\Somewhat agree\,\3\,1698239916743,1698239916743,9754,9754,12136,buq,qns-item-noham,64,708166,0.0-1.0-0.63
<b>Politics is about thinking together and finding compromises.,Highly disagree,65/150,Somewhat agree,3,1698239919127,1698239928006,\Somewhat agree\,\Somewhat agree\,\3\,1698239926394,1698239926394,7267,7267,8879,buq,qns-item-noham,65,717047,0.0-1.0-0.64
<b>Wishful thinking causes a lot of problems.,Highly disagree,66/150,Somewhat disagree,2,1698239928009,1698239938092,\Somewhat disagree\,\Somewhat disagree\,\2\,1698239935972,1698239935972,7963,7963,10083,buq,qns-item-noham,66,727133,0.0-1.0-0.65
<b>I judge a food item only once I try it many times.,Highly disagree,67/150,Somewhat agree,3,1698239938094,1698239947017,\Somewhat agree\,\Somewhat agree\,\3\,1698239945132,1698239945132,7038,7038,8923,buq,qns-item-noham,67,736059,0.0-1.0-0.66
"<b>When a person holds conflicting beliefs, they should really try to figure out what?s wrong.",Highly disagree,68/150,Highly agree,4,1698239947019,1698239955562,\Highly agree\,\Highly agree\,\4\,1698239953332,1698239953332,6313,6313,8543,buq,qns-item-noham,68,744603,0.0-1.0-0.67
<b>Knowing what?s important in life is easy.,Highly disagree,69/150,Somewhat disagree,2,1698239955565,1698239963905,\Somewhat disagree\,\Somewhat disagree\,\2\,1698239962072,1698239962072,6507,6507,8340,buq,qns-item-noham,69,752946,0.0-1.0-0.68
<b>Lots of smart people disagree about basic political questions.,Highly disagree,70/150,Somewhat agree,3,1698239963907,1698239975980,\Somewhat agree\,\Somewhat agree\,\3\,1698239973582,1698239973582,9675,9675,12073,buq,qns-item-noham,70,765021,0.0-1.0-0.69
<b>I swim across the Atlantic Ocean to get to work every day.,Highly disagree,71/150,Highly disagree,1,1698239975982,1698239987648,\Highly disagree\,\Highly disagree\,\1\,1698239985511,1698239985511,9529,9529,11666,buq,qns-item-noham,71,776689,0.0-1.0-0.70
"<b>Sometimes, you just have to ignore evidence that you know is wrong.",Highly disagree,72/150,Somewhat agree,3,1698239987650,1698240002784,\Somewhat disagree\,\Somewhat agree\,\2\,1698239999856,1698240001067,12206,13417,15134,buq,qns-item-noham,72,791825,0.0-1.0-0.71
<b>I have had some false beliefs.,Highly disagree,73/150,Somewhat agree,3,1698240002786,1698240010347,\Somewhat agree\,\Somewhat agree\,\3\,1698240008704,1698240008704,5918,5918,7561,buq,qns-item-noham,73,799388,0.0-1.0-0.72
"<b>If one friend does something that upsets me, I sometimes start to distrust people in general.",Highly disagree,74/150,Somewhat agree,3,1698240010350,1698240017535,\Somewhat agree\,\Somewhat agree\,\3\,1698240015473,1698240015473,5123,5123,7185,buq,qns-item-noham,74,806576,0.0-1.0-0.73
<b>I easily apply what I learn in one situation to another.,Highly disagree,75/150,Highly agree,4,1698240017537,1698240026667,\Highly agree\,\Highly agree\,\4\,1698240024923,1698240024923,7386,7386,9130,buq,qns-item-noham,75,815708,0.0-1.0-0.74
<b>The facts about most important matters are easy to find.,Highly disagree,76/150,Somewhat disagree,2,1698240026669,1698240036479,\Somewhat disagree\,\Somewhat disagree\,\2\,1698240033461,1698240033461,6792,6792,9810,buq,qns-item-noham,76,825520,0.0-1.0-0.75
<b>It?s better to know what?s true than to know what?s moral.,Highly disagree,77/150,Highly agree,4,1698240036481,1698240046963,\Somewhat agree\,\Highly agree\,\3\,1698240040193,1698240044425,3712,7944,10482,buq,qns-item-noham,77,836004,0.0-1.0-0.76
<b>It?s good to be skeptical of people you agree with.,Highly disagree,78/150,Somewhat agree,3,1698240046966,1698240054475,\Somewhat agree\,\Somewhat agree\,\3\,1698240052673,1698240052673,5707,5707,7509,buq,qns-item-noham,78,843516,0.0-1.0-0.77
<b>Sometimes reasonable beliefs are wrong.,Highly disagree,79/150,Somewhat agree,3,1698240054477,1698240060923,\Somewhat agree\,\Somewhat agree\,\3\,1698240059432,1698240059432,4955,4955,6446,buq,qns-item-noham,79,849964,0.0-1.0-0.78
<b>I used to think the world was less complicated than I do now.,Highly disagree,80/150,Somewhat agree,3,1698240060925,1698240066277,\Somewhat agree\,\Somewhat agree\,\3\,1698240064482,1698240064482,3557,3557,5352,buq,qns-item-noham,80,855318,0.0-1.0-0.79
<b>People are usually completely right or completely wrong.,Highly disagree,81/150,Somewhat agree,3,1698240066279,1698240072324,\Somewhat agree\,\Somewhat agree\,\3\,1698240070184,1698240070184,3905,3905,6045,buq,qns-item-noham,81,861365,0.0-1.0-0.80
<b>I spend a lot of time considering alternatives to my beliefs.,Highly disagree,82/150,Highly agree,4,1698240072326,1698240077740,\Highly agree\,\Highly agree\,\4\,1698240076268,1698240076268,3942,3942,5414,buq,qns-item-noham,82,866781,0.0-1.0-0.81
"<b>Political enemies need to be defeated, not convinced.",Highly disagree,83/150,Somewhat agree,3,1698240077741,1698240083985,\Somewhat agree\,\Somewhat agree\,\3\,1698240081929,1698240081929,4188,4188,6244,buq,qns-item-noham,83,873026,0.0-1.0-0.82
"<b>When forming an opinion about a restaurant, I am more swayed by my  latest meal there than  previous meals I?ve had there.",Highly disagree,84/150,Somewhat agree,3,1698240083987,1698240095683,\Somewhat agree\,\Somewhat agree\,\3\,1698240088008,1698240088008,4021,4021,11696,buq,qns-item-noham,84,884724,0.0-1.0-0.83
<b>I try to remain skeptical about most topics.,Highly disagree,85/150,Somewhat agree,3,1698240095685,1698240101643,\Somewhat agree\,\Somewhat agree\,\3\,1698240099473,1698240099473,3788,3788,5958,buq,qns-item-noham,85,890684,0.0-1.0-0.84
<b>Being wrong is usually obvious in retrospect.,Highly disagree,86/150,Somewhat agree,3,1698240101645,1698240119424,\Somewhat agree\,\Somewhat agree\,\3\,1698240117355,1698240117355,15710,15710,17779,buq,qns-item-noham,86,908465,0.0-1.0-0.85
<b>It can be hard to realize that my beliefs are in conflict.,Highly disagree,87/150,Somewhat agree,3,1698240119426,1698240127098,\Somewhat agree\,\Somewhat agree\,\3\,1698240123110,1698240125540,3684,6114,7672,buq,qns-item-noham,87,916139,0.0-1.0-0.86
<b>I form my political views only after meticulously gathering historical and present information about their policies.,Highly disagree,88/150,Somewhat agree,3,1698240127100,1698240133776,\Somewhat agree\,\Somewhat agree\,\3\,1698240131652,1698240131652,4552,4552,6676,buq,qns-item-noham,88,922818,0.0-1.0-0.87
<b>Skeptical people are usually just bad-tempered.,Highly disagree,89/150,Somewhat disagree,2,1698240133778,1698240145464,\Somewhat disagree\,\Somewhat disagree\,\2\,1698240143709,1698240143709,9931,9931,11686,buq,qns-item-noham,89,934505,0.0-1.0-0.88
<b>It is difficult for me to remember the last time I was surprised by politics.,Highly disagree,90/150,Somewhat agree,3,1698240145467,1698240159889,\Somewhat agree\,\Somewhat agree\,\3\,1698240152776,1698240152776,7309,7309,14422,buq,qns-item-noham,90,948930,0.0-1.0-0.89
"<b>When I find out I?m wrong, I think a lot about my related beliefs.",Highly disagree,91/150,Highly agree,4,1698240159891,1698240165877,\Highly agree\,\Highly agree\,\4\,1698240163906,1698240163906,4015,4015,5986,buq,qns-item-noham,91,954918,0.0-1.0-0.90
"<b>If the political party I support messes up, it makes me think you can?t trust anyone these days",Highly disagree,92/150,Somewhat agree,3,1698240165880,1698240180331,\Somewhat agree\,\Somewhat agree\,\3\,1698240170876,1698240178319,4996,12439,14451,buq,qns-item-noham,92,969372,0.0-1.0-0.91
<b>People?s brains turn off when they talk about politics.,Highly disagree,93/150,Somewhat disagree,2,1698240180332,1698240185294,\Somewhat disagree\,\Somewhat disagree\,\2\,1698240183710,1698240183710,3378,3378,4962,buq,qns-item-noham,93,974335,0.0-1.0-0.92
<b>People who are wrong are usually just ignoring the obvious.,Highly disagree,94/150,Somewhat agree,3,1698240185297,1698240209474,\Somewhat disagree\,\Somewhat agree\,\2\,1698240198511,1698240207790,13214,22493,24177,buq,qns-item-noham,94,998515,0.0-1.0-0.93
"<b>The world isn?t that complicated, but it?s still hard to figure out how it works.",Highly disagree,95/150,Highly agree,4,1698240209476,1698240220436,\Highly agree\,\Highly agree\,\4\,1698240218369,1698240218369,8893,8893,10960,buq,qns-item-noham,95,1009477,0.0-1.0-0.94
"<b>When forming my views on people, I rely more on what they are like now rather than rely on my past experience with them.",Highly disagree,96/150,Somewhat agree,3,1698240220438,1698240226560,\Somewhat agree\,\Somewhat agree\,\3\,1698240224448,1698240224448,4010,4010,6122,buq,qns-item-noham,96,1015601,0.0-1.0-0.95
"<b>When people contradict my beliefs, I usually know about their evidence already.",Highly disagree,97/150,Somewhat agree,3,1698240226562,1698240236308,\Somewhat agree\,\Somewhat agree\,\3\,1698240232753,1698240232753,6191,6191,9746,buq,qns-item-noham,97,1025349,0.0-1.0-0.96
<b>Being wrong is a matter of degree.,Highly disagree,98/150,Somewhat agree,3,1698240236310,1698240241280,\Somewhat agree\,\Somewhat agree\,\3\,1698240239754,1698240239754,3444,3444,4970,buq,qns-item-noham,98,1030321,0.0-1.0-0.97
<b>Figuring out what?s true and what?s false mainly requires a strong moral compass.,Highly disagree,99/150,Highly agree,4,1698240241282,1698240256972,\Somewhat agree\,\Highly agree\,\3\,1698240252933,1698240254458,11651,13176,15690,buq,qns-item-noham,99,1046013,0.0-1.0-0.98
<b>Most of the beliefs people have are at least somewhat understandable.,Highly disagree,100/150,Somewhat agree,3,1698240256974,1698240264422,\Somewhat agree\,\Somewhat agree\,\3\,1698240262623,1698240262623,5649,5649,7448,buq,qns-item-noham,100,1053463,0.0-1.0-0.99
"<b>Usually I?m wrong about simple things, not complicated ones.",Highly disagree,101/150,Somewhat agree,3,1698240264425,1698240275298,\Somewhat agree\,\Somewhat agree\,\3\,1698240273003,1698240273003,8578,8578,10873,buq,qns-item-noham,101,1064339,0.0-1.0-0.100
<b>Getting all the information I want about important things is hard.,Highly disagree,102/150,Somewhat agree,3,1698240275300,1698240283884,\Somewhat agree\,\Somewhat agree\,\3\,1698240282051,1698240282051,6751,6751,8584,buq,qns-item-noham,102,1072925,0.0-1.0-0.101
<b>Most false beliefs spread because people try to deceive one another.,Highly disagree,103/150,Somewhat agree,3,1698240283887,1698240293692,\Somewhat agree\,\Somewhat agree\,\3\,1698240291652,1698240291652,7765,7765,9805,buq,qns-item-noham,103,1082733,0.0-1.0-0.102
<b>I can usually find something to agree with in most people?s beliefs.,Highly disagree,104/150,Somewhat agree,3,1698240293694,1698240300242,\Somewhat agree\,\Somewhat agree\,\3\,1698240298518,1698240298518,4824,4824,6548,buq,qns-item-noham,104,1089283,0.0-1.0-0.103
<b>I only form my views of people once I get to know them very well.,Highly disagree,105/150,Somewhat agree,3,1698240300244,1698240307032,\Somewhat agree\,\Somewhat agree\,\3\,1698240305119,1698240305119,4875,4875,6788,buq,qns-item-noham,105,1096074,0.0-1.0-0.104
"<b>When people tell me important things about the world, I usually believe them.",Highly disagree,106/150,Somewhat agree,3,1698240307035,1698240316194,\Somewhat agree\,\Somewhat agree\,\3\,1698240314497,1698240314497,7462,7462,9159,buq,qns-item-noham,106,1105235,0.0-1.0-0.105
"<b>If a friend does something that upsets me, it reminds me what an unpredictable place the world is.",Highly disagree,107/150,Somewhat agree,3,1698240316196,1698240333558,\Somewhat agree\,\Somewhat agree\,\3\,1698240326892,1698240330574,10696,14378,17362,buq,qns-item-noham,107,1122599,0.0-1.0-0.106
<b>Having some conflicting beliefs is inevitable.,Highly disagree,108/150,Highly agree,4,1698240333561,1698240344410,\Somewhat agree\,\Highly agree\,\3\,1698240338916,1698240341747,5355,8186,10849,buq,qns-item-noham,108,1133451,0.0-1.0-0.107
<b>People are wrong because they haven?t thought much about things.,Highly disagree,109/150,Highly agree,4,1698240344413,1698240351927,\Highly agree\,\Highly agree\,\4\,1698240349672,1698240349672,5259,5259,7514,buq,qns-item-noham,109,1140968,0.0-1.0-0.108
<b>People tend to believe whatever is good for their friends.,Highly disagree,110/150,Somewhat agree,3,1698240351929,1698240359160,\Somewhat agree\,\Somewhat agree\,\3\,1698240357349,1698240357349,5420,5420,7231,buq,qns-item-noham,110,1148201,0.0-1.0-0.109
"<b>When I talk about important topics, I try to make sure people know I?m not always right.",Highly disagree,111/150,Somewhat agree,3,1698240359162,1698240370161,\Somewhat agree\,\Somewhat agree\,\3\,1698240366842,1698240366842,7680,7680,10999,buq,qns-item-noham,111,1159202,0.0-1.0-0.110
<b>I used to be more certain my beliefs were true.,Highly disagree,112/150,Highly agree,4,1698240370163,1698240378831,\Somewhat agree\,\Highly agree\,\3\,1698240375857,1698240377485,5694,7322,8668,buq,qns-item-noham,112,1167872,0.0-1.0-0.111
<b>It?s often pretty easy to figure out whether something is true based on who said it.,Highly disagree,113/150,Somewhat agree,3,1698240378833,1698240387533,\Somewhat agree\,\Somewhat agree\,\3\,1698240384469,1698240384469,5636,5636,8700,buq,qns-item-noham,113,1176574,0.0-1.0-0.112
<b>Having bad food in my favorite restaurant will make me think the restaurant is no longer good.,Highly disagree,114/150,Somewhat agree,3,1698240387535,1698240396363,\Somewhat agree\,\Somewhat agree\,\3\,1698240393964,1698240393964,6429,6429,8828,buq,qns-item-noham,114,1185404,0.0-1.0-0.113
<b>I transform into a hummingbird every day.,Highly disagree,115/150,Highly disagree,1,1698240396365,1698240403305,\Highly disagree\,\Highly disagree\,\1\,1698240401679,1698240401679,5314,5314,6940,buq,qns-item-noham,115,1192346,0.0-1.0-0.114
"<b>Unfortunately, when people are wrong, it?s usually because they?re bad.",Highly disagree,116/150,Somewhat agree,3,1698240403307,1698240410502,\Somewhat agree\,\Somewhat agree\,\3\,1698240409019,1698240409019,5712,5712,7195,buq,qns-item-noham,116,1199544,0.0-1.0-0.115
<b>I think a lot about arguments against my views.,Highly disagree,117/150,Highly agree,4,1698240410506,1698240416875,\Highly agree\,\Highly agree\,\4\,1698240415342,1698240415342,4836,4836,6369,buq,qns-item-noham,117,1205916,0.0-1.0-0.116
<b>Details tend to matter a lot for knowing whether a policy is good.,Highly disagree,118/150,Somewhat agree,3,1698240416877,1698240421468,\Somewhat agree\,\Somewhat agree\,\3\,1698240419937,1698240419937,3060,3060,4591,buq,qns-item-noham,118,1210509,0.0-1.0-0.117
<b>Personal experience is usually more important than facts and figures.,Highly disagree,119/150,Highly agree,4,1698240421471,1698240428154,\Highly agree\,\Highly agree\,\4\,1698240425957,1698240425957,4486,4486,6683,buq,qns-item-noham,119,1217195,0.0-1.0-0.118
<b>I?ve been tricked before about important matters.,Highly disagree,120/150,Somewhat agree,3,1698240428157,1698240434802,\Somewhat agree\,\Somewhat agree\,\3\,1698240433313,1698240433313,5156,5156,6645,buq,qns-item-noham,120,1223843,0.0-1.0-0.119
<b>I would need to be totally wowed if I were to change my opinion of a restaurant I don?t like.,Highly disagree,121/150,Somewhat agree,3,1698240434804,1698240445245,\Somewhat agree\,\Somewhat agree\,\3\,1698240440354,1698240440354,5550,5550,10441,buq,qns-item-noham,121,1234286,0.0-1.0-0.120
<b>I care a lot about politics.,Highly disagree,122/150,Somewhat disagree,2,1698240445248,1698240450371,\Somewhat disagree\,\Somewhat disagree\,\2\,1698240448798,1698240448798,3550,3550,5123,buq,qns-item-noham,122,1239412,0.0-1.0-0.121
<b>People with conflicting beliefs usually have some facts they disagree on.,Highly disagree,123/150,Somewhat agree,3,1698240450373,1698240456445,\Somewhat agree\,\Somewhat agree\,\3\,1698240454632,1698240454632,4259,4259,6072,buq,qns-item-noham,123,1245486,0.0-1.0-0.122
<b>There are some topics I?ve been really wrong about.,Highly disagree,124/150,Somewhat agree,3,1698240456447,1698240462802,\Somewhat agree\,\Somewhat agree\,\3\,1698240461524,1698240461524,5077,5077,6355,buq,qns-item-noham,124,1251843,0.0-1.0-0.123
<b>Most beliefs can be supported with at least some evidence.,Highly disagree,125/150,Somewhat agree,3,1698240462804,1698240468404,\Somewhat agree\,\Somewhat agree\,\3\,1698240466152,1698240466152,3348,3348,5600,buq,qns-item-noham,125,1257445,0.0-1.0-0.124
<b>Other people make life out to be more complicated than it really is.,Highly disagree,126/150,Somewhat agree,3,1698240468407,1698240473410,\Somewhat agree\,\Somewhat agree\,\3\,1698240472095,1698240472095,3688,3688,5003,buq,qns-item-noham,126,1262451,0.0-1.0-0.125
"<b>My political views are being shaped continuously as I gather more information, rather than relying on what I?ve known to be true of my party in the past. ",Highly disagree,127/150,Somewhat agree,3,1698240473412,1698240479109,\Somewhat agree\,\Somewhat agree\,\3\,1698240477717,1698240477717,4305,4305,5697,buq,qns-item-noham,127,1268150,0.0-1.0-0.126
<b>It?s pretty unusual for true things to seem false.,Highly disagree,128/150,Somewhat agree,3,1698240479111,1698240486861,\Somewhat agree\,\Somewhat agree\,\3\,1698240485148,1698240485148,6037,6037,7750,buq,qns-item-noham,128,1275902,0.0-1.0-0.127
"<b>Policy details don?t matter much, just the big picture.",Highly disagree,129/150,Somewhat agree,3,1698240486862,1698240491620,\Somewhat agree\,\Somewhat agree\,\3\,1698240489972,1698240489972,3110,3110,4758,buq,qns-item-noham,129,1280661,0.0-1.0-0.128
<b>I know my friends so well they can hardly ever surprise me.,Highly disagree,130/150,Somewhat agree,3,1698240491622,1698240499855,\Somewhat disagree\,\Somewhat agree\,\2\,1698240496828,1698240498320,5206,6698,8233,buq,qns-item-noham,130,1288896,0.0-1.0-0.129
"<b>When I talk to people, I often think about why they have the beliefs they do.",Highly disagree,131/150,Somewhat agree,3,1698240499857,1698240507666,\Somewhat agree\,\Somewhat agree\,\3\,1698240506127,1698240506127,6270,6270,7809,buq,qns-item-noham,131,1296707,0.0-1.0-0.130
<b>I do not often change my views on people.,Highly disagree,132/150,Somewhat agree,3,1698240507668,1698240512846,\Somewhat agree\,\Somewhat agree\,\3\,1698240511308,1698240511308,3640,3640,5178,buq,qns-item-noham,132,1301887,0.0-1.0-0.131
<b>I often wish I had more time to spend figuring out what?s true and what?s false in life.,Highly disagree,133/150,Highly agree,4,1698240512847,1698240520263,\Highly agree\,\Highly agree\,\4\,1698240517296,1698240517296,4449,4449,7416,buq,qns-item-noham,133,1309304,0.0-1.0-0.132
<b>I?m more certain about my beliefs than I used to be.,Highly disagree,134/150,Somewhat agree,3,1698240520266,1698240524365,\Somewhat agree\,\Somewhat agree\,\3\,1698240522987,1698240522987,2721,2721,4099,buq,qns-item-noham,134,1313406,0.0-1.0-0.133
"<b>Whenever I find out new information, I update my views on politics accordingly.",Highly disagree,135/150,Somewhat agree,3,1698240524367,1698240530983,\Somewhat agree\,\Somewhat agree\,\3\,1698240527621,1698240527621,3254,3254,6616,buq,qns-item-noham,135,1320024,0.0-1.0-0.134
<b>People often tell falsehoods unintentionally.,Highly disagree,136/150,Somewhat agree,3,1698240530988,1698240536361,\Somewhat agree\,\Somewhat agree\,\3\,1698240534833,1698240534833,3845,3845,5373,buq,qns-item-noham,136,1325402,0.0-1.0-0.135
<b>Most people don?t know much about most things.,Highly disagree,137/150,Somewhat agree,3,1698240536363,1698240544697,\Somewhat agree\,\Somewhat agree\,\3\,1698240542164,1698240542164,5801,5801,8334,buq,qns-item-noham,137,1333738,0.0-1.0-0.136
"<b>If I find out something new about someone, I easily change my views about them.",Highly disagree,138/150,Somewhat agree,3,1698240544700,1698240551299,\Somewhat agree\,\Somewhat agree\,\3\,1698240547887,1698240547887,3187,3187,6599,buq,qns-item-noham,138,1340340,0.0-1.0-0.137
<b>Having true beliefs is difficult.,Highly disagree,139/150,Somewhat agree,3,1698240551302,1698240555117,\Somewhat agree\,\Somewhat agree\,\3\,1698240553421,1698240553421,2119,2119,3815,buq,qns-item-noham,139,1344158,0.0-1.0-0.138
<b>I don?t try new foods since I know I won?t like them.,Highly disagree,140/150,Somewhat agree,3,1698240555119,1698240561176,\Somewhat agree\,\Somewhat agree\,\3\,1698240559035,1698240559035,3916,3916,6057,buq,qns-item-noham,140,1350217,0.0-1.0-0.139
<b>It?s easy to figure out what?s true or false based on who?s saying it.,Highly disagree,141/150,Somewhat agree,3,1698240561179,1698240566947,\Somewhat agree\,\Somewhat agree\,\3\,1698240565419,1698240565419,4240,4240,5768,buq,qns-item-noham,141,1355988,0.0-1.0-0.140
<b>False things have seemed true to me many times.,Highly disagree,142/150,Somewhat disagree,2,1698240566948,1698240577359,\Somewhat disagree\,\Somewhat disagree\,\2\,1698240576030,1698240576030,9082,9082,10411,buq,qns-item-noham,142,1366400,0.0-1.0-0.141
<b>It?s pretty easy to sort out what?s true and what?s false in life.,Highly disagree,143/150,Somewhat agree,3,1698240577361,1698240581529,\Somewhat agree\,\Somewhat agree\,\3\,1698240579882,1698240579882,2521,2521,4168,buq,qns-item-noham,143,1370570,0.0-1.0-0.142
<b>Knowing lots of statistics about something is usually important for understanding it.,Highly disagree,144/150,Somewhat agree,3,1698240581531,1698240587426,\Somewhat agree\,\Somewhat agree\,\3\,1698240585045,1698240585045,3514,3514,5895,buq,qns-item-noham,144,1376467,0.0-1.0-0.143
<b>Other people trick each other a lot.,Highly disagree,145/150,Somewhat agree,3,1698240587428,1698240592988,\Somewhat agree\,\Somewhat agree\,\3\,1698240590431,1698240590431,3003,3003,5560,buq,qns-item-noham,145,1382030,0.0-1.0-0.144
<b>I would need to learn a lot about a person for my opinion of them to be swayed.,Highly disagree,146/150,Somewhat agree,3,1698240592990,1698240599100,\Somewhat agree\,\Somewhat agree\,\3\,1698240597755,1698240597755,4765,4765,6110,buq,qns-item-noham,146,1388141,0.0-1.0-0.145
<b>People can?t usually trick me when it comes to topics I care about.,Highly disagree,147/150,Somewhat agree,3,1698240599102,1698240603872,\Somewhat agree\,\Somewhat agree\,\3\,1698240602337,1698240602337,3235,3235,4770,buq,qns-item-noham,147,1392913,0.0-1.0-0.146
<b>I do not often change my views on food.,Highly disagree,148/150,Highly agree,4,1698240603873,1698240610332,\Somewhat agree\,\Highly agree\,\3\,1698240607077,1698240608744,3204,4871,6459,buq,qns-item-noham,148,1399373,0.0-1.0-0.147
<b>Specific policies are often very important to me.,Highly disagree,149/150,Somewhat agree,3,1698240610334,1698240621025,\Somewhat agree\,\Somewhat agree\,\3\,1698240617435,1698240617435,7101,7101,10691,buq,qns-item-noham,149,1410066,0.0-1.0-0.148
<b>Most people are woefully under-informed.,Highly disagree,150/150,Somewhat agree,3,1698240621027,1698240626611,\Somewhat agree\,\Somewhat agree\,\3\,1698240624663,1698240624663,3636,3636,5584,buq,qns-item-noham,150,1415652,0.0-1.0-0.149
