Question,qns_options,quest_num,answer,answer_num,question_load_timestamp,next_btn_timestamp,text_selected,final_text_selected,option_num_selected,preview_timestamps,final_text_selected_time_stamp,rt_first_option_click,rt_final_option_click,rt_submit_click,questionnaire,trial_type,trial_index,time_elapsed,internal_node_id
<b>Considering other people?s perspectives can help us figure out what?s true or false.,Highly disagree,1/150,Somewhat agree,3,1698240952601,1698240958995,\Somewhat agree\,\Somewhat agree\,\3\,1698240957999,1698240957999,5398,5398,6394,buq,qns-item-noham,1,12828,0.0-1.0-0.0
<b>Knowing what?s true and knowing what to do about it are usually basically the same.,Highly disagree,2/150,Highly disagree,1,1698240959013,1698240966059,\Highly disagree\,\Highly disagree\,\1\,1698240965088,1698240965088,6075,6075,7046,buq,qns-item-noham,2,19892,0.0-1.0-0.1
<b>Most people just believe whatever is convenient for them.,Highly disagree,3/150,Highly agree,4,1698240966064,1698240971150,\Highly agree\,\Highly agree\,\4\,1698240970910,1698240970910,4846,4846,5086,buq,qns-item-noham,3,24983,0.0-1.0-0.2
<b>Even people who are wrong about most things can be right sometimes.,Highly disagree,4/150,Highly agree,4,1698240971154,1698240979707,\Highly agree\,\Highly agree\,\4\,1698240979327,1698240979327,8173,8173,8553,buq,qns-item-noham,4,33540,0.0-1.0-0.3
"<b>If the political party I support does something that upsets me, then the party may have changed, and I need to re-evaluate my support.",Highly disagree,5/150,Somewhat agree,3,1698240979710,1698240987860,\Somewhat agree\,\Somewhat agree\,\3\,1698240987550,1698240987550,7840,7840,8150,buq,qns-item-noham,5,41693,0.0-1.0-0.4
"<b>When people disagree, one side is usually completely right.",Highly disagree,6/150,Highly disagree,1,1698240987863,1698240991367,\Highly disagree\,\Highly disagree\,\1\,1698240990867,1698240990867,3004,3004,3504,buq,qns-item-noham,6,45200,0.0-1.0-0.5
<b>People have lots of false beliefs.,Highly disagree,7/150,Highly agree,4,1698240991371,1698240993734,\Highly agree\,\Highly agree\,\4\,1698240993422,1698240993422,2051,2051,2363,buq,qns-item-noham,7,47567,0.0-1.0-0.6
<b>Having some big beliefs helps me sort out minor ones.,Highly disagree,8/150,Somewhat agree,3,1698240993736,1698240997544,\Somewhat agree\,\Somewhat agree\,\3\,1698240997274,1698240997274,3538,3538,3808,buq,qns-item-noham,8,51377,0.0-1.0-0.7
<b>Political questions are usually pretty complicated.,Highly disagree,9/150,Somewhat agree,3,1698240997548,1698241000493,\Somewhat agree\,\Somewhat agree\,\3\,1698241000171,1698241000171,2623,2623,2945,buq,qns-item-noham,9,54326,0.0-1.0-0.8
<b>Figuring out what?s important in life requires learning a lot of facts.,Highly disagree,10/150,Somewhat agree,3,1698241000499,1698241019062,\Somewhat agree\,\Somewhat agree\,\3\,1698241018585,1698241018585,18086,18086,18563,buq,qns-item-noham,10,72895,0.0-1.0-0.9
<b>It is difficult for me to remember the last time I was surprised by politics.,Highly disagree,11/150,Somewhat agree,3,1698241019066,1698241032671,\Somewhat agree\,\Somewhat agree\,\3\,1698241032125,1698241032125,13059,13059,13605,buq,qns-item-noham,11,86504,0.0-1.0-0.10
<b>People?s false beliefs are understandable.,Highly disagree,12/150,Somewhat agree,3,1698241032683,1698241037509,\Somewhat agree\,\Somewhat agree\,\3\,1698241035540,1698241037148,2857,4465,4826,buq,qns-item-noham,12,91342,0.0-1.0-0.11
<b>I spend a lot of time trying to be informed about politics.,Highly disagree,13/150,Somewhat agree,3,1698241037514,1698241039646,\Somewhat agree\,\Somewhat agree\,\3\,1698241039336,1698241039336,1822,1822,2132,buq,qns-item-noham,13,93479,0.0-1.0-0.12
<b>I think a lot about whether my beliefs are right.,Highly disagree,14/150,Somewhat disagree,2,1698241039650,1698241043333,\Somewhat disagree\,\Somewhat disagree\,\2\,1698241042860,1698241042937,3210,3287,3683,buq,qns-item-noham,14,97166,0.0-1.0-0.13
<b>Statistics can be pretty misleading sometimes.,Highly disagree,15/150,Highly agree,4,1698241043335,1698241050016,\Highly agree\,\Highly agree\,\4\,1698241049611,1698241049611,6276,6276,6681,buq,qns-item-noham,15,103849,0.0-1.0-0.14
<b>Figuring out what?s true and what?s false takes a lot of time and effort.,Highly disagree,16/150,Highly agree,4,1698241050020,1698241052885,\Highly agree\,\Highly agree\,\4\,1698241052461,1698241052461,2441,2441,2865,buq,qns-item-noham,16,106718,0.0-1.0-0.15
"<b>If a friend does something bad to me, it was likely an error on their part.",Highly disagree,17/150,Somewhat agree,3,1698241052889,1698241055882,\Somewhat agree\,\Somewhat agree\,\3\,1698241055525,1698241055525,2636,2636,2993,buq,qns-item-noham,17,109716,0.0-1.0-0.16
<b>I have lots of beliefs that I?m only sort of sure about.,Highly disagree,18/150,Somewhat agree,3,1698241055885,1698241085904,\Somewhat agree\,\Somewhat agree\,\3\,1698241085561,1698241085561,29676,29676,30019,buq,qns-item-noham,18,139737,0.0-1.0-0.17
"<b>If I go to my favorite restaurant and the food is surprisingly bad, it reminds me there are many disappointments in life.",Highly disagree,19/150,Somewhat disagree,2,1698241085908,1698241089950,\Somewhat disagree\,\Somewhat disagree\,\2\,1698241089640,1698241089640,3732,3732,4042,buq,qns-item-noham,19,143783,0.0-1.0-0.18
<b>Sometimes my beliefs are inconvenient for me.,Highly disagree,20/150,Somewhat disagree,2,1698241089954,1698241099024,\Somewhat disagree\,\Somewhat disagree\,\2\,1698241098703,1698241098703,8749,8749,9070,buq,qns-item-noham,20,152857,0.0-1.0-0.19
<b>Paying attention to multiple news sources is important.,Highly disagree,21/150,Highly agree,4,1698241099030,1698241101087,\Highly agree\,\Highly agree\,\4\,1698241100809,1698241100809,1779,1779,2057,buq,qns-item-noham,21,154920,0.0-1.0-0.20
"<b>If you are paying attention, please select ?Somewhat agree?",Highly disagree,22/150,Somewhat agree,3,1698241101090,1698241103372,\Somewhat agree\,\Somewhat agree\,\3\,1698241103047,1698241103047,1957,1957,2282,buq,qns-item-noham,22,157205,0.0-1.0-0.21
"<b>When I talk to others, I often worry I?ll convince them of something I didn?t mean to.",Highly disagree,23/150,Highly disagree,1,1698241103377,1698241113065,\Highly disagree\,\Highly disagree\,\1\,1698241112151,1698241112151,8774,8774,9688,buq,qns-item-noham,23,166898,0.0-1.0-0.22
<b>I would need to learn something utterly shocking about my party in order to change my political views.,Highly disagree,24/150,Somewhat agree,3,1698241113067,1698241119502,\Somewhat agree\,\Somewhat agree\,\3\,1698241118828,1698241118828,5761,5761,6435,buq,qns-item-noham,24,173335,0.0-1.0-0.23
"<b>When I have new experiences, I tend to think of them as unique.",Highly disagree,25/150,Somewhat agree,3,1698241119504,1698241124724,\Somewhat agree\,\Somewhat agree\,\3\,1698241123940,1698241123940,4436,4436,5220,buq,qns-item-noham,25,178557,0.0-1.0-0.24
<b>Reading lots of things is important for understanding the world.,Highly disagree,26/150,Highly agree,4,1698241124730,1698241127308,\Highly agree\,\Highly agree\,\4\,1698241126687,1698241126687,1957,1957,2578,buq,qns-item-noham,26,181141,0.0-1.0-0.25
<b>The world is complicated.,Highly disagree,27/150,Highly agree,4,1698241127312,1698241129625,\Highly agree\,\Highly agree\,\4\,1698241128440,1698241128440,1128,1128,2313,buq,qns-item-noham,27,183459,0.0-1.0-0.26
<b>I change my mind about specific policies pretty frequently.,Highly disagree,28/150,Highly disagree,1,1698241129631,1698241132116,\Highly disagree\,\Highly disagree\,\1\,1698241131532,1698241131532,1901,1901,2485,buq,qns-item-noham,28,185949,0.0-1.0-0.27
"<b>If a politician in my political party supports something I disagree with, I give them the benefit of the doubt, as such issues often involve hidden complexities that aren?t obvious.   ",Highly disagree,29/150,Somewhat disagree,2,1698241132121,1698241137661,\Somewhat agree\,\Somewhat disagree\,\3\,1698241136031,1698241136872,3910,4751,5540,buq,qns-item-noham,29,191494,0.0-1.0-0.28
<b>People?s bad politics are usually motivated by hatefulness.,Highly disagree,30/150,Somewhat agree,3,1698241137665,1698241141872,\Somewhat agree\,\Somewhat agree\,\3\,1698241140642,1698241140642,2977,2977,4207,buq,qns-item-noham,30,195705,0.0-1.0-0.29
"<b>Most new experiences are just like old ones, but a little bit different.",Highly disagree,31/150,Somewhat disagree,2,1698241141875,1698241146963,\Somewhat agree\,\Somewhat disagree\,\3\,1698241144736,1698241145669,2861,3794,5088,buq,qns-item-noham,31,200797,0.0-1.0-0.30
<b>I think a lot about how to reconcile my beliefs with one another.,Highly disagree,32/150,Somewhat agree,3,1698241146970,1698241182848,\Somewhat agree\,\Somewhat agree\,\3\,1698241182126,1698241182126,35156,35156,35878,buq,qns-item-noham,32,236681,0.0-1.0-0.31
<b>Personal experience rarely leads people astray.,Highly disagree,33/150,Somewhat disagree,2,1698241182853,1698241186817,\Somewhat disagree\,\Somewhat disagree\,\2\,1698241185555,1698241185555,2702,2702,3964,buq,qns-item-noham,33,240650,0.0-1.0-0.32
<b>I might have false beliefs about important topics.,Highly disagree,34/150,Somewhat agree,3,1698241186822,1698241192468,\Somewhat agree\,\Somewhat agree\,\3\,1698241191829,1698241191829,5007,5007,5646,buq,qns-item-noham,34,246301,0.0-1.0-0.33
"<b>If a good friend of mine does something unexpected that upsets me, I feel like I don?t know them anymore.",Highly disagree,35/150,Somewhat disagree,2,1698241192474,1698241200804,\Somewhat disagree\,\Somewhat disagree\,\2\,1698241199443,1698241199443,6969,6969,8330,buq,qns-item-noham,35,254637,0.0-1.0-0.34
<b>Other people?s beliefs are often incoherent.,Highly disagree,36/150,Highly disagree,1,1698241200811,1698241206013,\Highly disagree\,\Highly disagree\,\1\,1698241204292,1698241204292,3481,3481,5202,buq,qns-item-noham,36,259847,0.0-1.0-0.35
<b>It?s important to have friends who think about things differently than I do.,Highly disagree,37/150,Somewhat agree,3,1698241206018,1698241209933,\Somewhat agree\,\Somewhat agree\,\3\,1698241209311,1698241209311,3293,3293,3915,buq,qns-item-noham,37,263766,0.0-1.0-0.36
"<b>Every now and then, a new experience will unsettle beliefs I?ve had for a while.",Highly disagree,38/150,Somewhat disagree,2,1698241209937,1698241218939,\Somewhat agree\,\Somewhat disagree\,\3\,1698241216176,1698241218329,6239,8392,9002,buq,qns-item-noham,38,272772,0.0-1.0-0.37
<b>Some policies I agree with in principle are so bad I don?t support them. ,Highly disagree,39/150,Somewhat agree,3,1698241218944,1698241227490,\Somewhat agree\,\Somewhat agree\,\3\,1698241226939,1698241226939,7995,7995,8546,buq,qns-item-noham,39,281323,0.0-1.0-0.38
<b>I?m pretty sure I?ve accidentally spread false information.,Highly disagree,40/150,Somewhat disagree,2,1698241227493,1698241229618,\Somewhat disagree\,\Somewhat disagree\,\2\,1698241229269,1698241229269,1776,1776,2125,buq,qns-item-noham,40,283451,0.0-1.0-0.39
"<b>If I go to my favorite restaurant and the food is unexpectedly bad, then they have changed owners.",Highly disagree,41/150,Highly disagree,1,1698241229621,1698241233528,\Highly disagree\,\Highly disagree\,\1\,1698241233067,1698241233067,3446,3446,3907,buq,qns-item-noham,41,287361,0.0-1.0-0.40
"<b>In politics, it?s important to trust your friends and family.",Highly disagree,42/150,Somewhat disagree,2,1698241233533,1698241237324,\Somewhat disagree\,\Somewhat disagree\,\2\,1698241236911,1698241236911,3378,3378,3791,buq,qns-item-noham,42,291157,0.0-1.0-0.41
<b>It?s OK to have some conflicting beliefs.,Highly disagree,43/150,Highly agree,4,1698241237327,1698241239434,\Highly agree\,\Highly agree\,\4\,1698241238921,1698241238921,1594,1594,2107,buq,qns-item-noham,43,293267,0.0-1.0-0.42
<b>Sometimes the details of a matter seem to conflict with the big picture.,Highly disagree,44/150,Somewhat agree,3,1698241239438,1698241250504,\Somewhat agree\,\Somewhat agree\,\3\,1698241250087,1698241250087,10649,10649,11066,buq,qns-item-noham,44,304337,0.0-1.0-0.43
<b>Listening to people I disagree with makes my opinions better.,Highly disagree,45/150,Somewhat disagree,2,1698241250506,1698241255176,\Somewhat agree\,\Somewhat disagree\,\3\,1698241253902,1698241254858,3396,4352,4670,buq,qns-item-noham,45,309009,0.0-1.0-0.44
<b>Policies that sound bad are sometimes fine when you find out about their details.,Highly disagree,46/150,Somewhat disagree,2,1698241255179,1698241264567,\Somewhat disagree\,\Somewhat disagree\,\2\,1698241263969,1698241263969,8790,8790,9388,buq,qns-item-noham,46,318400,0.0-1.0-0.45
"<b>The world is always changing, so my beliefs are sometimes out-dated.",Highly disagree,47/150,Somewhat disagree,2,1698241264574,1698241278832,\Somewhat disagree\,\Somewhat disagree\,\2\,1698241275586,1698241275586,11012,11012,14258,buq,qns-item-noham,47,332665,0.0-1.0-0.46
"<b>If I receive a bad meal at my favorite restaurant and the food is surprisingly bad, I do not think much of it, and assume the chef is just having an ?off? day.",Highly disagree,48/150,Highly agree,4,1698241278837,1698241305231,\Highly agree\,\Highly agree\,\4\,1698241304564,1698241304564,25727,25727,26394,buq,qns-item-noham,48,359065,0.0-1.0-0.47
"<b>False information is unavoidable, to some extent.",Highly disagree,49/150,Somewhat agree,3,1698241305235,1698241308354,\Somewhat agree\,\Somewhat agree\,\3\,1698241307126,1698241307126,1891,1891,3119,buq,qns-item-noham,49,362187,0.0-1.0-0.48
<b>My moral compass sometimes makes it harder to determine what?s true.,Highly disagree,50/150,Somewhat disagree,2,1698241308359,1698241315950,\Somewhat disagree\,\Somewhat disagree\,\2\,1698241315318,1698241315318,6959,6959,7591,buq,qns-item-noham,50,369783,0.0-1.0-0.49
"<b>When you disagree with someone, it?s important to listen to them carefully.",Highly disagree,51/150,Highly agree,4,1698241315952,1698241328961,\Highly agree\,\Highly agree\,\4\,1698241328376,1698241328376,12424,12424,13009,buq,qns-item-noham,51,382794,0.0-1.0-0.50
<b>Evidence pointing in the wrong direction isn?t really evidence at all.,Highly disagree,52/150,Somewhat disagree,2,1698241328964,1698241332546,\Somewhat disagree\,\Somewhat disagree\,\2\,1698241332180,1698241332180,3216,3216,3582,buq,qns-item-noham,52,386379,0.0-1.0-0.51
"<b>If the political party I support messes up, it makes me think politics is rotten.",Highly disagree,53/150,Somewhat agree,3,1698241332549,1698241337513,\Somewhat agree\,\Somewhat agree\,\3\,1698241335933,1698241335933,3384,3384,4964,buq,qns-item-noham,53,391346,0.0-1.0-0.52
<b>Lots of important topics can only really be understood by some groups of people.,Highly disagree,54/150,Somewhat disagree,2,1698241337515,1698241341634,\Somewhat disagree\,\Somewhat disagree\,\2\,1698241341252,1698241341252,3737,3737,4119,buq,qns-item-noham,54,395467,0.0-1.0-0.53
<b>Details almost always matter for being right about something.,Highly disagree,55/150,Somewhat agree,3,1698241341639,1698241347027,\Somewhat agree\,\Somewhat agree\,\3\,1698241346655,1698241346655,5016,5016,5388,buq,qns-item-noham,55,400860,0.0-1.0-0.54
"<b>The most important thing in politics is winning, not convincing people.",Highly disagree,56/150,Highly disagree,1,1698241347031,1698241350811,\Highly disagree\,\Highly disagree\,\1\,1698241350414,1698241350414,3383,3383,3780,buq,qns-item-noham,56,404645,0.0-1.0-0.55
<b>Having conflicting beliefs means you haven?t thought about them enough.,Highly disagree,57/150,Somewhat disagree,2,1698241350815,1698241354222,\Somewhat disagree\,\Somewhat disagree\,\2\,1698241353856,1698241353856,3041,3041,3407,buq,qns-item-noham,57,408055,0.0-1.0-0.56
<b>Other people have sometimes convinced me to change my mind on important topics.,Highly disagree,58/150,Somewhat disagree,2,1698241354226,1698241358079,\Somewhat disagree\,\Somewhat disagree\,\2\,1698241357663,1698241357663,3437,3437,3853,buq,qns-item-noham,58,411912,0.0-1.0-0.57
<b>I do not often change my political opinions.,Highly disagree,59/150,Somewhat agree,3,1698241358082,1698241360160,\Somewhat agree\,\Somewhat agree\,\3\,1698241359726,1698241359726,1644,1644,2078,buq,qns-item-noham,59,413993,0.0-1.0-0.58
<b>Thinking about how different things relate to one another is critical in life.,Highly disagree,60/150,Somewhat agree,3,1698241360165,1698241365094,\Somewhat agree\,\Somewhat agree\,\3\,1698241364697,1698241364697,4532,4532,4929,buq,qns-item-noham,60,418927,0.0-1.0-0.59
<b>True beliefs can have unfortunate implications.,Highly disagree,61/150,Somewhat agree,3,1698241365096,1698241368167,\Somewhat agree\,\Somewhat agree\,\3\,1698241367175,1698241367175,2079,2079,3071,buq,qns-item-noham,61,422000,0.0-1.0-0.60
<b>It?s difficult to not have at least some conflicting beliefs.,Highly disagree,62/150,Somewhat disagree,2,1698241368171,1698241373497,\Somewhat agree\,\Somewhat disagree\,\3\,1698241372701,1698241373207,4530,5036,5326,buq,qns-item-noham,62,427330,0.0-1.0-0.61
"<b>When I learn new things, I think deeply about how my opinions should change.",Highly disagree,63/150,Somewhat agree,3,1698241373500,1698241379968,\Somewhat agree\,\Somewhat agree\,\3\,1698241379523,1698241379523,6023,6023,6468,buq,qns-item-noham,63,433801,0.0-1.0-0.62
<b>I think a lot about how to interpret different sorts of evidence.,Highly disagree,64/150,Highly agree,4,1698241379972,1698241396546,\Highly agree\,\Highly agree\,\4\,1698241395652,1698241395652,15680,15680,16574,buq,qns-item-noham,64,450379,0.0-1.0-0.63
<b>Politics is about thinking together and finding compromises.,Highly disagree,65/150,Highly agree,4,1698241396551,1698241456342,\Highly agree\,\Highly agree\,\4\,1698241454842,1698241454842,58291,58291,59791,buq,qns-item-noham,65,510175,0.0-1.0-0.64
<b>Wishful thinking causes a lot of problems.,Highly disagree,66/150,Somewhat agree,3,1698241456344,1698241459003,\Somewhat agree\,\Somewhat agree\,\3\,1698241458583,1698241458583,2239,2239,2659,buq,qns-item-noham,66,512836,0.0-1.0-0.65
<b>I judge a food item only once I try it many times.,Highly disagree,67/150,Somewhat agree,3,1698241459006,1698241509142,\Somewhat agree\,\Somewhat agree\,\3\,1698241508639,1698241508639,49633,49633,50136,buq,qns-item-noham,67,562975,0.0-1.0-0.66
"<b>When a person holds conflicting beliefs, they should really try to figure out what?s wrong.",Highly disagree,68/150,Somewhat disagree,2,1698241509146,1698241551947,\Somewhat disagree\,\Somewhat disagree\,\2\,1698241551685,1698241551685,42539,42539,42801,buq,qns-item-noham,68,605780,0.0-1.0-0.67
<b>Knowing what?s important in life is easy.,Highly disagree,69/150,Highly disagree,1,1698241551950,1698241554124,\Highly disagree\,\Highly disagree\,\1\,1698241553757,1698241553757,1807,1807,2174,buq,qns-item-noham,69,607957,0.0-1.0-0.68
<b>Lots of smart people disagree about basic political questions.,Highly disagree,70/150,Somewhat agree,3,1698241554129,1698241560036,\Somewhat agree\,\Somewhat agree\,\3\,1698241559533,1698241559533,5404,5404,5907,buq,qns-item-noham,70,613869,0.0-1.0-0.69
<b>I swim across the Atlantic Ocean to get to work every day.,Highly disagree,71/150,Highly disagree,1,1698241560040,1698241562980,\Highly disagree\,\Highly disagree\,\1\,1698241562469,1698241562469,2429,2429,2940,buq,qns-item-noham,71,616813,0.0-1.0-0.70
"<b>Sometimes, you just have to ignore evidence that you know is wrong.",Highly disagree,72/150,Somewhat agree,3,1698241562983,1698241568693,\Highly disagree\,\Somewhat agree\,\1\,1698241564936,1698241567833,1953,4850,5710,buq,qns-item-noham,72,622526,0.0-1.0-0.71
<b>I have had some false beliefs.,Highly disagree,73/150,Somewhat disagree,2,1698241568696,1698241572586,\Somewhat agree\,\Somewhat disagree\,\3\,1698241570656,1698241572179,1960,3483,3890,buq,qns-item-noham,73,626419,0.0-1.0-0.72
"<b>If one friend does something that upsets me, I sometimes start to distrust people in general.",Highly disagree,74/150,Highly disagree,1,1698241572588,1698241576303,\Highly disagree\,\Highly disagree\,\1\,1698241575871,1698241575871,3283,3283,3715,buq,qns-item-noham,74,630136,0.0-1.0-0.73
<b>I easily apply what I learn in one situation to another.,Highly disagree,75/150,Somewhat agree,3,1698241576305,1698241582092,\Somewhat agree\,\Somewhat agree\,\3\,1698241581691,1698241581691,5386,5386,5787,buq,qns-item-noham,75,635925,0.0-1.0-0.74
<b>The facts about most important matters are easy to find.,Highly disagree,76/150,Somewhat disagree,2,1698241582095,1698241598716,\Highly disagree\,\Somewhat disagree\,\1\,1698241597736,1698241598266,15641,16171,16621,buq,qns-item-noham,76,652549,0.0-1.0-0.75
<b>It?s better to know what?s true than to know what?s moral.,Highly disagree,77/150,Somewhat agree,3,1698241598720,1698241625855,\Somewhat agree\,\Somewhat agree\,\3\,1698241624720,1698241624720,26000,26000,27135,buq,qns-item-noham,77,679688,0.0-1.0-0.76
<b>It?s good to be skeptical of people you agree with.,Highly disagree,78/150,Somewhat agree,3,1698241625861,1698241651335,\Somewhat agree\,\Somewhat agree\,\3\,1698241651037,1698241651037,25176,25176,25474,buq,qns-item-noham,78,705168,0.0-1.0-0.77
<b>Sometimes reasonable beliefs are wrong.,Highly disagree,79/150,Somewhat agree,3,1698241651338,1698241653630,\Somewhat agree\,\Somewhat agree\,\3\,1698241653407,1698241653407,2069,2069,2292,buq,qns-item-noham,79,707463,0.0-1.0-0.78
<b>I used to think the world was less complicated than I do now.,Highly disagree,80/150,Somewhat agree,3,1698241653634,1698241655860,\Somewhat agree\,\Somewhat agree\,\3\,1698241655453,1698241655453,1819,1819,2226,buq,qns-item-noham,80,709693,0.0-1.0-0.79
<b>People are usually completely right or completely wrong.,Highly disagree,81/150,Highly disagree,1,1698241655865,1698241658335,\Highly disagree\,\Highly disagree\,\1\,1698241657939,1698241657939,2074,2074,2470,buq,qns-item-noham,81,712168,0.0-1.0-0.80
<b>I spend a lot of time considering alternatives to my beliefs.,Highly disagree,82/150,Somewhat agree,3,1698241658340,1698241661446,\Somewhat disagree\,\Somewhat agree\,\2\,1698241660430,1698241661114,2090,2774,3106,buq,qns-item-noham,82,715280,0.0-1.0-0.81
"<b>Political enemies need to be defeated, not convinced.",Highly disagree,83/150,Highly disagree,1,1698241661452,1698241664361,\Highly disagree\,\Highly disagree\,\1\,1698241663932,1698241663932,2480,2480,2909,buq,qns-item-noham,83,718194,0.0-1.0-0.82
"<b>When forming an opinion about a restaurant, I am more swayed by my  latest meal there than  previous meals I?ve had there.",Highly disagree,84/150,Highly disagree,1,1698241664364,1698241668987,\Somewhat disagree\,\Highly disagree\,\2\,1698241668137,1698241668441,3773,4077,4623,buq,qns-item-noham,84,722820,0.0-1.0-0.83
<b>I try to remain skeptical about most topics.,Highly disagree,85/150,Somewhat agree,3,1698241668990,1698241670864,\Somewhat agree\,\Somewhat agree\,\3\,1698241670418,1698241670418,1428,1428,1874,buq,qns-item-noham,85,724697,0.0-1.0-0.84
<b>Being wrong is usually obvious in retrospect.,Highly disagree,86/150,Somewhat agree,3,1698241670867,1698241674234,\Somewhat disagree\,\Somewhat agree\,\2\,1698241673202,1698241673866,2335,2999,3367,buq,qns-item-noham,86,728067,0.0-1.0-0.85
<b>It can be hard to realize that my beliefs are in conflict.,Highly disagree,87/150,Somewhat agree,3,1698241674236,1698241679572,\Somewhat agree\,\Somewhat agree\,\3\,1698241679285,1698241679285,5049,5049,5336,buq,qns-item-noham,87,733405,0.0-1.0-0.86
<b>I form my political views only after meticulously gathering historical and present information about their policies.,Highly disagree,88/150,Somewhat agree,3,1698241679575,1698241683307,\Somewhat agree\,\Somewhat agree\,\3\,1698241682707,1698241682707,3132,3132,3732,buq,qns-item-noham,88,737140,0.0-1.0-0.87
<b>Skeptical people are usually just bad-tempered.,Highly disagree,89/150,Highly disagree,1,1698241683312,1698241685551,\Highly disagree\,\Highly disagree\,\1\,1698241685110,1698241685110,1798,1798,2239,buq,qns-item-noham,89,739384,0.0-1.0-0.88
<b>It is difficult for me to remember the last time I was surprised by politics.,Highly disagree,90/150,Somewhat agree,3,1698241685555,1698241689515,\Somewhat agree\,\Somewhat agree\,\3\,1698241689164,1698241689164,3609,3609,3960,buq,qns-item-noham,90,743348,0.0-1.0-0.89
"<b>When I find out I?m wrong, I think a lot about my related beliefs.",Highly disagree,91/150,Somewhat disagree,2,1698241689520,1698241693367,\Somewhat agree\,\Somewhat disagree\,\3\,1698241691563,1698241692978,2043,3458,3847,buq,qns-item-noham,91,747200,0.0-1.0-0.90
"<b>If the political party I support messes up, it makes me think you can?t trust anyone these days",Highly disagree,92/150,Somewhat agree,3,1698241693371,1698241696280,\Somewhat agree\,\Somewhat agree\,\3\,1698241695949,1698241695949,2578,2578,2909,buq,qns-item-noham,92,750113,0.0-1.0-0.91
<b>People?s brains turn off when they talk about politics.,Highly disagree,93/150,Somewhat agree,3,1698241696284,1698241699117,\Somewhat agree\,\Somewhat agree\,\3\,1698241698718,1698241698718,2434,2434,2833,buq,qns-item-noham,93,752950,0.0-1.0-0.92
<b>People who are wrong are usually just ignoring the obvious.,Highly disagree,94/150,Somewhat disagree,2,1698241699119,1698241702525,\Somewhat agree\,\Somewhat disagree\,\3\,1698241701538,1698241702096,2419,2977,3406,buq,qns-item-noham,94,756358,0.0-1.0-0.93
"<b>The world isn?t that complicated, but it?s still hard to figure out how it works.",Highly disagree,95/150,Somewhat agree,3,1698241702529,1698241706367,\Somewhat agree\,\Somewhat agree\,\3\,1698241705889,1698241705889,3360,3360,3838,buq,qns-item-noham,95,760200,0.0-1.0-0.94
"<b>When forming my views on people, I rely more on what they are like now rather than rely on my past experience with them.",Highly disagree,96/150,Somewhat disagree,2,1698241706370,1698241711526,\Highly disagree\,\Somewhat disagree\,\1\,1698241710558,1698241711189,4188,4819,5156,buq,qns-item-noham,96,765359,0.0-1.0-0.95
"<b>When people contradict my beliefs, I usually know about their evidence already.",Highly disagree,97/150,Highly disagree,1,1698241711528,1698241726059,\Highly disagree\,\Highly disagree\,\1\,1698241725649,1698241725649,14121,14121,14531,buq,qns-item-noham,97,779892,0.0-1.0-0.96
<b>Being wrong is a matter of degree.,Highly disagree,98/150,Somewhat disagree,2,1698241726063,1698241728215,\Somewhat disagree\,\Somewhat disagree\,\2\,1698241727873,1698241727873,1810,1810,2152,buq,qns-item-noham,98,782048,0.0-1.0-0.97
<b>Figuring out what?s true and what?s false mainly requires a strong moral compass.,Highly disagree,99/150,Somewhat agree,3,1698241728219,1698241733227,\Somewhat agree\,\Somewhat agree\,\3\,1698241732741,1698241732741,4522,4522,5008,buq,qns-item-noham,99,787060,0.0-1.0-0.98
<b>Most of the beliefs people have are at least somewhat understandable.,Highly disagree,100/150,Somewhat agree,3,1698241733231,1698241750249,\Somewhat disagree\,\Somewhat agree\,\2\,1698241749262,1698241749875,16031,16644,17018,buq,qns-item-noham,100,804082,0.0-1.0-0.99
"<b>Usually I?m wrong about simple things, not complicated ones.",Highly disagree,101/150,Somewhat agree,3,1698241750253,1698241755173,\Somewhat agree\,\Somewhat agree\,\3\,1698241754818,1698241754818,4565,4565,4920,buq,qns-item-noham,101,809006,0.0-1.0-0.100
<b>Getting all the information I want about important things is hard.,Highly disagree,102/150,Somewhat agree,3,1698241755176,1698241815898,\Somewhat agree\,\Somewhat agree\,\3\,1698241815534,1698241815534,60358,60358,60722,buq,qns-item-noham,102,869731,0.0-1.0-0.101
<b>Most false beliefs spread because people try to deceive one another.,Highly disagree,103/150,Somewhat disagree,2,1698241815903,1698241830589,\Somewhat agree\,\Somewhat disagree\,\3\,1698241829113,1698241830157,13210,14254,14686,buq,qns-item-noham,103,884422,0.0-1.0-0.102
<b>I can usually find something to agree with in most people?s beliefs.,Highly disagree,104/150,Somewhat agree,3,1698241830592,1698241835363,\Somewhat agree\,\Somewhat agree\,\3\,1698241834979,1698241834979,4387,4387,4771,buq,qns-item-noham,104,889197,0.0-1.0-0.103
<b>I only form my views of people once I get to know them very well.,Highly disagree,105/150,Somewhat agree,3,1698241835367,1698241839704,\Somewhat agree\,\Somewhat agree\,\3\,1698241838364,1698241838364,2997,2997,4337,buq,qns-item-noham,105,893537,0.0-1.0-0.104
"<b>When people tell me important things about the world, I usually believe them.",Highly disagree,106/150,Somewhat disagree,2,1698241839708,1698241871416,\Somewhat disagree\,\Somewhat disagree\,\2\,1698241870467,1698241870467,30759,30759,31708,buq,qns-item-noham,106,925249,0.0-1.0-0.105
"<b>If a friend does something that upsets me, it reminds me what an unpredictable place the world is.",Highly disagree,107/150,Somewhat agree,3,1698241871420,1698241884811,\Somewhat disagree\,\Somewhat agree\,\2\,1698241881496,1698241883551,10076,12131,13391,buq,qns-item-noham,107,938644,0.0-1.0-0.106
<b>Having some conflicting beliefs is inevitable.,Highly disagree,108/150,Highly agree,4,1698241884816,1698241908948,\Somewhat agree\,\Highly agree\,\3\,1698241907306,1698241908106,22490,23290,24132,buq,qns-item-noham,108,962781,0.0-1.0-0.107
<b>People are wrong because they haven?t thought much about things.,Highly disagree,109/150,Highly disagree,1,1698241908952,1698241913154,\Highly disagree\,\Highly disagree\,\1\,1698241912598,1698241912598,3646,3646,4202,buq,qns-item-noham,109,966987,0.0-1.0-0.108
<b>People tend to believe whatever is good for their friends.,Highly disagree,110/150,Somewhat agree,3,1698241913157,1698241923182,\Somewhat agree\,\Somewhat agree\,\3\,1698241922684,1698241922684,9527,9527,10025,buq,qns-item-noham,110,977015,0.0-1.0-0.109
"<b>When I talk about important topics, I try to make sure people know I?m not always right.",Highly disagree,111/150,Somewhat agree,3,1698241923185,1698241925927,\Somewhat agree\,\Somewhat agree\,\3\,1698241925387,1698241925387,2202,2202,2742,buq,qns-item-noham,111,979760,0.0-1.0-0.110
<b>I used to be more certain my beliefs were true.,Highly disagree,112/150,Somewhat agree,3,1698241925931,1698241930671,\Somewhat agree\,\Somewhat agree\,\3\,1698241929759,1698241929759,3828,3828,4740,buq,qns-item-noham,112,984504,0.0-1.0-0.111
<b>It?s often pretty easy to figure out whether something is true based on who said it.,Highly disagree,113/150,Somewhat disagree,2,1698241930674,1698241956020,\Somewhat disagree\,\Somewhat disagree\,\2\,1698241955405,1698241955405,24731,24731,25346,buq,qns-item-noham,113,1009853,0.0-1.0-0.112
<b>Having bad food in my favorite restaurant will make me think the restaurant is no longer good.,Highly disagree,114/150,Somewhat disagree,2,1698241956023,1698241966833,\Somewhat disagree\,\Somewhat disagree\,\2\,1698241965684,1698241965684,9661,9661,10810,buq,qns-item-noham,114,1020666,0.0-1.0-0.113
<b>I transform into a hummingbird every day.,Highly disagree,115/150,Highly disagree,1,1698241966835,1698241968804,\Highly disagree\,\Highly disagree\,\1\,1698241968129,1698241968129,1294,1294,1969,buq,qns-item-noham,115,1022637,0.0-1.0-0.114
"<b>Unfortunately, when people are wrong, it?s usually because they?re bad.",Highly disagree,116/150,Highly disagree,1,1698241968806,1698241972995,\Highly disagree\,\Highly disagree\,\1\,1698241972302,1698241972302,3496,3496,4189,buq,qns-item-noham,116,1026828,0.0-1.0-0.115
<b>I think a lot about arguments against my views.,Highly disagree,117/150,Somewhat agree,3,1698241972999,1698241980031,\Somewhat disagree\,\Somewhat agree\,\2\,1698241978777,1698241979383,5778,6384,7032,buq,qns-item-noham,117,1033864,0.0-1.0-0.116
<b>Details tend to matter a lot for knowing whether a policy is good.,Highly disagree,118/150,Highly agree,4,1698241980036,1698242011885,\Highly agree\,\Highly agree\,\4\,1698242011148,1698242011148,31112,31112,31849,buq,qns-item-noham,118,1065718,0.0-1.0-0.117
<b>Personal experience is usually more important than facts and figures.,Highly disagree,119/150,Somewhat disagree,2,1698242011890,1698242020990,\Somewhat disagree\,\Somewhat disagree\,\2\,1698242017831,1698242020438,5941,8548,9100,buq,qns-item-noham,119,1074824,0.0-1.0-0.118
<b>I?ve been tricked before about important matters.,Highly disagree,120/150,Somewhat agree,3,1698242020995,1698242023142,\Somewhat agree\,\Somewhat agree\,\3\,1698242022598,1698242022598,1603,1603,2147,buq,qns-item-noham,120,1076975,0.0-1.0-0.119
<b>I would need to be totally wowed if I were to change my opinion of a restaurant I don?t like.,Highly disagree,121/150,Somewhat disagree,2,1698242023147,1698242031836,\Somewhat disagree\,\Somewhat disagree\,\2\,1698242027205,1698242027205,4058,4058,8689,buq,qns-item-noham,121,1085669,0.0-1.0-0.120
<b>I care a lot about politics.,Highly disagree,122/150,Somewhat agree,3,1698242031841,1698242033812,\Somewhat agree\,\Somewhat agree\,\3\,1698242033252,1698242033252,1411,1411,1971,buq,qns-item-noham,122,1087645,0.0-1.0-0.121
<b>People with conflicting beliefs usually have some facts they disagree on.,Highly disagree,123/150,Somewhat agree,3,1698242033816,1698242038693,\Somewhat agree\,\Somewhat agree\,\3\,1698242036211,1698242036211,2395,2395,4877,buq,qns-item-noham,123,1092526,0.0-1.0-0.122
<b>There are some topics I?ve been really wrong about.,Highly disagree,124/150,Somewhat agree,3,1698242038699,1698242046399,\Somewhat agree\,\Somewhat agree\,\3\,1698242046082,1698242046082,7383,7383,7700,buq,qns-item-noham,124,1100232,0.0-1.0-0.123
<b>Most beliefs can be supported with at least some evidence.,Highly disagree,125/150,Somewhat agree,3,1698242046403,1698242057881,\Somewhat agree\,\Somewhat agree\,\3\,1698242056633,1698242056633,10230,10230,11478,buq,qns-item-noham,125,1111714,0.0-1.0-0.124
<b>Other people make life out to be more complicated than it really is.,Highly disagree,126/150,Somewhat disagree,2,1698242057887,1698242064968,\Somewhat agree\,\Somewhat disagree\,\3\,1698242062894,1698242064164,5007,6277,7081,buq,qns-item-noham,126,1118801,0.0-1.0-0.125
"<b>My political views are being shaped continuously as I gather more information, rather than relying on what I?ve known to be true of my party in the past. ",Highly disagree,127/150,Highly agree,4,1698242064973,1698242072738,\Highly agree\,\Highly agree\,\4\,1698242071676,1698242071676,6703,6703,7765,buq,qns-item-noham,127,1126571,0.0-1.0-0.126
<b>It?s pretty unusual for true things to seem false.,Highly disagree,128/150,Somewhat disagree,2,1698242072739,1698242079923,\Somewhat disagree\,\Somewhat disagree\,\2\,1698242078777,1698242078777,6038,6038,7184,buq,qns-item-noham,128,1133756,0.0-1.0-0.127
"<b>Policy details don?t matter much, just the big picture.",Highly disagree,129/150,Somewhat disagree,2,1698242079928,1698242084331,\Somewhat disagree\,\Somewhat disagree\,\2\,1698242083357,1698242083357,3429,3429,4403,buq,qns-item-noham,129,1138164,0.0-1.0-0.128
<b>I know my friends so well they can hardly ever surprise me.,Highly disagree,130/150,Highly agree,4,1698242084336,1698242088151,\Somewhat agree\,\Highly agree\,\3\,1698242086123,1698242086923,1787,2587,3815,buq,qns-item-noham,130,1141984,0.0-1.0-0.129
"<b>When I talk to people, I often think about why they have the beliefs they do.",Highly disagree,131/150,Somewhat agree,3,1698242088157,1698242097514,\Somewhat agree\,\Somewhat agree\,\3\,1698242096291,1698242096291,8134,8134,9357,buq,qns-item-noham,131,1151347,0.0-1.0-0.130
<b>I do not often change my views on people.,Highly disagree,132/150,Somewhat disagree,2,1698242097518,1698242101101,\Somewhat disagree\,\Somewhat disagree\,\2\,1698242100780,1698242100780,3262,3262,3583,buq,qns-item-noham,132,1154934,0.0-1.0-0.131
<b>I often wish I had more time to spend figuring out what?s true and what?s false in life.,Highly disagree,133/150,Somewhat agree,3,1698242101105,1698242107429,\Highly agree\,\Somewhat agree\,\4\,1698242104309,1698242105357,3204,4252,6324,buq,qns-item-noham,133,1161262,0.0-1.0-0.132
<b>I?m more certain about my beliefs than I used to be.,Highly disagree,134/150,Highly agree,4,1698242107432,1698242110587,\Somewhat agree\,\Highly agree\,\3\,1698242109316,1698242110042,1884,2610,3155,buq,qns-item-noham,134,1164420,0.0-1.0-0.133
"<b>Whenever I find out new information, I update my views on politics accordingly.",Highly disagree,135/150,Somewhat agree,3,1698242110590,1698242128476,\Somewhat agree\,\Somewhat agree\,\3\,1698242128005,1698242128005,17415,17415,17886,buq,qns-item-noham,135,1182309,0.0-1.0-0.134
<b>People often tell falsehoods unintentionally.,Highly disagree,136/150,Somewhat agree,3,1698242128481,1698242159296,\Somewhat agree\,\Somewhat agree\,\3\,1698242158878,1698242158878,30397,30397,30815,buq,qns-item-noham,136,1213129,0.0-1.0-0.135
<b>Most people don?t know much about most things.,Highly disagree,137/150,Somewhat agree,3,1698242159302,1698242205928,\Somewhat agree\,\Somewhat agree\,\3\,1698242205342,1698242205342,46040,46040,46626,buq,qns-item-noham,137,1259761,0.0-1.0-0.136
"<b>If I find out something new about someone, I easily change my views about them.",Highly disagree,138/150,Highly disagree,1,1698242205931,1698242209818,\Highly disagree\,\Highly disagree\,\1\,1698242208807,1698242208807,2876,2876,3887,buq,qns-item-noham,138,1263651,0.0-1.0-0.137
<b>Having true beliefs is difficult.,Highly disagree,139/150,Somewhat disagree,2,1698242209821,1698242216263,\Somewhat disagree\,\Somewhat disagree\,\2\,1698242215701,1698242215701,5880,5880,6442,buq,qns-item-noham,139,1270096,0.0-1.0-0.138
<b>I don?t try new foods since I know I won?t like them.,Highly disagree,140/150,Highly disagree,1,1698242216269,1698242218288,\Highly disagree\,\Highly disagree\,\1\,1698242217904,1698242217904,1635,1635,2019,buq,qns-item-noham,140,1272121,0.0-1.0-0.139
<b>It?s easy to figure out what?s true or false based on who?s saying it.,Highly disagree,141/150,Highly disagree,1,1698242218292,1698242227660,\Highly disagree\,\Highly disagree\,\1\,1698242227026,1698242227077,8734,8785,9368,buq,qns-item-noham,141,1281493,0.0-1.0-0.140
<b>False things have seemed true to me many times.,Highly disagree,142/150,Somewhat agree,3,1698242227663,1698242231973,\Somewhat agree\,\Somewhat agree\,\3\,1698242229529,1698242229529,1866,1866,4310,buq,qns-item-noham,142,1285806,0.0-1.0-0.141
<b>It?s pretty easy to sort out what?s true and what?s false in life.,Highly disagree,143/150,Highly disagree,1,1698242231975,1698242240612,\Highly disagree\,\Highly disagree\,\1\,1698242240152,1698242240152,8177,8177,8637,buq,qns-item-noham,143,1294445,0.0-1.0-0.142
<b>Knowing lots of statistics about something is usually important for understanding it.,Highly disagree,144/150,Highly agree,4,1698242240613,1698242244628,\Highly agree\,\Highly agree\,\4\,1698242244204,1698242244204,3591,3591,4015,buq,qns-item-noham,144,1298461,0.0-1.0-0.143
<b>Other people trick each other a lot.,Highly disagree,145/150,Somewhat agree,3,1698242244633,1698242253479,\Somewhat agree\,\Somewhat agree\,\3\,1698242250110,1698242250110,5477,5477,8846,buq,qns-item-noham,145,1307312,0.0-1.0-0.144
<b>I would need to learn a lot about a person for my opinion of them to be swayed.,Highly disagree,146/150,Somewhat agree,3,1698242253482,1698242300859,\Somewhat agree\,\Somewhat agree\,\3\,1698242300066,1698242300066,46584,46584,47377,buq,qns-item-noham,146,1354692,0.0-1.0-0.145
<b>People can?t usually trick me when it comes to topics I care about.,Highly disagree,147/150,Somewhat agree,3,1698242300864,1698242358454,\Somewhat agree\,\Somewhat agree\,\3\,1698242357455,1698242357455,56591,56591,57590,buq,qns-item-noham,147,1412287,0.0-1.0-0.146
<b>I do not often change my views on food.,Highly disagree,148/150,Highly disagree,1,1698242358457,1698242364661,\Highly disagree\,\Highly disagree\,\1\,1698242364052,1698242364052,5595,5595,6204,buq,qns-item-noham,148,1418494,0.0-1.0-0.147
<b>Specific policies are often very important to me.,Highly disagree,149/150,Somewhat agree,3,1698242364665,1698242371639,\Somewhat agree\,\Somewhat agree\,\3\,1698242370547,1698242370547,5882,5882,6974,buq,qns-item-noham,149,1425472,0.0-1.0-0.148
<b>Most people are woefully under-informed.,Highly disagree,150/150,Somewhat agree,3,1698242371641,1698242373885,\Somewhat agree\,\Somewhat agree\,\3\,1698242373423,1698242373423,1782,1782,2244,buq,qns-item-noham,150,1427718,0.0-1.0-0.149
