Question,qns_options,quest_num,answer,answer_num,question_load_timestamp,next_btn_timestamp,text_selected,final_text_selected,option_num_selected,preview_timestamps,final_text_selected_time_stamp,rt_first_option_click,rt_final_option_click,rt_submit_click,questionnaire,trial_type,trial_index,time_elapsed,internal_node_id
<b>Considering other people?s perspectives can help us figure out what?s true or false.,Highly disagree,1/150,Somewhat agree,3,1698241011607,1698241015767,\Somewhat agree\,\Somewhat agree\,\3\,1698241014833,1698241014833,3226,3226,4160,buq,qns-item-noham,1,9646,0.0-1.0-0.0
<b>Knowing what?s true and knowing what to do about it are usually basically the same.,Highly disagree,2/150,Somewhat disagree,2,1698241015771,1698241020341,\Somewhat disagree\,\Somewhat disagree\,\2\,1698241019199,1698241019199,3428,3428,4570,buq,qns-item-noham,2,14220,0.0-1.0-0.1
<b>Most people just believe whatever is convenient for them.,Highly disagree,3/150,Highly agree,4,1698241020342,1698241022453,\Highly agree\,\Highly agree\,\4\,1698241021786,1698241021786,1444,1444,2111,buq,qns-item-noham,3,16332,0.0-1.0-0.2
<b>Even people who are wrong about most things can be right sometimes.,Highly disagree,4/150,Somewhat agree,3,1698241022455,1698241035582,\Somewhat agree\,\Somewhat agree\,\3\,1698241034900,1698241034900,12445,12445,13127,buq,qns-item-noham,4,29462,0.0-1.0-0.3
"<b>If the political party I support does something that upsets me, then the party may have changed, and I need to re-evaluate my support.",Highly disagree,5/150,Somewhat agree,3,1698241035585,1698241038674,\Somewhat agree\,\Somewhat agree\,\3\,1698241037339,1698241037339,1754,1754,3089,buq,qns-item-noham,5,32553,0.0-1.0-0.4
"<b>When people disagree, one side is usually completely right.",Highly disagree,6/150,Somewhat disagree,2,1698241038676,1698241041387,\Somewhat agree\,\Somewhat disagree\,\3\,1698241040097,1698241040668,1421,1992,2711,buq,qns-item-noham,6,35266,0.0-1.0-0.5
<b>People have lots of false beliefs.,Highly disagree,7/150,Somewhat agree,3,1698241041389,1698241042870,\Somewhat agree\,\Somewhat agree\,\3\,1698241042351,1698241042351,962,962,1481,buq,qns-item-noham,7,36749,0.0-1.0-0.6
<b>Having some big beliefs helps me sort out minor ones.,Highly disagree,8/150,Somewhat agree,3,1698241042872,1698241045140,\Somewhat agree\,\Somewhat agree\,\3\,1698241044509,1698241044509,1637,1637,2268,buq,qns-item-noham,8,39019,0.0-1.0-0.7
<b>Political questions are usually pretty complicated.,Highly disagree,9/150,Somewhat agree,3,1698241045142,1698241060626,\Somewhat agree\,\Somewhat agree\,\3\,1698241060174,1698241060174,15032,15032,15484,buq,qns-item-noham,9,54505,0.0-1.0-0.8
<b>Figuring out what?s important in life requires learning a lot of facts.,Highly disagree,10/150,Somewhat agree,3,1698241060628,1698241062072,\Somewhat agree\,\Somewhat agree\,\3\,1698241061412,1698241061412,784,784,1444,buq,qns-item-noham,10,55951,0.0-1.0-0.9
<b>It is difficult for me to remember the last time I was surprised by politics.,Highly disagree,11/150,Highly disagree,1,1698241062073,1698241065489,\Highly agree\,\Highly disagree\,\4\,1698241063518,1698241064926,1445,2853,3416,buq,qns-item-noham,11,59368,0.0-1.0-0.10
<b>People?s false beliefs are understandable.,Highly disagree,12/150,Somewhat agree,3,1698241065490,1698241067312,\Somewhat agree\,\Somewhat agree\,\3\,1698241066483,1698241066483,993,993,1822,buq,qns-item-noham,12,61191,0.0-1.0-0.11
<b>I spend a lot of time trying to be informed about politics.,Highly disagree,13/150,Somewhat disagree,2,1698241067315,1698241069603,\Somewhat agree\,\Somewhat disagree\,\3\,1698241068002,1698241069062,687,1747,2288,buq,qns-item-noham,13,63482,0.0-1.0-0.12
<b>I think a lot about whether my beliefs are right.,Highly disagree,14/150,Somewhat agree,3,1698241069605,1698241071115,\Somewhat agree\,\Somewhat agree\,\3\,1698241070633,1698241070633,1028,1028,1510,buq,qns-item-noham,14,64994,0.0-1.0-0.13
<b>Statistics can be pretty misleading sometimes.,Highly disagree,15/150,Somewhat agree,3,1698241071118,1698241072628,\Somewhat agree\,\Somewhat agree\,\3\,1698241072088,1698241072088,970,970,1510,buq,qns-item-noham,15,66507,0.0-1.0-0.14
<b>Figuring out what?s true and what?s false takes a lot of time and effort.,Highly disagree,16/150,Somewhat agree,3,1698241072630,1698241074585,\Somewhat agree\,\Somewhat agree\,\3\,1698241073754,1698241073754,1124,1124,1955,buq,qns-item-noham,16,68464,0.0-1.0-0.15
"<b>If a friend does something bad to me, it was likely an error on their part.",Highly disagree,17/150,Highly agree,4,1698241074586,1698241077216,\Highly agree\,\Highly agree\,\4\,1698241076498,1698241076498,1912,1912,2630,buq,qns-item-noham,17,71095,0.0-1.0-0.16
<b>I have lots of beliefs that I?m only sort of sure about.,Highly disagree,18/150,Somewhat agree,3,1698241077218,1698241079366,\Somewhat agree\,\Somewhat agree\,\3\,1698241078454,1698241078454,1236,1236,2148,buq,qns-item-noham,18,73246,0.0-1.0-0.17
"<b>If I go to my favorite restaurant and the food is surprisingly bad, it reminds me there are many disappointments in life.",Highly disagree,19/150,Somewhat agree,3,1698241079368,1698241081286,\Somewhat agree\,\Somewhat agree\,\3\,1698241080270,1698241080270,902,902,1918,buq,qns-item-noham,19,75165,0.0-1.0-0.18
<b>Sometimes my beliefs are inconvenient for me.,Highly disagree,20/150,Highly agree,4,1698241081287,1698241083443,\Highly agree\,\Highly agree\,\4\,1698241082991,1698241082991,1704,1704,2156,buq,qns-item-noham,20,77322,0.0-1.0-0.19
<b>Paying attention to multiple news sources is important.,Highly disagree,21/150,Somewhat agree,3,1698241083444,1698241085437,\Somewhat agree\,\Somewhat agree\,\3\,1698241084659,1698241084659,1215,1215,1993,buq,qns-item-noham,21,79316,0.0-1.0-0.20
"<b>If you are paying attention, please select ?Somewhat agree?",Highly disagree,22/150,Somewhat agree,3,1698241085439,1698241087861,\Somewhat agree\,\Somewhat agree\,\3\,1698241087401,1698241087401,1962,1962,2422,buq,qns-item-noham,22,81740,0.0-1.0-0.21
"<b>When I talk to others, I often worry I?ll convince them of something I didn?t mean to.",Highly disagree,23/150,Somewhat disagree,2,1698241087863,1698241090462,\Somewhat disagree\,\Somewhat disagree\,\2\,1698241089774,1698241089774,1911,1911,2599,buq,qns-item-noham,23,84341,0.0-1.0-0.22
<b>I would need to learn something utterly shocking about my party in order to change my political views.,Highly disagree,24/150,Somewhat disagree,2,1698241090464,1698241093575,\Somewhat disagree\,\Somewhat disagree\,\2\,1698241092301,1698241092301,1837,1837,3111,buq,qns-item-noham,24,87454,0.0-1.0-0.23
"<b>When I have new experiences, I tend to think of them as unique.",Highly disagree,25/150,Somewhat agree,3,1698241093577,1698241095569,\Somewhat agree\,\Somewhat agree\,\3\,1698241095118,1698241095118,1541,1541,1992,buq,qns-item-noham,25,89448,0.0-1.0-0.24
<b>Reading lots of things is important for understanding the world.,Highly disagree,26/150,Somewhat agree,3,1698241095571,1698241096963,\Somewhat agree\,\Somewhat agree\,\3\,1698241096415,1698241096415,844,844,1392,buq,qns-item-noham,26,90842,0.0-1.0-0.25
<b>The world is complicated.,Highly disagree,27/150,Somewhat agree,3,1698241096965,1698241099194,\Somewhat agree\,\Somewhat agree\,\3\,1698241098223,1698241098223,1258,1258,2229,buq,qns-item-noham,27,93073,0.0-1.0-0.26
<b>I change my mind about specific policies pretty frequently.,Highly disagree,28/150,Somewhat disagree,2,1698241099195,1698241102862,\Somewhat agree\,\Somewhat disagree\,\3\,1698241101350,1698241102373,2155,3178,3667,buq,qns-item-noham,28,96741,0.0-1.0-0.27
"<b>If a politician in my political party supports something I disagree with, I give them the benefit of the doubt, as such issues often involve hidden complexities that aren?t obvious.   ",Highly disagree,29/150,Somewhat disagree,2,1698241102864,1698241106850,\Somewhat agree\,\Somewhat disagree\,\3\,1698241105412,1698241106249,2548,3385,3986,buq,qns-item-noham,29,100729,0.0-1.0-0.28
<b>People?s bad politics are usually motivated by hatefulness.,Highly disagree,30/150,Highly agree,4,1698241106853,1698241109429,\Highly agree\,\Highly agree\,\4\,1698241108725,1698241108725,1872,1872,2576,buq,qns-item-noham,30,103308,0.0-1.0-0.29
"<b>Most new experiences are just like old ones, but a little bit different.",Highly disagree,31/150,Somewhat agree,3,1698241109430,1698241111074,\Somewhat agree\,\Somewhat agree\,\3\,1698241110599,1698241110599,1169,1169,1644,buq,qns-item-noham,31,104953,0.0-1.0-0.30
<b>I think a lot about how to reconcile my beliefs with one another.,Highly disagree,32/150,Somewhat agree,3,1698241111076,1698241112422,\Somewhat agree\,\Somewhat agree\,\3\,1698241111941,1698241111941,865,865,1346,buq,qns-item-noham,32,106301,0.0-1.0-0.31
<b>Personal experience rarely leads people astray.,Highly disagree,33/150,Highly disagree,1,1698241112424,1698241115461,\Somewhat agree\,\Highly disagree\,\3\,1698241113245,1698241114957,821,2533,3037,buq,qns-item-noham,33,109340,0.0-1.0-0.32
<b>I might have false beliefs about important topics.,Highly disagree,34/150,Somewhat agree,3,1698241115463,1698241117455,\Somewhat agree\,\Somewhat agree\,\3\,1698241116966,1698241116966,1503,1503,1992,buq,qns-item-noham,34,111334,0.0-1.0-0.33
"<b>If a good friend of mine does something unexpected that upsets me, I feel like I don?t know them anymore.",Highly disagree,35/150,Highly disagree,1,1698241117457,1698241121042,\Highly agree\,\Highly disagree\,\4\,1698241119286,1698241120598,1829,3141,3585,buq,qns-item-noham,35,114921,0.0-1.0-0.34
<b>Other people?s beliefs are often incoherent.,Highly disagree,36/150,Somewhat disagree,2,1698241121044,1698241123888,\Somewhat agree\,\Somewhat disagree\,\3\,1698241122051,1698241122969,1007,1925,2844,buq,qns-item-noham,36,117767,0.0-1.0-0.35
<b>It?s important to have friends who think about things differently than I do.,Highly disagree,37/150,Somewhat agree,3,1698241123890,1698241125415,\Somewhat agree\,\Somewhat agree\,\3\,1698241124896,1698241124896,1006,1006,1525,buq,qns-item-noham,37,119294,0.0-1.0-0.36
"<b>Every now and then, a new experience will unsettle beliefs I?ve had for a while.",Highly disagree,38/150,Somewhat agree,3,1698241125417,1698241128009,\Somewhat agree\,\Somewhat agree\,\3\,1698241126904,1698241126904,1487,1487,2592,buq,qns-item-noham,38,121888,0.0-1.0-0.37
<b>Some policies I agree with in principle are so bad I don?t support them. ,Highly disagree,39/150,Somewhat agree,3,1698241128010,1698241131121,\Somewhat agree\,\Somewhat agree\,\3\,1698241128838,1698241128838,828,828,3111,buq,qns-item-noham,39,125000,0.0-1.0-0.38
<b>I?m pretty sure I?ve accidentally spread false information.,Highly disagree,40/150,Highly agree,4,1698241131123,1698241133699,\Highly agree\,\Highly agree\,\4\,1698241132707,1698241132707,1584,1584,2576,buq,qns-item-noham,40,127578,0.0-1.0-0.39
"<b>If I go to my favorite restaurant and the food is unexpectedly bad, then they have changed owners.",Highly disagree,41/150,Highly disagree,1,1698241133701,1698241137316,\Somewhat agree\,\Highly disagree\,\3\,1698241135057,1698241136909,1356,3208,3615,buq,qns-item-noham,41,131195,0.0-1.0-0.40
"<b>In politics, it?s important to trust your friends and family.",Highly disagree,42/150,Highly disagree,1,1698241137317,1698241140221,\Somewhat agree\,\Highly disagree\,\3\,1698241138220,1698241139815,903,2498,2904,buq,qns-item-noham,42,134100,0.0-1.0-0.41
<b>It?s OK to have some conflicting beliefs.,Highly disagree,43/150,Somewhat agree,3,1698241140223,1698241142185,\Somewhat agree\,\Somewhat agree\,\3\,1698241141429,1698241141429,1206,1206,1962,buq,qns-item-noham,43,136064,0.0-1.0-0.42
<b>Sometimes the details of a matter seem to conflict with the big picture.,Highly disagree,44/150,Somewhat agree,3,1698241142187,1698241144105,\Somewhat agree\,\Somewhat agree\,\3\,1698241143022,1698241143022,835,835,1918,buq,qns-item-noham,44,137984,0.0-1.0-0.43
<b>Listening to people I disagree with makes my opinions better.,Highly disagree,45/150,Somewhat disagree,2,1698241144106,1698241146764,\Somewhat disagree\,\Somewhat disagree\,\2\,1698241146201,1698241146201,2095,2095,2658,buq,qns-item-noham,45,140643,0.0-1.0-0.44
<b>Policies that sound bad are sometimes fine when you find out about their details.,Highly disagree,46/150,Somewhat agree,3,1698241146766,1698241149033,\Somewhat agree\,\Somewhat agree\,\3\,1698241147905,1698241147905,1139,1139,2267,buq,qns-item-noham,46,142912,0.0-1.0-0.45
"<b>The world is always changing, so my beliefs are sometimes out-dated.",Highly disagree,47/150,Somewhat agree,3,1698241149035,1698241151722,\Somewhat agree\,\Somewhat agree\,\3\,1698241150914,1698241150914,1879,1879,2687,buq,qns-item-noham,47,145601,0.0-1.0-0.46
"<b>If I receive a bad meal at my favorite restaurant and the food is surprisingly bad, I do not think much of it, and assume the chef is just having an ?off? day.",Highly disagree,48/150,Somewhat agree,3,1698241151723,1698241155383,\Somewhat agree\,\Somewhat agree\,\3\,1698241154841,1698241154841,3118,3118,3660,buq,qns-item-noham,48,149262,0.0-1.0-0.47
"<b>False information is unavoidable, to some extent.",Highly disagree,49/150,Somewhat agree,3,1698241155385,1698241157346,\Somewhat agree\,\Somewhat agree\,\3\,1698241156435,1698241156435,1050,1050,1961,buq,qns-item-noham,49,151225,0.0-1.0-0.48
<b>My moral compass sometimes makes it harder to determine what?s true.,Highly disagree,50/150,Highly agree,4,1698241157347,1698241159918,\Somewhat agree\,\Highly agree\,\3\,1698241158851,1698241159288,1504,1941,2571,buq,qns-item-noham,50,153797,0.0-1.0-0.49
"<b>When you disagree with someone, it?s important to listen to them carefully.",Highly disagree,51/150,Highly agree,4,1698241159919,1698241161940,\Highly agree\,\Highly agree\,\4\,1698241161044,1698241161044,1125,1125,2021,buq,qns-item-noham,51,155819,0.0-1.0-0.50
<b>Evidence pointing in the wrong direction isn?t really evidence at all.,Highly disagree,52/150,Somewhat agree,3,1698241161942,1698241166742,\Highly agree\,\Somewhat agree\,\4\,1698241163905,1698241166060,1963,4118,4800,buq,qns-item-noham,52,160621,0.0-1.0-0.51
"<b>If the political party I support messes up, it makes me think politics is rotten.",Highly disagree,53/150,Somewhat agree,3,1698241166744,1698241169269,\Somewhat agree\,\Somewhat agree\,\3\,1698241168684,1698241168684,1940,1940,2525,buq,qns-item-noham,53,163148,0.0-1.0-0.52
<b>Lots of important topics can only really be understood by some groups of people.,Highly disagree,54/150,Somewhat agree,3,1698241169271,1698241171055,\Somewhat agree\,\Somewhat agree\,\3\,1698241170448,1698241170448,1177,1177,1784,buq,qns-item-noham,54,164934,0.0-1.0-0.53
<b>Details almost always matter for being right about something.,Highly disagree,55/150,Highly agree,4,1698241171056,1698241174597,\Highly agree\,\Highly agree\,\4\,1698241173478,1698241173478,2422,2422,3541,buq,qns-item-noham,55,168476,0.0-1.0-0.54
"<b>The most important thing in politics is winning, not convincing people.",Highly disagree,56/150,Highly disagree,1,1698241174599,1698241176739,\Highly disagree\,\Highly disagree\,\1\,1698241176271,1698241176271,1672,1672,2140,buq,qns-item-noham,56,170618,0.0-1.0-0.55
<b>Having conflicting beliefs means you haven?t thought about them enough.,Highly disagree,57/150,Highly disagree,1,1698241176740,1698241179902,\Highly disagree\,\Highly disagree\,\1\,1698241179465,1698241179465,2725,2725,3162,buq,qns-item-noham,57,173781,0.0-1.0-0.56
<b>Other people have sometimes convinced me to change my mind on important topics.,Highly disagree,58/150,Somewhat agree,3,1698241179903,1698241181977,\Somewhat agree\,\Somewhat agree\,\3\,1698241181569,1698241181569,1666,1666,2074,buq,qns-item-noham,58,175856,0.0-1.0-0.57
<b>I do not often change my political opinions.,Highly disagree,59/150,Highly disagree,1,1698241181978,1698241183919,\Highly disagree\,\Highly disagree\,\1\,1698241183437,1698241183437,1459,1459,1941,buq,qns-item-noham,59,177798,0.0-1.0-0.58
<b>Thinking about how different things relate to one another is critical in life.,Highly disagree,60/150,Somewhat agree,3,1698241183921,1698241185638,\Somewhat agree\,\Somewhat agree\,\3\,1698241185015,1698241185015,1094,1094,1717,buq,qns-item-noham,60,179517,0.0-1.0-0.59
<b>True beliefs can have unfortunate implications.,Highly disagree,61/150,Somewhat agree,3,1698241185639,1698241188224,\Somewhat agree\,\Somewhat agree\,\3\,1698241187765,1698241187765,2126,2126,2585,buq,qns-item-noham,61,182103,0.0-1.0-0.60
<b>It?s difficult to not have at least some conflicting beliefs.,Highly disagree,62/150,Somewhat agree,3,1698241188225,1698241190075,\Somewhat agree\,\Somewhat agree\,\3\,1698241188987,1698241188987,762,762,1850,buq,qns-item-noham,62,183955,0.0-1.0-0.61
"<b>When I learn new things, I think deeply about how my opinions should change.",Highly disagree,63/150,Somewhat disagree,2,1698241190077,1698241195537,\Somewhat disagree\,\Somewhat disagree\,\2\,1698241195026,1698241195026,4949,4949,5460,buq,qns-item-noham,63,189416,0.0-1.0-0.62
<b>I think a lot about how to interpret different sorts of evidence.,Highly disagree,64/150,Somewhat agree,3,1698241195538,1698241197026,\Somewhat agree\,\Somewhat agree\,\3\,1698241196522,1698241196522,984,984,1488,buq,qns-item-noham,64,190905,0.0-1.0-0.63
<b>Politics is about thinking together and finding compromises.,Highly disagree,65/150,Somewhat agree,3,1698241197027,1698241198174,\Somewhat agree\,\Somewhat agree\,\3\,1698241197723,1698241197723,696,696,1147,buq,qns-item-noham,65,192053,0.0-1.0-0.64
<b>Wishful thinking causes a lot of problems.,Highly disagree,66/150,Somewhat agree,3,1698241198176,1698241199665,\Somewhat agree\,\Somewhat agree\,\3\,1698241198953,1698241198953,777,777,1489,buq,qns-item-noham,66,193544,0.0-1.0-0.65
<b>I judge a food item only once I try it many times.,Highly disagree,67/150,Somewhat agree,3,1698241199667,1698241201221,\Somewhat agree\,\Somewhat agree\,\3\,1698241200280,1698241200280,613,613,1554,buq,qns-item-noham,67,195100,0.0-1.0-0.66
"<b>When a person holds conflicting beliefs, they should really try to figure out what?s wrong.",Highly disagree,68/150,Highly agree,4,1698241201223,1698241204696,\Highly agree\,\Highly agree\,\4\,1698241204250,1698241204250,3027,3027,3473,buq,qns-item-noham,68,198575,0.0-1.0-0.67
<b>Knowing what?s important in life is easy.,Highly disagree,69/150,Highly disagree,1,1698241204697,1698241207615,\Highly agree\,\Highly disagree\,\4\,1698241205391,1698241207163,694,2466,2918,buq,qns-item-noham,69,201494,0.0-1.0-0.68
<b>Lots of smart people disagree about basic political questions.,Highly disagree,70/150,Somewhat agree,3,1698241207617,1698241209490,\Somewhat agree\,\Somewhat agree\,\3\,1698241208771,1698241208771,1154,1154,1873,buq,qns-item-noham,70,203369,0.0-1.0-0.69
<b>I swim across the Atlantic Ocean to get to work every day.,Highly disagree,71/150,Highly disagree,1,1698241209492,1698241211780,\Highly disagree\,\Highly disagree\,\1\,1698241211350,1698241211350,1858,1858,2288,buq,qns-item-noham,71,205659,0.0-1.0-0.70
"<b>Sometimes, you just have to ignore evidence that you know is wrong.",Highly disagree,72/150,Somewhat agree,3,1698241211782,1698241216025,\Highly agree\,\Somewhat agree\,\4\,1698241213283,1698241215521,1501,3739,4243,buq,qns-item-noham,72,209904,0.0-1.0-0.71
<b>I have had some false beliefs.,Highly disagree,73/150,Somewhat agree,3,1698241216027,1698241217241,\Somewhat agree\,\Somewhat agree\,\3\,1698241216825,1698241216825,798,798,1214,buq,qns-item-noham,73,211120,0.0-1.0-0.72
"<b>If one friend does something that upsets me, I sometimes start to distrust people in general.",Highly disagree,74/150,Somewhat agree,3,1698241217242,1698241219426,\Somewhat agree\,\Somewhat agree\,\3\,1698241217893,1698241217893,651,651,2184,buq,qns-item-noham,74,213306,0.0-1.0-0.73
<b>I easily apply what I learn in one situation to another.,Highly disagree,75/150,Somewhat agree,3,1698241219428,1698241221003,\Somewhat agree\,\Somewhat agree\,\3\,1698241220493,1698241220493,1065,1065,1575,buq,qns-item-noham,75,214882,0.0-1.0-0.74
<b>The facts about most important matters are easy to find.,Highly disagree,76/150,Somewhat agree,3,1698241221005,1698241222397,\Somewhat agree\,\Somewhat agree\,\3\,1698241221626,1698241221626,621,621,1392,buq,qns-item-noham,76,216276,0.0-1.0-0.75
<b>It?s better to know what?s true than to know what?s moral.,Highly disagree,77/150,Highly disagree,1,1698241222398,1698241226368,\Somewhat disagree\,\Highly disagree\,\2\,1698241225530,1698241225842,3132,3444,3970,buq,qns-item-noham,77,220247,0.0-1.0-0.76
<b>It?s good to be skeptical of people you agree with.,Highly disagree,78/150,Somewhat agree,3,1698241226369,1698241228183,\Somewhat agree\,\Somewhat agree\,\3\,1698241227657,1698241227657,1288,1288,1814,buq,qns-item-noham,78,222062,0.0-1.0-0.77
<b>Sometimes reasonable beliefs are wrong.,Highly disagree,79/150,Somewhat agree,3,1698241228185,1698241229918,\Somewhat agree\,\Somewhat agree\,\3\,1698241229414,1698241229414,1229,1229,1733,buq,qns-item-noham,79,223797,0.0-1.0-0.78
<b>I used to think the world was less complicated than I do now.,Highly disagree,80/150,Somewhat agree,3,1698241229920,1698241232125,\Somewhat agree\,\Somewhat agree\,\3\,1698241230585,1698241230585,665,665,2205,buq,qns-item-noham,80,226005,0.0-1.0-0.79
<b>People are usually completely right or completely wrong.,Highly disagree,81/150,Somewhat disagree,2,1698241232127,1698241234326,\Somewhat disagree\,\Somewhat disagree\,\2\,1698241233882,1698241233882,1755,1755,2199,buq,qns-item-noham,81,228205,0.0-1.0-0.80
<b>I spend a lot of time considering alternatives to my beliefs.,Highly disagree,82/150,Somewhat agree,3,1698241234329,1698241236193,\Somewhat agree\,\Somewhat agree\,\3\,1698241235082,1698241235082,753,753,1864,buq,qns-item-noham,82,230072,0.0-1.0-0.81
"<b>Political enemies need to be defeated, not convinced.",Highly disagree,83/150,Somewhat disagree,2,1698241236195,1698241238706,\Somewhat agree\,\Somewhat disagree\,\3\,1698241236973,1698241237875,778,1680,2511,buq,qns-item-noham,83,232585,0.0-1.0-0.82
"<b>When forming an opinion about a restaurant, I am more swayed by my  latest meal there than  previous meals I?ve had there.",Highly disagree,84/150,Highly agree,4,1698241238708,1698241241306,\Highly agree\,\Highly agree\,\4\,1698241240831,1698241240831,2123,2123,2598,buq,qns-item-noham,84,235185,0.0-1.0-0.83
<b>I try to remain skeptical about most topics.,Highly disagree,85/150,Somewhat agree,3,1698241241308,1698241243128,\Somewhat agree\,\Somewhat agree\,\3\,1698241242536,1698241242536,1228,1228,1820,buq,qns-item-noham,85,237007,0.0-1.0-0.84
<b>Being wrong is usually obvious in retrospect.,Highly disagree,86/150,Somewhat disagree,2,1698241243129,1698241246307,\Somewhat agree\,\Somewhat disagree\,\3\,1698241244299,1698241245781,1170,2652,3178,buq,qns-item-noham,86,240186,0.0-1.0-0.85
<b>It can be hard to realize that my beliefs are in conflict.,Highly disagree,87/150,Somewhat agree,3,1698241246308,1698241248195,\Somewhat agree\,\Somewhat agree\,\3\,1698241247640,1698241247640,1332,1332,1887,buq,qns-item-noham,87,242074,0.0-1.0-0.86
<b>I form my political views only after meticulously gathering historical and present information about their policies.,Highly disagree,88/150,Somewhat disagree,2,1698241248197,1698241250700,\Somewhat agree\,\Somewhat disagree\,\3\,1698241249648,1698241250196,1451,1999,2503,buq,qns-item-noham,88,244579,0.0-1.0-0.87
<b>Skeptical people are usually just bad-tempered.,Highly disagree,89/150,Somewhat disagree,2,1698241250702,1698241252501,\Somewhat disagree\,\Somewhat disagree\,\2\,1698241252115,1698241252115,1413,1413,1799,buq,qns-item-noham,89,246380,0.0-1.0-0.88
<b>It is difficult for me to remember the last time I was surprised by politics.,Highly disagree,90/150,Highly disagree,1,1698241252502,1698241255211,\Somewhat agree\,\Highly disagree\,\3\,1698241253790,1698241254805,1288,2303,2709,buq,qns-item-noham,90,249090,0.0-1.0-0.89
"<b>When I find out I?m wrong, I think a lot about my related beliefs.",Highly disagree,91/150,Somewhat agree,3,1698241255212,1698241257627,\Somewhat agree\,\Somewhat agree\,\3\,1698241257157,1698241257157,1945,1945,2415,buq,qns-item-noham,91,251506,0.0-1.0-0.90
"<b>If the political party I support messes up, it makes me think you can?t trust anyone these days",Highly disagree,92/150,Somewhat agree,3,1698241257628,1698241260079,\Somewhat agree\,\Somewhat agree\,\3\,1698241259398,1698241259398,1770,1770,2451,buq,qns-item-noham,92,253958,0.0-1.0-0.91
<b>People?s brains turn off when they talk about politics.,Highly disagree,93/150,Somewhat disagree,2,1698241260080,1698241263242,\Highly agree\,\Somewhat disagree\,\4\,1698241261850,1698241262820,1770,2740,3162,buq,qns-item-noham,93,257121,0.0-1.0-0.92
<b>People who are wrong are usually just ignoring the obvious.,Highly disagree,94/150,Somewhat agree,3,1698241263244,1698241265850,\Somewhat agree\,\Somewhat agree\,\3\,1698241265324,1698241265324,2080,2080,2606,buq,qns-item-noham,94,259729,0.0-1.0-0.93
"<b>The world isn?t that complicated, but it?s still hard to figure out how it works.",Highly disagree,95/150,Somewhat agree,3,1698241265852,1698241267531,\Somewhat agree\,\Somewhat agree\,\3\,1698241266516,1698241266516,664,664,1679,buq,qns-item-noham,95,261410,0.0-1.0-0.94
"<b>When forming my views on people, I rely more on what they are like now rather than rely on my past experience with them.",Highly disagree,96/150,Somewhat disagree,2,1698241267533,1698241270888,\Somewhat agree\,\Somewhat disagree\,\3\,1698241269561,1698241270228,2028,2695,3355,buq,qns-item-noham,96,264767,0.0-1.0-0.95
"<b>When people contradict my beliefs, I usually know about their evidence already.",Highly disagree,97/150,Somewhat agree,3,1698241270889,1698241272769,\Somewhat agree\,\Somewhat agree\,\3\,1698241272079,1698241272079,1190,1190,1880,buq,qns-item-noham,97,266648,0.0-1.0-0.96
<b>Being wrong is a matter of degree.,Highly disagree,98/150,Somewhat agree,3,1698241272771,1698241276295,\Somewhat agree\,\Somewhat agree\,\3\,1698241273525,1698241273525,754,754,3524,buq,qns-item-noham,98,270174,0.0-1.0-0.97
<b>Figuring out what?s true and what?s false mainly requires a strong moral compass.,Highly disagree,99/150,Highly agree,4,1698241276297,1698241279414,\Somewhat agree\,\Highly agree\,\3\,1698241277703,1698241278614,1406,2317,3117,buq,qns-item-noham,99,273293,0.0-1.0-0.98
<b>Most of the beliefs people have are at least somewhat understandable.,Highly disagree,100/150,Somewhat agree,3,1698241279416,1698241281629,\Somewhat agree\,\Somewhat agree\,\3\,1698241281229,1698241281229,1813,1813,2213,buq,qns-item-noham,100,275508,0.0-1.0-0.99
"<b>Usually I?m wrong about simple things, not complicated ones.",Highly disagree,101/150,Highly disagree,1,1698241281631,1698241284288,\Highly disagree\,\Highly disagree\,\1\,1698241283652,1698241283652,2021,2021,2657,buq,qns-item-noham,101,278167,0.0-1.0-0.100
<b>Getting all the information I want about important things is hard.,Highly disagree,102/150,Somewhat agree,3,1698241284290,1698241288029,\Highly disagree\,\Somewhat agree\,\1\,1698241286319,1698241287607,2029,3317,3739,buq,qns-item-noham,102,281908,0.0-1.0-0.101
<b>Most false beliefs spread because people try to deceive one another.,Highly disagree,103/150,Somewhat agree,3,1698241288031,1698241290645,\Somewhat agree\,\Somewhat agree\,\3\,1698241290222,1698241290222,2191,2191,2614,buq,qns-item-noham,103,284524,0.0-1.0-0.102
<b>I can usually find something to agree with in most people?s beliefs.,Highly disagree,104/150,Somewhat disagree,2,1698241290646,1698241296385,\Somewhat agree\,\Somewhat disagree\,\3\,1698241295141,1698241295585,4495,4939,5739,buq,qns-item-noham,104,290264,0.0-1.0-0.103
<b>I only form my views of people once I get to know them very well.,Highly disagree,105/150,Somewhat agree,3,1698241296387,1698241298215,\Somewhat agree\,\Somewhat agree\,\3\,1698241297304,1698241297304,917,917,1828,buq,qns-item-noham,105,292095,0.0-1.0-0.104
"<b>When people tell me important things about the world, I usually believe them.",Highly disagree,106/150,Somewhat agree,3,1698241298218,1698241299370,\Somewhat agree\,\Somewhat agree\,\3\,1698241298875,1698241298875,657,657,1152,buq,qns-item-noham,106,293249,0.0-1.0-0.105
"<b>If a friend does something that upsets me, it reminds me what an unpredictable place the world is.",Highly disagree,107/150,Somewhat agree,3,1698241299372,1698241301667,\Somewhat agree\,\Somewhat agree\,\3\,1698241300512,1698241300512,1140,1140,2295,buq,qns-item-noham,107,295546,0.0-1.0-0.106
<b>Having some conflicting beliefs is inevitable.,Highly disagree,108/150,Highly agree,4,1698241301669,1698241303896,\Somewhat agree\,\Highly agree\,\3\,1698241302334,1698241303274,665,1605,2227,buq,qns-item-noham,108,297775,0.0-1.0-0.107
<b>People are wrong because they haven?t thought much about things.,Highly disagree,109/150,Highly agree,4,1698241303898,1698241305704,\Highly agree\,\Highly agree\,\4\,1698241304719,1698241304719,821,821,1806,buq,qns-item-noham,109,299583,0.0-1.0-0.108
<b>People tend to believe whatever is good for their friends.,Highly disagree,110/150,Highly agree,4,1698241305706,1698241307060,\Highly agree\,\Highly agree\,\4\,1698241306445,1698241306445,739,739,1354,buq,qns-item-noham,110,300939,0.0-1.0-0.109
"<b>When I talk about important topics, I try to make sure people know I?m not always right.",Highly disagree,111/150,Highly agree,4,1698241307062,1698241309164,\Highly agree\,\Highly agree\,\4\,1698241308082,1698241308082,1020,1020,2102,buq,qns-item-noham,111,303043,0.0-1.0-0.110
<b>I used to be more certain my beliefs were true.,Highly disagree,112/150,Highly agree,4,1698241309165,1698241310667,\Highly agree\,\Highly agree\,\4\,1698241310074,1698241310074,909,909,1502,buq,qns-item-noham,112,304546,0.0-1.0-0.111
<b>It?s often pretty easy to figure out whether something is true based on who said it.,Highly disagree,113/150,Somewhat disagree,2,1698241310669,1698241313556,\Highly agree\,\Somewhat disagree\,\4\,1698241311422,1698241312793,753,2124,2887,buq,qns-item-noham,113,307435,0.0-1.0-0.112
<b>Having bad food in my favorite restaurant will make me think the restaurant is no longer good.,Highly disagree,114/150,Somewhat agree,3,1698241313558,1698241315407,\Somewhat agree\,\Somewhat agree\,\3\,1698241314682,1698241314682,1124,1124,1849,buq,qns-item-noham,114,309286,0.0-1.0-0.113
<b>I transform into a hummingbird every day.,Highly disagree,115/150,Highly disagree,1,1698241315410,1698241317408,\Somewhat agree\,\Highly disagree\,\3\,1698241316031,1698241316631,621,1221,1998,buq,qns-item-noham,115,311287,0.0-1.0-0.114
"<b>Unfortunately, when people are wrong, it?s usually because they?re bad.",Highly disagree,116/150,Highly disagree,1,1698241317409,1698241319904,\Somewhat agree\,\Highly disagree\,\3\,1698241318919,1698241319460,1510,2051,2495,buq,qns-item-noham,116,313783,0.0-1.0-0.115
<b>I think a lot about arguments against my views.,Highly disagree,117/150,Somewhat agree,3,1698241319906,1698241321759,\Somewhat agree\,\Somewhat agree\,\3\,1698241320911,1698241320911,1005,1005,1853,buq,qns-item-noham,117,315638,0.0-1.0-0.116
<b>Details tend to matter a lot for knowing whether a policy is good.,Highly disagree,118/150,Somewhat agree,3,1698241321761,1698241323549,\Somewhat agree\,\Somewhat agree\,\3\,1698241322527,1698241322527,766,766,1788,buq,qns-item-noham,118,317428,0.0-1.0-0.117
<b>Personal experience is usually more important than facts and figures.,Highly disagree,119/150,Somewhat agree,3,1698241323550,1698241325475,\Somewhat agree\,\Somewhat agree\,\3\,1698241324319,1698241324319,769,769,1925,buq,qns-item-noham,119,319354,0.0-1.0-0.118
<b>I?ve been tricked before about important matters.,Highly disagree,120/150,Highly agree,4,1698241325477,1698241328549,\Highly agree\,\Highly agree\,\4\,1698241326601,1698241326601,1124,1124,3072,buq,qns-item-noham,120,322428,0.0-1.0-0.119
<b>I would need to be totally wowed if I were to change my opinion of a restaurant I don?t like.,Highly disagree,121/150,Highly disagree,1,1698241328550,1698241333120,\Highly disagree\,\Highly disagree\,\1\,1698241331208,1698241331208,2658,2658,4570,buq,qns-item-noham,121,326999,0.0-1.0-0.120
<b>I care a lot about politics.,Highly disagree,122/150,Somewhat disagree,2,1698241333121,1698241334957,\Somewhat agree\,\Somewhat disagree\,\3\,1698241333887,1698241334542,766,1421,1836,buq,qns-item-noham,122,328836,0.0-1.0-0.121
<b>People with conflicting beliefs usually have some facts they disagree on.,Highly disagree,123/150,Somewhat agree,3,1698241334958,1698241336356,\Somewhat agree\,\Somewhat agree\,\3\,1698241335801,1698241335801,843,843,1398,buq,qns-item-noham,123,330235,0.0-1.0-0.122
<b>There are some topics I?ve been really wrong about.,Highly disagree,124/150,Somewhat agree,3,1698241336358,1698241337415,\Somewhat agree\,\Somewhat agree\,\3\,1698241336971,1698241336971,613,613,1057,buq,qns-item-noham,124,331294,0.0-1.0-0.123
<b>Most beliefs can be supported with at least some evidence.,Highly disagree,125/150,Somewhat agree,3,1698241337417,1698241339423,\Somewhat agree\,\Somewhat agree\,\3\,1698241338112,1698241338112,695,695,2006,buq,qns-item-noham,125,333302,0.0-1.0-0.124
<b>Other people make life out to be more complicated than it really is.,Highly disagree,126/150,Somewhat agree,3,1698241339424,1698241340771,\Somewhat agree\,\Somewhat agree\,\3\,1698241340090,1698241340090,666,666,1347,buq,qns-item-noham,126,334650,0.0-1.0-0.125
"<b>My political views are being shaped continuously as I gather more information, rather than relying on what I?ve known to be true of my party in the past. ",Highly disagree,127/150,Highly agree,4,1698241340772,1698241343266,\Somewhat agree\,\Highly agree\,\3\,1698241342156,1698241342829,1384,2057,2494,buq,qns-item-noham,127,337145,0.0-1.0-0.126
<b>It?s pretty unusual for true things to seem false.,Highly disagree,128/150,Highly disagree,1,1698241343268,1698241347645,\Highly disagree\,\Highly disagree\,\1\,1698241346156,1698241346156,2888,2888,4377,buq,qns-item-noham,128,341524,0.0-1.0-0.127
"<b>Policy details don?t matter much, just the big picture.",Highly disagree,129/150,Highly disagree,1,1698241347646,1698241350667,\Somewhat agree\,\Highly disagree\,\3\,1698241348415,1698241350097,769,2451,3021,buq,qns-item-noham,129,344546,0.0-1.0-0.128
<b>I know my friends so well they can hardly ever surprise me.,Highly disagree,130/150,Somewhat disagree,2,1698241350669,1698241353600,\Somewhat disagree\,\Somewhat disagree\,\2\,1698241352860,1698241352860,2191,2191,2931,buq,qns-item-noham,130,347479,0.0-1.0-0.129
"<b>When I talk to people, I often think about why they have the beliefs they do.",Highly disagree,131/150,Somewhat agree,3,1698241353601,1698241355785,\Somewhat agree\,\Somewhat agree\,\3\,1698241354845,1698241354845,1244,1244,2184,buq,qns-item-noham,131,349664,0.0-1.0-0.130
<b>I do not often change my views on people.,Highly disagree,132/150,Highly disagree,1,1698241355786,1698241357956,\Somewhat agree\,\Highly disagree\,\3\,1698241356356,1698241357311,570,1525,2170,buq,qns-item-noham,132,351835,0.0-1.0-0.131
<b>I often wish I had more time to spend figuring out what?s true and what?s false in life.,Highly disagree,133/150,Somewhat agree,3,1698241357957,1698241359660,\Somewhat agree\,\Somewhat agree\,\3\,1698241358986,1698241358986,1029,1029,1703,buq,qns-item-noham,133,353539,0.0-1.0-0.132
<b>I?m more certain about my beliefs than I used to be.,Highly disagree,134/150,Somewhat agree,3,1698241359661,1698241361481,\Somewhat agree\,\Somewhat agree\,\3\,1698241360533,1698241360533,872,872,1820,buq,qns-item-noham,134,355360,0.0-1.0-0.133
"<b>Whenever I find out new information, I update my views on politics accordingly.",Highly disagree,135/150,Somewhat agree,3,1698241361483,1698241363830,\Somewhat agree\,\Somewhat agree\,\3\,1698241362801,1698241362801,1318,1318,2347,buq,qns-item-noham,135,357709,0.0-1.0-0.134
<b>People often tell falsehoods unintentionally.,Highly disagree,136/150,Somewhat disagree,2,1698241363831,1698241366459,\Somewhat agree\,\Somewhat disagree\,\3\,1698241364934,1698241365993,1103,2162,2628,buq,qns-item-noham,136,360338,0.0-1.0-0.135
<b>Most people don?t know much about most things.,Highly disagree,137/150,Highly disagree,1,1698241366461,1698241368592,\Somewhat agree\,\Highly disagree\,\3\,1698241367459,1698241368185,998,1724,2131,buq,qns-item-noham,137,362471,0.0-1.0-0.136
"<b>If I find out something new about someone, I easily change my views about them.",Highly disagree,138/150,Somewhat disagree,2,1698241368594,1698241371000,\Somewhat agree\,\Somewhat disagree\,\3\,1698241369259,1698241370578,665,1984,2406,buq,qns-item-noham,138,364879,0.0-1.0-0.137
<b>Having true beliefs is difficult.,Highly disagree,139/150,Somewhat agree,3,1698241371002,1698241372555,\Somewhat agree\,\Somewhat agree\,\3\,1698241371726,1698241371726,724,724,1553,buq,qns-item-noham,139,366434,0.0-1.0-0.138
<b>I don?t try new foods since I know I won?t like them.,Highly disagree,140/150,Highly disagree,1,1698241372556,1698241374666,\Somewhat agree\,\Highly disagree\,\3\,1698241373245,1698241374141,689,1585,2110,buq,qns-item-noham,140,368545,0.0-1.0-0.139
<b>It?s easy to figure out what?s true or false based on who?s saying it.,Highly disagree,141/150,Highly disagree,1,1698241374668,1698241377533,\Somewhat disagree\,\Highly disagree\,\2\,1698241376252,1698241376985,1584,2317,2865,buq,qns-item-noham,141,371412,0.0-1.0-0.140
<b>False things have seemed true to me many times.,Highly disagree,142/150,Somewhat agree,3,1698241377535,1698241379303,\Somewhat agree\,\Somewhat agree\,\3\,1698241378459,1698241378459,924,924,1768,buq,qns-item-noham,142,373182,0.0-1.0-0.141
<b>It?s pretty easy to sort out what?s true and what?s false in life.,Highly disagree,143/150,Somewhat agree,3,1698241379305,1698241381251,\Somewhat agree\,\Somewhat agree\,\3\,1698241380637,1698241380637,1332,1332,1946,buq,qns-item-noham,143,375130,0.0-1.0-0.142
<b>Knowing lots of statistics about something is usually important for understanding it.,Highly disagree,144/150,Somewhat agree,3,1698241381253,1698241382918,\Somewhat agree\,\Somewhat agree\,\3\,1698241382207,1698241382207,954,954,1665,buq,qns-item-noham,144,376797,0.0-1.0-0.143
<b>Other people trick each other a lot.,Highly disagree,145/150,Somewhat agree,3,1698241382920,1698241384747,\Somewhat agree\,\Somewhat agree\,\3\,1698241383725,1698241383725,805,805,1827,buq,qns-item-noham,145,378626,0.0-1.0-0.144
<b>I would need to learn a lot about a person for my opinion of them to be swayed.,Highly disagree,146/150,Somewhat agree,3,1698241384749,1698241386340,\Somewhat agree\,\Somewhat agree\,\3\,1698241385444,1698241385444,695,695,1591,buq,qns-item-noham,146,380219,0.0-1.0-0.145
<b>People can?t usually trick me when it comes to topics I care about.,Highly disagree,147/150,Highly disagree,1,1698241386341,1698241389273,\Somewhat agree\,\Highly disagree\,\3\,1698241387214,1698241388296,873,1955,2932,buq,qns-item-noham,147,383152,0.0-1.0-0.146
<b>I do not often change my views on food.,Highly disagree,148/150,Highly disagree,1,1698241389275,1698241390999,\Highly disagree\,\Highly disagree\,\1\,1698241390525,1698241390525,1250,1250,1724,buq,qns-item-noham,148,384878,0.0-1.0-0.147
<b>Specific policies are often very important to me.,Highly disagree,149/150,Highly agree,4,1698241391000,1698241395813,\Highly agree\,\Highly agree\,\4\,1698241395414,1698241395414,4414,4414,4813,buq,qns-item-noham,149,389692,0.0-1.0-0.148
<b>Most people are woefully under-informed.,Highly disagree,150/150,Somewhat agree,3,1698241395815,1698241398413,\Somewhat disagree\,\Somewhat agree\,\2\,1698241396940,1698241397821,1125,2006,2598,buq,qns-item-noham,150,392292,0.0-1.0-0.149
