Question,qns_options,quest_num,answer,answer_num,question_load_timestamp,next_btn_timestamp,text_selected,final_text_selected,option_num_selected,preview_timestamps,final_text_selected_time_stamp,rt_first_option_click,rt_final_option_click,rt_submit_click,questionnaire,trial_type,trial_index,time_elapsed,internal_node_id
<b>Considering other people?s perspectives can help us figure out what?s true or false.,Highly disagree,1/150,Highly agree,4,1698241013856,1698241018896,\Highly agree\,\Highly agree\,\4\,1698241017890,1698241017890,4034,4034,5040,buq,qns-item-noham,1,9133,0.0-1.0-0.0
<b>Knowing what?s true and knowing what to do about it are usually basically the same.,Highly disagree,2/150,Highly disagree,1,1698241018901,1698241024696,\Highly disagree\,\Highly disagree\,\1\,1698241024044,1698241024044,5143,5143,5795,buq,qns-item-noham,2,14933,0.0-1.0-0.1
<b>Most people just believe whatever is convenient for them.,Highly disagree,3/150,Somewhat agree,3,1698241024697,1698241027738,\Somewhat agree\,\Somewhat agree\,\3\,1698241026708,1698241026708,2011,2011,3041,buq,qns-item-noham,3,17975,0.0-1.0-0.2
<b>Even people who are wrong about most things can be right sometimes.,Highly disagree,4/150,Highly agree,4,1698241027739,1698241032529,\Highly agree\,\Highly agree\,\4\,1698241031972,1698241031972,4233,4233,4790,buq,qns-item-noham,4,22766,0.0-1.0-0.3
"<b>If the political party I support does something that upsets me, then the party may have changed, and I need to re-evaluate my support.",Highly disagree,5/150,Highly agree,4,1698241032531,1698241042308,\Highly agree\,\Highly agree\,\4\,1698241038909,1698241038909,6378,6378,9777,buq,qns-item-noham,5,32545,0.0-1.0-0.4
"<b>When people disagree, one side is usually completely right.",Highly disagree,6/150,Highly disagree,1,1698241042309,1698241045436,\Highly disagree\,\Highly disagree\,\1\,1698241044878,1698241044878,2569,2569,3127,buq,qns-item-noham,6,35673,0.0-1.0-0.5
<b>People have lots of false beliefs.,Highly disagree,7/150,Highly agree,4,1698241045439,1698241047804,\Highly agree\,\Highly agree\,\4\,1698241047286,1698241047286,1847,1847,2365,buq,qns-item-noham,7,38042,0.0-1.0-0.6
<b>Having some big beliefs helps me sort out minor ones.,Highly disagree,8/150,Highly agree,4,1698241047808,1698241051126,\Highly agree\,\Highly agree\,\4\,1698241050727,1698241050727,2919,2919,3318,buq,qns-item-noham,8,41363,0.0-1.0-0.7
<b>Political questions are usually pretty complicated.,Highly disagree,9/150,Highly agree,4,1698241051128,1698241055190,\Highly agree\,\Highly agree\,\4\,1698241054514,1698241054514,3386,3386,4062,buq,qns-item-noham,9,45427,0.0-1.0-0.8
<b>Figuring out what?s important in life requires learning a lot of facts.,Highly disagree,10/150,Somewhat agree,3,1698241055192,1698241059573,\Somewhat agree\,\Somewhat agree\,\3\,1698241058844,1698241058844,3652,3652,4381,buq,qns-item-noham,10,49810,0.0-1.0-0.9
<b>It is difficult for me to remember the last time I was surprised by politics.,Highly disagree,11/150,Highly disagree,1,1698241059574,1698241063806,\Highly disagree\,\Highly disagree\,\1\,1698241063250,1698241063250,3676,3676,4232,buq,qns-item-noham,11,54043,0.0-1.0-0.10
<b>People?s false beliefs are understandable.,Highly disagree,12/150,Somewhat disagree,2,1698241063808,1698241068134,\Somewhat disagree\,\Somewhat disagree\,\2\,1698241067646,1698241067646,3838,3838,4326,buq,qns-item-noham,12,58371,0.0-1.0-0.11
<b>I spend a lot of time trying to be informed about politics.,Highly disagree,13/150,Highly disagree,1,1698241068135,1698241072168,\Somewhat disagree\,\Highly disagree\,\2\,1698241069938,1698241071518,1803,3383,4033,buq,qns-item-noham,13,62405,0.0-1.0-0.12
<b>I think a lot about whether my beliefs are right.,Highly disagree,14/150,Somewhat agree,3,1698241072170,1698241074708,\Somewhat agree\,\Somewhat agree\,\3\,1698241074150,1698241074150,1980,1980,2538,buq,qns-item-noham,14,64945,0.0-1.0-0.13
<b>Statistics can be pretty misleading sometimes.,Highly disagree,15/150,Somewhat disagree,2,1698241074711,1698241078107,\Somewhat agree\,\Somewhat disagree\,\3\,1698241076187,1698241076806,1476,2095,3396,buq,qns-item-noham,15,68344,0.0-1.0-0.14
<b>Figuring out what?s true and what?s false takes a lot of time and effort.,Highly disagree,16/150,Somewhat agree,3,1698241078108,1698241080800,\Somewhat agree\,\Somewhat agree\,\3\,1698241080018,1698241080018,1910,1910,2692,buq,qns-item-noham,16,71037,0.0-1.0-0.15
"<b>If a friend does something bad to me, it was likely an error on their part.",Highly disagree,17/150,Somewhat agree,3,1698241080801,1698241085362,\Somewhat agree\,\Somewhat agree\,\3\,1698241084718,1698241084718,3917,3917,4561,buq,qns-item-noham,17,75599,0.0-1.0-0.16
<b>I have lots of beliefs that I?m only sort of sure about.,Highly disagree,18/150,Somewhat agree,3,1698241085364,1698241087762,\Somewhat agree\,\Somewhat agree\,\3\,1698241087274,1698241087274,1910,1910,2398,buq,qns-item-noham,18,77999,0.0-1.0-0.17
"<b>If I go to my favorite restaurant and the food is surprisingly bad, it reminds me there are many disappointments in life.",Highly disagree,19/150,Somewhat agree,3,1698241087764,1698241093584,\Somewhat agree\,\Somewhat agree\,\3\,1698241092980,1698241092980,5216,5216,5820,buq,qns-item-noham,19,83821,0.0-1.0-0.18
<b>Sometimes my beliefs are inconvenient for me.,Highly disagree,20/150,Highly agree,4,1698241093585,1698241096448,\Somewhat agree\,\Highly agree\,\3\,1698241095356,1698241095876,1771,2291,2863,buq,qns-item-noham,20,86685,0.0-1.0-0.19
<b>Paying attention to multiple news sources is important.,Highly disagree,21/150,Highly agree,4,1698241096450,1698241099886,\Somewhat agree\,\Highly agree\,\3\,1698241098632,1698241099319,2182,2869,3436,buq,qns-item-noham,21,90123,0.0-1.0-0.20
"<b>If you are paying attention, please select ?Somewhat agree?",Highly disagree,22/150,Somewhat agree,3,1698241099888,1698241102348,\Somewhat agree\,\Somewhat agree\,\3\,1698241101836,1698241101836,1948,1948,2460,buq,qns-item-noham,22,92585,0.0-1.0-0.21
"<b>When I talk to others, I often worry I?ll convince them of something I didn?t mean to.",Highly disagree,23/150,Somewhat disagree,2,1698241102349,1698241108634,\Somewhat disagree\,\Somewhat disagree\,\2\,1698241108146,1698241108146,5797,5797,6285,buq,qns-item-noham,23,98871,0.0-1.0-0.22
<b>I would need to learn something utterly shocking about my party in order to change my political views.,Highly disagree,24/150,Somewhat agree,3,1698241108636,1698241112868,\Somewhat agree\,\Somewhat agree\,\3\,1698241112382,1698241112382,3746,3746,4232,buq,qns-item-noham,24,103105,0.0-1.0-0.23
"<b>When I have new experiences, I tend to think of them as unique.",Highly disagree,25/150,Somewhat agree,3,1698241112870,1698241118714,\Somewhat agree\,\Somewhat agree\,\3\,1698241117514,1698241117514,4644,4644,5844,buq,qns-item-noham,25,108951,0.0-1.0-0.24
<b>Reading lots of things is important for understanding the world.,Highly disagree,26/150,Somewhat agree,3,1698241118716,1698241123900,\Highly agree\,\Somewhat agree\,\4\,1698241120704,1698241121408,1988,2692,5184,buq,qns-item-noham,26,114137,0.0-1.0-0.25
<b>The world is complicated.,Highly disagree,27/150,Highly agree,4,1698241123902,1698241125518,\Highly agree\,\Highly agree\,\4\,1698241124946,1698241124946,1044,1044,1616,buq,qns-item-noham,27,115755,0.0-1.0-0.26
<b>I change my mind about specific policies pretty frequently.,Highly disagree,28/150,Somewhat agree,3,1698241125519,1698241128134,\Somewhat agree\,\Somewhat agree\,\3\,1698241127539,1698241127539,2020,2020,2615,buq,qns-item-noham,28,118371,0.0-1.0-0.27
"<b>If a politician in my political party supports something I disagree with, I give them the benefit of the doubt, as such issues often involve hidden complexities that aren?t obvious.   ",Highly disagree,29/150,Somewhat agree,3,1698241128135,1698241138290,\Somewhat agree\,\Somewhat agree\,\3\,1698241137486,1698241137486,9351,9351,10155,buq,qns-item-noham,29,128527,0.0-1.0-0.28
<b>People?s bad politics are usually motivated by hatefulness.,Highly disagree,30/150,Somewhat disagree,2,1698241138293,1698241143414,\Somewhat disagree\,\Somewhat disagree\,\2\,1698241140550,1698241142866,2257,4573,5121,buq,qns-item-noham,30,133651,0.0-1.0-0.29
"<b>Most new experiences are just like old ones, but a little bit different.",Highly disagree,31/150,Somewhat agree,3,1698241143416,1698241147378,\Somewhat agree\,\Somewhat agree\,\3\,1698241146852,1698241146852,3436,3436,3962,buq,qns-item-noham,31,137615,0.0-1.0-0.30
<b>I think a lot about how to reconcile my beliefs with one another.,Highly disagree,32/150,Somewhat agree,3,1698241147380,1698241153408,\Somewhat agree\,\Somewhat agree\,\3\,1698241152650,1698241152650,5270,5270,6028,buq,qns-item-noham,32,143645,0.0-1.0-0.31
<b>Personal experience rarely leads people astray.,Highly disagree,33/150,Highly disagree,1,1698241153410,1698241158990,\Highly disagree\,\Highly disagree\,\1\,1698241158208,1698241158208,4798,4798,5580,buq,qns-item-noham,33,149227,0.0-1.0-0.32
<b>I might have false beliefs about important topics.,Highly disagree,34/150,Highly agree,4,1698241158992,1698241161630,\Highly agree\,\Highly agree\,\4\,1698241160576,1698241160576,1584,1584,2638,buq,qns-item-noham,34,151867,0.0-1.0-0.33
"<b>If a good friend of mine does something unexpected that upsets me, I feel like I don?t know them anymore.",Highly disagree,35/150,Somewhat disagree,2,1698241161632,1698241165818,\Somewhat disagree\,\Somewhat disagree\,\2\,1698241165198,1698241165198,3566,3566,4186,buq,qns-item-noham,35,156055,0.0-1.0-0.34
<b>Other people?s beliefs are often incoherent.,Highly disagree,36/150,Somewhat agree,3,1698241165820,1698241167916,\Somewhat agree\,\Somewhat agree\,\3\,1698241167490,1698241167490,1670,1670,2096,buq,qns-item-noham,36,158153,0.0-1.0-0.35
<b>It?s important to have friends who think about things differently than I do.,Highly disagree,37/150,Somewhat agree,3,1698241167918,1698241170686,\Somewhat agree\,\Somewhat agree\,\3\,1698241170184,1698241170184,2266,2266,2768,buq,qns-item-noham,37,160923,0.0-1.0-0.36
"<b>Every now and then, a new experience will unsettle beliefs I?ve had for a while.",Highly disagree,38/150,Highly agree,4,1698241170688,1698241174588,\Somewhat agree\,\Highly agree\,\3\,1698241172884,1698241173992,2196,3304,3900,buq,qns-item-noham,38,164825,0.0-1.0-0.37
<b>Some policies I agree with in principle are so bad I don?t support them. ,Highly disagree,39/150,Somewhat disagree,2,1698241174589,1698241180262,\Somewhat disagree\,\Somewhat disagree\,\2\,1698241179618,1698241179618,5029,5029,5673,buq,qns-item-noham,39,170499,0.0-1.0-0.38
<b>I?m pretty sure I?ve accidentally spread false information.,Highly disagree,40/150,Somewhat disagree,2,1698241180264,1698241184674,\Somewhat disagree\,\Somewhat disagree\,\2\,1698241182360,1698241184256,2096,3992,4410,buq,qns-item-noham,40,174911,0.0-1.0-0.39
"<b>If I go to my favorite restaurant and the food is unexpectedly bad, then they have changed owners.",Highly disagree,41/150,Somewhat disagree,2,1698241184675,1698241189907,\Somewhat disagree\,\Somewhat disagree\,\2\,1698241189186,1698241189186,4511,4511,5232,buq,qns-item-noham,41,180144,0.0-1.0-0.40
"<b>In politics, it?s important to trust your friends and family.",Highly disagree,42/150,Somewhat disagree,2,1698241189909,1698241192700,\Somewhat disagree\,\Somewhat disagree\,\2\,1698241192198,1698241192198,2289,2289,2791,buq,qns-item-noham,42,182937,0.0-1.0-0.41
<b>It?s OK to have some conflicting beliefs.,Highly disagree,43/150,Somewhat agree,3,1698241192702,1698241194565,\Somewhat agree\,\Somewhat agree\,\3\,1698241194132,1698241194132,1430,1430,1863,buq,qns-item-noham,43,184802,0.0-1.0-0.42
<b>Sometimes the details of a matter seem to conflict with the big picture.,Highly disagree,44/150,Somewhat agree,3,1698241194567,1698241198220,\Somewhat agree\,\Somewhat agree\,\3\,1698241197770,1698241197770,3203,3203,3653,buq,qns-item-noham,44,188457,0.0-1.0-0.43
<b>Listening to people I disagree with makes my opinions better.,Highly disagree,45/150,Highly agree,4,1698241198223,1698241206564,\Somewhat agree\,\Highly agree\,\3\,1698241205278,1698241206014,7055,7791,8341,buq,qns-item-noham,45,196801,0.0-1.0-0.44
<b>Policies that sound bad are sometimes fine when you find out about their details.,Highly disagree,46/150,Highly agree,4,1698241206566,1698241211958,\Somewhat agree\,\Highly agree\,\3\,1698241210480,1698241211432,3914,4866,5392,buq,qns-item-noham,46,202195,0.0-1.0-0.45
"<b>The world is always changing, so my beliefs are sometimes out-dated.",Highly disagree,47/150,Highly agree,4,1698241211960,1698241215550,\Somewhat agree\,\Highly agree\,\3\,1698241214568,1698241214985,2608,3025,3590,buq,qns-item-noham,47,205787,0.0-1.0-0.46
"<b>If I receive a bad meal at my favorite restaurant and the food is surprisingly bad, I do not think much of it, and assume the chef is just having an ?off? day.",Highly disagree,48/150,Somewhat disagree,2,1698241215552,1698241223832,\Somewhat disagree\,\Somewhat disagree\,\2\,1698241223136,1698241223136,7584,7584,8280,buq,qns-item-noham,48,214069,0.0-1.0-0.47
"<b>False information is unavoidable, to some extent.",Highly disagree,49/150,Somewhat agree,3,1698241223833,1698241227159,\Somewhat agree\,\Somewhat agree\,\3\,1698241226356,1698241226356,2523,2523,3326,buq,qns-item-noham,49,217396,0.0-1.0-0.48
<b>My moral compass sometimes makes it harder to determine what?s true.,Highly disagree,50/150,Somewhat disagree,2,1698241227160,1698241231929,\Somewhat disagree\,\Somewhat disagree\,\2\,1698241231210,1698241231210,4050,4050,4769,buq,qns-item-noham,50,222166,0.0-1.0-0.49
"<b>When you disagree with someone, it?s important to listen to them carefully.",Highly disagree,51/150,Highly agree,4,1698241231931,1698241236577,\Somewhat agree\,\Highly agree\,\3\,1698241235266,1698241236047,3335,4116,4646,buq,qns-item-noham,51,226814,0.0-1.0-0.50
<b>Evidence pointing in the wrong direction isn?t really evidence at all.,Highly disagree,52/150,Highly disagree,1,1698241236578,1698241241325,\Somewhat disagree\,\Highly disagree\,\2\,1698241239793,1698241240574,3215,3996,4747,buq,qns-item-noham,52,231562,0.0-1.0-0.51
"<b>If the political party I support messes up, it makes me think politics is rotten.",Highly disagree,53/150,Highly agree,4,1698241241327,1698241249313,\Somewhat agree\,\Highly agree\,\3\,1698241247703,1698241248779,6376,7452,7986,buq,qns-item-noham,53,239550,0.0-1.0-0.52
<b>Lots of important topics can only really be understood by some groups of people.,Highly disagree,54/150,Somewhat disagree,2,1698241249315,1698241257925,\Somewhat disagree\,\Somewhat disagree\,\2\,1698241256741,1698241256741,7426,7426,8610,buq,qns-item-noham,54,248163,0.0-1.0-0.53
<b>Details almost always matter for being right about something.,Highly disagree,55/150,Highly agree,4,1698241257927,1698241261245,\Highly agree\,\Highly agree\,\4\,1698241260706,1698241260706,2779,2779,3318,buq,qns-item-noham,55,251482,0.0-1.0-0.54
"<b>The most important thing in politics is winning, not convincing people.",Highly disagree,56/150,Somewhat disagree,2,1698241261247,1698241266703,\Highly disagree\,\Somewhat disagree\,\1\,1698241263497,1698241264845,2250,3598,5456,buq,qns-item-noham,56,256940,0.0-1.0-0.55
<b>Having conflicting beliefs means you haven?t thought about them enough.,Highly disagree,57/150,Highly disagree,1,1698241266705,1698241269722,\Highly disagree\,\Highly disagree\,\1\,1698241269233,1698241269233,2528,2528,3017,buq,qns-item-noham,57,259959,0.0-1.0-0.56
<b>Other people have sometimes convinced me to change my mind on important topics.,Highly disagree,58/150,Highly agree,4,1698241269724,1698241274063,\Highly agree\,\Highly agree\,\4\,1698241273181,1698241273181,3457,3457,4339,buq,qns-item-noham,58,264300,0.0-1.0-0.57
<b>I do not often change my political opinions.,Highly disagree,59/150,Somewhat disagree,2,1698241274066,1698241277359,\Somewhat disagree\,\Somewhat disagree\,\2\,1698241275811,1698241275811,1745,1745,3293,buq,qns-item-noham,59,267596,0.0-1.0-0.58
<b>Thinking about how different things relate to one another is critical in life.,Highly disagree,60/150,Highly agree,4,1698241277361,1698241302124,\Highly agree\,\Highly agree\,\4\,1698241300816,1698241300816,23455,23455,24763,buq,qns-item-noham,60,292361,0.0-1.0-0.59
<b>True beliefs can have unfortunate implications.,Highly disagree,61/150,Somewhat agree,3,1698241302125,1698241305050,\Somewhat agree\,\Somewhat agree\,\3\,1698241304482,1698241304482,2357,2357,2925,buq,qns-item-noham,61,295287,0.0-1.0-0.60
<b>It?s difficult to not have at least some conflicting beliefs.,Highly disagree,62/150,Highly agree,4,1698241305052,1698241307410,\Highly agree\,\Highly agree\,\4\,1698241306968,1698241306968,1916,1916,2358,buq,qns-item-noham,62,297647,0.0-1.0-0.61
"<b>When I learn new things, I think deeply about how my opinions should change.",Highly disagree,63/150,Somewhat disagree,2,1698241307412,1698241310544,\Somewhat disagree\,\Somewhat disagree\,\2\,1698241309988,1698241309988,2576,2576,3132,buq,qns-item-noham,63,300781,0.0-1.0-0.62
<b>I think a lot about how to interpret different sorts of evidence.,Highly disagree,64/150,Somewhat disagree,2,1698241310546,1698241313880,\Somewhat disagree\,\Somewhat disagree\,\2\,1698241313338,1698241313338,2792,2792,3334,buq,qns-item-noham,64,304117,0.0-1.0-0.63
<b>Politics is about thinking together and finding compromises.,Highly disagree,65/150,Highly agree,4,1698241313882,1698241317757,\Somewhat agree\,\Highly agree\,\3\,1698241316760,1698241317170,2878,3288,3875,buq,qns-item-noham,65,307994,0.0-1.0-0.64
<b>Wishful thinking causes a lot of problems.,Highly disagree,66/150,Highly agree,4,1698241317759,1698241320815,\Highly agree\,\Highly agree\,\4\,1698241320306,1698241320306,2547,2547,3056,buq,qns-item-noham,66,311053,0.0-1.0-0.65
<b>I judge a food item only once I try it many times.,Highly disagree,67/150,Highly disagree,1,1698241320817,1698241324299,\Highly disagree\,\Highly disagree\,\1\,1698241323680,1698241323680,2863,2863,3482,buq,qns-item-noham,67,314536,0.0-1.0-0.66
"<b>When a person holds conflicting beliefs, they should really try to figure out what?s wrong.",Highly disagree,68/150,Somewhat agree,3,1698241324301,1698241327914,\Somewhat agree\,\Somewhat agree\,\3\,1698241327458,1698241327458,3157,3157,3613,buq,qns-item-noham,68,318151,0.0-1.0-0.67
<b>Knowing what?s important in life is easy.,Highly disagree,69/150,Highly disagree,1,1698241327915,1698241332264,\Highly disagree\,\Highly disagree\,\1\,1698241330522,1698241330522,2607,2607,4349,buq,qns-item-noham,69,322501,0.0-1.0-0.68
<b>Lots of smart people disagree about basic political questions.,Highly disagree,70/150,Somewhat agree,3,1698241332265,1698241336497,\Somewhat agree\,\Somewhat agree\,\3\,1698241335670,1698241335670,3405,3405,4232,buq,qns-item-noham,70,326734,0.0-1.0-0.69
<b>I swim across the Atlantic Ocean to get to work every day.,Highly disagree,71/150,Highly disagree,1,1698241336499,1698241339192,\Highly disagree\,\Highly disagree\,\1\,1698241338162,1698241338162,1663,1663,2693,buq,qns-item-noham,71,329429,0.0-1.0-0.70
"<b>Sometimes, you just have to ignore evidence that you know is wrong.",Highly disagree,72/150,Highly disagree,1,1698241339193,1698241346524,\Highly disagree\,\Highly disagree\,\1\,1698241345688,1698241345688,6495,6495,7331,buq,qns-item-noham,72,336761,0.0-1.0-0.71
<b>I have had some false beliefs.,Highly disagree,73/150,Highly agree,4,1698241346526,1698241350887,\Somewhat agree\,\Highly agree\,\3\,1698241348606,1698241350052,2080,3526,4361,buq,qns-item-noham,73,341125,0.0-1.0-0.72
"<b>If one friend does something that upsets me, I sometimes start to distrust people in general.",Highly disagree,74/150,Somewhat agree,3,1698241350890,1698241357040,\Somewhat agree\,\Somewhat agree\,\3\,1698241356546,1698241356546,5656,5656,6150,buq,qns-item-noham,74,347277,0.0-1.0-0.73
<b>I easily apply what I learn in one situation to another.,Highly disagree,75/150,Somewhat disagree,2,1698241357042,1698241361298,\Somewhat disagree\,\Somewhat disagree\,\2\,1698241360756,1698241360756,3714,3714,4256,buq,qns-item-noham,75,351535,0.0-1.0-0.74
<b>The facts about most important matters are easy to find.,Highly disagree,76/150,Somewhat agree,3,1698241361300,1698241366166,\Somewhat disagree\,\Somewhat agree\,\2\,1698241365028,1698241365392,3728,4092,4866,buq,qns-item-noham,76,356403,0.0-1.0-0.75
<b>It?s better to know what?s true than to know what?s moral.,Highly disagree,77/150,Highly agree,4,1698241366168,1698241372490,\Somewhat agree\,\Highly agree\,\3\,1698241369354,1698241371700,3186,5532,6322,buq,qns-item-noham,77,362727,0.0-1.0-0.76
<b>It?s good to be skeptical of people you agree with.,Highly disagree,78/150,Highly agree,4,1698241372491,1698241375437,\Highly agree\,\Highly agree\,\4\,1698241374672,1698241374672,2181,2181,2946,buq,qns-item-noham,78,365674,0.0-1.0-0.77
<b>Sometimes reasonable beliefs are wrong.,Highly disagree,79/150,Highly agree,4,1698241375440,1698241378580,\Somewhat agree\,\Highly agree\,\3\,1698241377450,1698241377851,2010,2411,3140,buq,qns-item-noham,79,368817,0.0-1.0-0.78
<b>I used to think the world was less complicated than I do now.,Highly disagree,80/150,Highly agree,4,1698241378581,1698241381391,\Highly agree\,\Highly agree\,\4\,1698241380848,1698241380848,2267,2267,2810,buq,qns-item-noham,80,371628,0.0-1.0-0.79
<b>People are usually completely right or completely wrong.,Highly disagree,81/150,Highly disagree,1,1698241381393,1698241384476,\Highly disagree\,\Highly disagree\,\1\,1698241383857,1698241383857,2464,2464,3083,buq,qns-item-noham,81,374713,0.0-1.0-0.80
<b>I spend a lot of time considering alternatives to my beliefs.,Highly disagree,82/150,Somewhat disagree,2,1698241384479,1698241387286,\Somewhat disagree\,\Somewhat disagree\,\2\,1698241386552,1698241386552,2073,2073,2807,buq,qns-item-noham,82,377523,0.0-1.0-0.81
"<b>Political enemies need to be defeated, not convinced.",Highly disagree,83/150,Highly disagree,1,1698241387288,1698241389926,\Highly disagree\,\Highly disagree\,\1\,1698241389152,1698241389152,1864,1864,2638,buq,qns-item-noham,83,380163,0.0-1.0-0.82
"<b>When forming an opinion about a restaurant, I am more swayed by my  latest meal there than  previous meals I?ve had there.",Highly disagree,84/150,Somewhat agree,3,1698241389928,1698241398006,\Somewhat agree\,\Somewhat agree\,\3\,1698241397528,1698241397528,7600,7600,8078,buq,qns-item-noham,84,388243,0.0-1.0-0.83
<b>I try to remain skeptical about most topics.,Highly disagree,85/150,Somewhat disagree,2,1698241398008,1698241401319,\Somewhat disagree\,\Somewhat disagree\,\2\,1698241400786,1698241400786,2778,2778,3311,buq,qns-item-noham,85,391556,0.0-1.0-0.84
<b>Being wrong is usually obvious in retrospect.,Highly disagree,86/150,Somewhat disagree,2,1698241401321,1698241404982,\Somewhat disagree\,\Somewhat disagree\,\2\,1698241403488,1698241403488,2167,2167,3661,buq,qns-item-noham,86,395219,0.0-1.0-0.85
<b>It can be hard to realize that my beliefs are in conflict.,Highly disagree,87/150,Somewhat agree,3,1698241404983,1698241407141,\Somewhat agree\,\Somewhat agree\,\3\,1698241406630,1698241406630,1647,1647,2158,buq,qns-item-noham,87,397378,0.0-1.0-0.86
<b>I form my political views only after meticulously gathering historical and present information about their policies.,Highly disagree,88/150,Highly disagree,1,1698241407143,1698241410111,\Highly disagree\,\Highly disagree\,\1\,1698241409418,1698241409418,2275,2275,2968,buq,qns-item-noham,88,400348,0.0-1.0-0.87
<b>Skeptical people are usually just bad-tempered.,Highly disagree,89/150,Somewhat disagree,2,1698241410114,1698241413720,\Somewhat disagree\,\Somewhat disagree\,\2\,1698241413232,1698241413232,3118,3118,3606,buq,qns-item-noham,89,403957,0.0-1.0-0.88
<b>It is difficult for me to remember the last time I was surprised by politics.,Highly disagree,90/150,Somewhat disagree,2,1698241413721,1698241417204,\Somewhat disagree\,\Somewhat disagree\,\2\,1698241416762,1698241416762,3041,3041,3483,buq,qns-item-noham,90,407441,0.0-1.0-0.89
"<b>When I find out I?m wrong, I think a lot about my related beliefs.",Highly disagree,91/150,Somewhat disagree,2,1698241417206,1698241420942,\Somewhat disagree\,\Somewhat disagree\,\2\,1698241420532,1698241420532,3326,3326,3736,buq,qns-item-noham,91,411179,0.0-1.0-0.90
"<b>If the political party I support messes up, it makes me think you can?t trust anyone these days",Highly disagree,92/150,Somewhat disagree,2,1698241420944,1698241427916,\Somewhat agree\,\Somewhat disagree\,\3\,1698241426074,1698241427088,5130,6144,6972,buq,qns-item-noham,92,418153,0.0-1.0-0.91
<b>People?s brains turn off when they talk about politics.,Highly disagree,93/150,Somewhat disagree,2,1698241427917,1698241430734,\Somewhat disagree\,\Somewhat disagree\,\2\,1698241430168,1698241430168,2251,2251,2817,buq,qns-item-noham,93,420971,0.0-1.0-0.92
<b>People who are wrong are usually just ignoring the obvious.,Highly disagree,94/150,Somewhat disagree,2,1698241430735,1698241436259,\Somewhat disagree\,\Somewhat disagree\,\2\,1698241435502,1698241435502,4767,4767,5524,buq,qns-item-noham,94,426496,0.0-1.0-0.93
"<b>The world isn?t that complicated, but it?s still hard to figure out how it works.",Highly disagree,95/150,Somewhat disagree,2,1698241436261,1698241439776,\Somewhat disagree\,\Somewhat disagree\,\2\,1698241439353,1698241439353,3092,3092,3515,buq,qns-item-noham,95,430013,0.0-1.0-0.94
"<b>When forming my views on people, I rely more on what they are like now rather than rely on my past experience with them.",Highly disagree,96/150,Highly disagree,1,1698241439778,1698241444813,\Highly disagree\,\Highly disagree\,\1\,1698241444134,1698241444134,4356,4356,5035,buq,qns-item-noham,96,435050,0.0-1.0-0.95
"<b>When people contradict my beliefs, I usually know about their evidence already.",Highly disagree,97/150,Somewhat disagree,2,1698241444815,1698241449846,\Somewhat disagree\,\Somewhat disagree\,\2\,1698241449234,1698241449234,4419,4419,5031,buq,qns-item-noham,97,440083,0.0-1.0-0.96
<b>Being wrong is a matter of degree.,Highly disagree,98/150,Somewhat agree,3,1698241449848,1698241452880,\Somewhat agree\,\Somewhat agree\,\3\,1698241452362,1698241452362,2514,2514,3032,buq,qns-item-noham,98,443117,0.0-1.0-0.97
<b>Figuring out what?s true and what?s false mainly requires a strong moral compass.,Highly disagree,99/150,Somewhat disagree,2,1698241452881,1698241457090,\Somewhat disagree\,\Somewhat disagree\,\2\,1698241456502,1698241456502,3621,3621,4209,buq,qns-item-noham,99,447327,0.0-1.0-0.98
<b>Most of the beliefs people have are at least somewhat understandable.,Highly disagree,100/150,Somewhat agree,3,1698241457092,1698241459668,\Somewhat agree\,\Somewhat agree\,\3\,1698241459164,1698241459164,2072,2072,2576,buq,qns-item-noham,100,449905,0.0-1.0-0.99
"<b>Usually I?m wrong about simple things, not complicated ones.",Highly disagree,101/150,Somewhat disagree,2,1698241459670,1698241462615,\Somewhat disagree\,\Somewhat disagree\,\2\,1698241462206,1698241462206,2536,2536,2945,buq,qns-item-noham,101,452852,0.0-1.0-0.100
<b>Getting all the information I want about important things is hard.,Highly disagree,102/150,Somewhat agree,3,1698241462617,1698241467244,\Somewhat agree\,\Somewhat agree\,\3\,1698241466556,1698241466556,3939,3939,4627,buq,qns-item-noham,102,457481,0.0-1.0-0.101
<b>Most false beliefs spread because people try to deceive one another.,Highly disagree,103/150,Somewhat disagree,2,1698241467246,1698241470263,\Somewhat disagree\,\Somewhat disagree\,\2\,1698241469729,1698241469729,2483,2483,3017,buq,qns-item-noham,103,460500,0.0-1.0-0.102
<b>I can usually find something to agree with in most people?s beliefs.,Highly disagree,104/150,Highly agree,4,1698241470264,1698241477431,\Somewhat agree\,\Highly agree\,\3\,1698241476448,1698241476890,6184,6626,7167,buq,qns-item-noham,104,467668,0.0-1.0-0.103
<b>I only form my views of people once I get to know them very well.,Highly disagree,105/150,Highly disagree,1,1698241477433,1698241540956,\Somewhat disagree\,\Highly disagree\,\2\,1698241539466,1698241540499,62033,63066,63523,buq,qns-item-noham,105,531193,0.0-1.0-0.104
"<b>When people tell me important things about the world, I usually believe them.",Highly disagree,106/150,Highly agree,4,1698241540957,1698241552900,\Somewhat agree\,\Highly agree\,\3\,1698241551514,1698241552358,10557,11401,11943,buq,qns-item-noham,106,543137,0.0-1.0-0.105
"<b>If a friend does something that upsets me, it reminds me what an unpredictable place the world is.",Highly disagree,107/150,Somewhat agree,3,1698241552905,1698241593574,\Somewhat agree\,\Somewhat agree\,\3\,1698241591189,1698241593080,38284,40175,40669,buq,qns-item-noham,107,583811,0.0-1.0-0.106
<b>Having some conflicting beliefs is inevitable.,Highly disagree,108/150,Somewhat agree,3,1698241593575,1698241595585,\Somewhat agree\,\Somewhat agree\,\3\,1698241595122,1698241595122,1547,1547,2010,buq,qns-item-noham,108,585822,0.0-1.0-0.107
<b>People are wrong because they haven?t thought much about things.,Highly disagree,109/150,Highly disagree,1,1698241595587,1698241599094,\Somewhat disagree\,\Highly disagree\,\2\,1698241597182,1698241598381,1595,2794,3507,buq,qns-item-noham,109,589331,0.0-1.0-0.108
<b>People tend to believe whatever is good for their friends.,Highly disagree,110/150,Highly agree,4,1698241599095,1698241601965,\Somewhat agree\,\Highly agree\,\3\,1698241600952,1698241601409,1857,2314,2870,buq,qns-item-noham,110,592202,0.0-1.0-0.109
"<b>When I talk about important topics, I try to make sure people know I?m not always right.",Highly disagree,111/150,Somewhat disagree,2,1698241601967,1698241606075,\Somewhat disagree\,\Somewhat disagree\,\2\,1698241605563,1698241605563,3596,3596,4108,buq,qns-item-noham,111,596312,0.0-1.0-0.110
<b>I used to be more certain my beliefs were true.,Highly disagree,112/150,Highly agree,4,1698241606078,1698241608667,\Somewhat agree\,\Highly agree\,\3\,1698241607864,1698241608175,1786,2097,2589,buq,qns-item-noham,112,598904,0.0-1.0-0.111
<b>It?s often pretty easy to figure out whether something is true based on who said it.,Highly disagree,113/150,Somewhat disagree,2,1698241608669,1698241611686,\Somewhat disagree\,\Somewhat disagree\,\2\,1698241611014,1698241611014,2345,2345,3017,buq,qns-item-noham,113,601923,0.0-1.0-0.112
<b>Having bad food in my favorite restaurant will make me think the restaurant is no longer good.,Highly disagree,114/150,Highly agree,4,1698241611687,1698241615927,\Somewhat agree\,\Highly agree\,\3\,1698241614496,1698241615440,2809,3753,4240,buq,qns-item-noham,114,606165,0.0-1.0-0.113
<b>I transform into a hummingbird every day.,Highly disagree,115/150,Highly disagree,1,1698241615929,1698241618527,\Highly disagree\,\Highly disagree\,\1\,1698241617561,1698241617561,1632,1632,2598,buq,qns-item-noham,115,608764,0.0-1.0-0.114
"<b>Unfortunately, when people are wrong, it?s usually because they?re bad.",Highly disagree,116/150,Highly disagree,1,1698241618530,1698241626996,\Highly disagree\,\Highly disagree\,\1\,1698241623281,1698241623281,4751,4751,8466,buq,qns-item-noham,116,617233,0.0-1.0-0.115
<b>I think a lot about arguments against my views.,Highly disagree,117/150,Somewhat disagree,2,1698241626997,1698241630563,\Somewhat disagree\,\Somewhat disagree\,\2\,1698241630170,1698241630170,3173,3173,3566,buq,qns-item-noham,117,620800,0.0-1.0-0.116
<b>Details tend to matter a lot for knowing whether a policy is good.,Highly disagree,118/150,Highly agree,4,1698241630565,1698241634651,\Highly agree\,\Highly agree\,\4\,1698241634234,1698241634234,3669,3669,4086,buq,qns-item-noham,118,624888,0.0-1.0-0.117
<b>Personal experience is usually more important than facts and figures.,Highly disagree,119/150,Highly disagree,1,1698241634652,1698241637151,\Highly disagree\,\Highly disagree\,\1\,1698241636610,1698241636610,1958,1958,2499,buq,qns-item-noham,119,627388,0.0-1.0-0.118
<b>I?ve been tricked before about important matters.,Highly disagree,120/150,Somewhat disagree,2,1698241637153,1698241639619,\Somewhat disagree\,\Somewhat disagree\,\2\,1698241639148,1698241639148,1995,1995,2466,buq,qns-item-noham,120,629856,0.0-1.0-0.119
<b>I would need to be totally wowed if I were to change my opinion of a restaurant I don?t like.,Highly disagree,121/150,Highly disagree,1,1698241639621,1698241645952,\Highly disagree\,\Highly disagree\,\1\,1698241645301,1698241645301,5680,5680,6331,buq,qns-item-noham,121,636189,0.0-1.0-0.120
<b>I care a lot about politics.,Highly disagree,122/150,Somewhat disagree,2,1698241645954,1698241647818,\Somewhat disagree\,\Somewhat disagree\,\2\,1698241647391,1698241647391,1437,1437,1864,buq,qns-item-noham,122,638055,0.0-1.0-0.121
<b>People with conflicting beliefs usually have some facts they disagree on.,Highly disagree,123/150,Somewhat agree,3,1698241647819,1698241653508,\Somewhat agree\,\Somewhat agree\,\3\,1698241652818,1698241652818,4999,4999,5689,buq,qns-item-noham,123,643745,0.0-1.0-0.122
<b>There are some topics I?ve been really wrong about.,Highly disagree,124/150,Highly agree,4,1698241653511,1698241657686,\Somewhat agree\,\Highly agree\,\3\,1698241655774,1698241656998,2263,3487,4175,buq,qns-item-noham,124,647923,0.0-1.0-0.123
<b>Most beliefs can be supported with at least some evidence.,Highly disagree,125/150,Highly agree,4,1698241657687,1698241661378,\Highly agree\,\Highly agree\,\4\,1698241659800,1698241659800,2113,2113,3691,buq,qns-item-noham,125,651615,0.0-1.0-0.124
<b>Other people make life out to be more complicated than it really is.,Highly disagree,126/150,Somewhat disagree,2,1698241661379,1698241664597,\Somewhat agree\,\Somewhat disagree\,\3\,1698241663251,1698241664174,1872,2795,3218,buq,qns-item-noham,126,654834,0.0-1.0-0.125
"<b>My political views are being shaped continuously as I gather more information, rather than relying on what I?ve known to be true of my party in the past. ",Highly disagree,127/150,Somewhat agree,3,1698241664599,1698241668847,\Somewhat agree\,\Somewhat agree\,\3\,1698241668243,1698241668243,3644,3644,4248,buq,qns-item-noham,127,659084,0.0-1.0-0.126
<b>It?s pretty unusual for true things to seem false.,Highly disagree,128/150,Somewhat disagree,2,1698241668849,1698241673003,\Somewhat disagree\,\Somewhat disagree\,\2\,1698241672585,1698241672585,3736,3736,4154,buq,qns-item-noham,128,663240,0.0-1.0-0.127
"<b>Policy details don?t matter much, just the big picture.",Highly disagree,129/150,Somewhat disagree,2,1698241673005,1698241675301,\Somewhat disagree\,\Somewhat disagree\,\2\,1698241674891,1698241674891,1886,1886,2296,buq,qns-item-noham,129,665538,0.0-1.0-0.128
<b>I know my friends so well they can hardly ever surprise me.,Highly disagree,130/150,Highly disagree,1,1698241675303,1698241678910,\Somewhat disagree\,\Highly disagree\,\2\,1698241677556,1698241678087,2253,2784,3607,buq,qns-item-noham,130,669147,0.0-1.0-0.129
"<b>When I talk to people, I often think about why they have the beliefs they do.",Highly disagree,131/150,Somewhat agree,3,1698241678911,1698241683087,\Somewhat agree\,\Somewhat agree\,\3\,1698241682678,1698241682678,3767,3767,4176,buq,qns-item-noham,131,673324,0.0-1.0-0.130
<b>I do not often change my views on people.,Highly disagree,132/150,Somewhat disagree,2,1698241683088,1698241685031,\Somewhat disagree\,\Somewhat disagree\,\2\,1698241684581,1698241684581,1493,1493,1943,buq,qns-item-noham,132,675268,0.0-1.0-0.131
<b>I often wish I had more time to spend figuring out what?s true and what?s false in life.,Highly disagree,133/150,Somewhat disagree,2,1698241685033,1698241688561,\Somewhat disagree\,\Somewhat disagree\,\2\,1698241688165,1698241688165,3132,3132,3528,buq,qns-item-noham,133,678798,0.0-1.0-0.132
<b>I?m more certain about my beliefs than I used to be.,Highly disagree,134/150,Somewhat disagree,2,1698241688564,1698241691239,\Somewhat disagree\,\Somewhat disagree\,\2\,1698241690719,1698241690719,2155,2155,2675,buq,qns-item-noham,134,681476,0.0-1.0-0.133
"<b>Whenever I find out new information, I update my views on politics accordingly.",Highly disagree,135/150,Highly disagree,1,1698241691241,1698241694567,\Highly disagree\,\Highly disagree\,\1\,1698241694126,1698241694126,2885,2885,3326,buq,qns-item-noham,135,684804,0.0-1.0-0.134
<b>People often tell falsehoods unintentionally.,Highly disagree,136/150,Somewhat agree,3,1698241694568,1698241696827,\Somewhat agree\,\Somewhat agree\,\3\,1698241696385,1698241696385,1817,1817,2259,buq,qns-item-noham,136,687064,0.0-1.0-0.135
<b>Most people don?t know much about most things.,Highly disagree,137/150,Highly agree,4,1698241696829,1698241699312,\Highly agree\,\Highly agree\,\4\,1698241698853,1698241698853,2024,2024,2483,buq,qns-item-noham,137,689549,0.0-1.0-0.136
"<b>If I find out something new about someone, I easily change my views about them.",Highly disagree,138/150,Somewhat agree,3,1698241699314,1698241704381,\Somewhat agree\,\Somewhat agree\,\3\,1698241703909,1698241703909,4595,4595,5067,buq,qns-item-noham,138,694618,0.0-1.0-0.137
<b>Having true beliefs is difficult.,Highly disagree,139/150,Somewhat agree,3,1698241704383,1698241707214,\Somewhat agree\,\Somewhat agree\,\3\,1698241706021,1698241706021,1638,1638,2831,buq,qns-item-noham,139,697451,0.0-1.0-0.138
<b>I don?t try new foods since I know I won?t like them.,Highly disagree,140/150,Highly disagree,1,1698241707215,1698241710147,\Highly disagree\,\Highly disagree\,\1\,1698241709691,1698241709691,2476,2476,2932,buq,qns-item-noham,140,700384,0.0-1.0-0.139
<b>It?s easy to figure out what?s true or false based on who?s saying it.,Highly disagree,141/150,Highly disagree,1,1698241710149,1698241713235,\Highly disagree\,\Highly disagree\,\1\,1698241712865,1698241712865,2716,2716,3086,buq,qns-item-noham,141,703472,0.0-1.0-0.140
<b>False things have seemed true to me many times.,Highly disagree,142/150,Somewhat disagree,2,1698241713237,1698241715867,\Somewhat disagree\,\Somewhat disagree\,\2\,1698241715390,1698241715390,2153,2153,2630,buq,qns-item-noham,142,706104,0.0-1.0-0.141
<b>It?s pretty easy to sort out what?s true and what?s false in life.,Highly disagree,143/150,Somewhat disagree,2,1698241715868,1698241719065,\Somewhat disagree\,\Somewhat disagree\,\2\,1698241718570,1698241718570,2702,2702,3197,buq,qns-item-noham,143,709302,0.0-1.0-0.142
<b>Knowing lots of statistics about something is usually important for understanding it.,Highly disagree,144/150,Somewhat disagree,2,1698241719067,1698241723099,\Somewhat disagree\,\Somewhat disagree\,\2\,1698241722603,1698241722603,3536,3536,4032,buq,qns-item-noham,144,713336,0.0-1.0-0.143
<b>Other people trick each other a lot.,Highly disagree,145/150,Somewhat agree,3,1698241723102,1698241725421,\Somewhat agree\,\Somewhat agree\,\3\,1698241724710,1698241724710,1608,1608,2319,buq,qns-item-noham,145,715658,0.0-1.0-0.144
<b>I would need to learn a lot about a person for my opinion of them to be swayed.,Highly disagree,146/150,Somewhat disagree,2,1698241725423,1698241727751,\Somewhat disagree\,\Somewhat disagree\,\2\,1698241727334,1698241727334,1911,1911,2328,buq,qns-item-noham,146,717988,0.0-1.0-0.145
<b>People can?t usually trick me when it comes to topics I care about.,Highly disagree,147/150,Highly disagree,1,1698241727754,1698241730281,\Highly disagree\,\Highly disagree\,\1\,1698241729561,1698241729561,1807,1807,2527,buq,qns-item-noham,147,720518,0.0-1.0-0.146
<b>I do not often change my views on food.,Highly disagree,148/150,Highly disagree,1,1698241730283,1698241733340,\Somewhat disagree\,\Highly disagree\,\2\,1698241732085,1698241732827,1802,2544,3057,buq,qns-item-noham,148,723577,0.0-1.0-0.147
<b>Specific policies are often very important to me.,Highly disagree,149/150,Somewhat disagree,2,1698241733342,1698241736527,\Somewhat disagree\,\Somewhat disagree\,\2\,1698241735963,1698241735963,2621,2621,3185,buq,qns-item-noham,149,726764,0.0-1.0-0.148
<b>Most people are woefully under-informed.,Highly disagree,150/150,Highly agree,4,1698241736529,1698241739376,\Highly agree\,\Highly agree\,\4\,1698241738741,1698241738741,2212,2212,2847,buq,qns-item-noham,150,729613,0.0-1.0-0.149
