Question,qns_options,quest_num,answer,answer_num,question_load_timestamp,next_btn_timestamp,text_selected,final_text_selected,option_num_selected,preview_timestamps,final_text_selected_time_stamp,rt_first_option_click,rt_final_option_click,rt_submit_click,questionnaire,trial_type,trial_index,time_elapsed,internal_node_id
<b>Considering other people?s perspectives can help us figure out what?s true or false.,Highly disagree,1/150,Highly agree,4,1698241350214,1698241356477,\Highly agree\,\Highly agree\,\4\,1698241355376,1698241355376,5162,5162,6263,buq,qns-item-noham,1,12037,0.0-1.0-0.0
<b>Knowing what?s true and knowing what to do about it are usually basically the same.,Highly disagree,2/150,Somewhat disagree,2,1698241356483,1698241362936,\Somewhat disagree\,\Somewhat disagree\,\2\,1698241362305,1698241362305,5822,5822,6453,buq,qns-item-noham,2,18495,0.0-1.0-0.1
<b>Most people just believe whatever is convenient for them.,Highly disagree,3/150,Highly agree,4,1698241362938,1698241366803,\Highly agree\,\Highly agree\,\4\,1698241365431,1698241365431,2493,2493,3865,buq,qns-item-noham,3,22362,0.0-1.0-0.2
<b>Even people who are wrong about most things can be right sometimes.,Highly disagree,4/150,Highly agree,4,1698241366805,1698241371808,\Highly agree\,\Highly agree\,\4\,1698241371006,1698241371006,4201,4201,5003,buq,qns-item-noham,4,27367,0.0-1.0-0.3
"<b>If the political party I support does something that upsets me, then the party may have changed, and I need to re-evaluate my support.",Highly disagree,5/150,Highly agree,4,1698241371811,1698241377442,\Highly agree\,\Highly agree\,\4\,1698241376591,1698241376591,4780,4780,5631,buq,qns-item-noham,5,33002,0.0-1.0-0.4
"<b>When people disagree, one side is usually completely right.",Highly disagree,6/150,Somewhat disagree,2,1698241377445,1698241386511,\Highly disagree\,\Somewhat disagree\,\1\,1698241385270,1698241385722,7825,8277,9066,buq,qns-item-noham,6,42070,0.0-1.0-0.5
<b>People have lots of false beliefs.,Highly disagree,7/150,Highly agree,4,1698241386514,1698241389109,\Highly agree\,\Highly agree\,\4\,1698241388549,1698241388549,2035,2035,2595,buq,qns-item-noham,7,44669,0.0-1.0-0.6
<b>Having some big beliefs helps me sort out minor ones.,Highly disagree,8/150,Highly agree,4,1698241389112,1698241393861,\Highly agree\,\Highly agree\,\4\,1698241392853,1698241392853,3741,3741,4749,buq,qns-item-noham,8,49420,0.0-1.0-0.7
<b>Political questions are usually pretty complicated.,Highly disagree,9/150,Highly agree,4,1698241393863,1698241396821,\Highly agree\,\Highly agree\,\4\,1698241396149,1698241396149,2286,2286,2958,buq,qns-item-noham,9,52380,0.0-1.0-0.8
<b>Figuring out what?s important in life requires learning a lot of facts.,Highly disagree,10/150,Somewhat disagree,2,1698241396823,1698241401511,\Somewhat disagree\,\Somewhat disagree\,\2\,1698241400259,1698241400259,3436,3436,4688,buq,qns-item-noham,10,57071,0.0-1.0-0.9
<b>It is difficult for me to remember the last time I was surprised by politics.,Highly disagree,11/150,Highly agree,4,1698241401514,1698241407861,\Highly agree\,\Highly agree\,\4\,1698241407089,1698241407089,5575,5575,6347,buq,qns-item-noham,11,63420,0.0-1.0-0.10
<b>People?s false beliefs are understandable.,Highly disagree,12/150,Highly agree,4,1698241407863,1698241410137,\Highly agree\,\Highly agree\,\4\,1698241409507,1698241409507,1644,1644,2274,buq,qns-item-noham,12,65696,0.0-1.0-0.11
<b>I spend a lot of time trying to be informed about politics.,Highly disagree,13/150,Somewhat disagree,2,1698241410139,1698241415019,\Somewhat disagree\,\Somewhat disagree\,\2\,1698241412197,1698241414575,2058,4436,4880,buq,qns-item-noham,13,70578,0.0-1.0-0.12
<b>I think a lot about whether my beliefs are right.,Highly disagree,14/150,Somewhat disagree,2,1698241415021,1698241419223,\Somewhat disagree\,\Somewhat disagree\,\2\,1698241417839,1698241417839,2818,2818,4202,buq,qns-item-noham,14,74782,0.0-1.0-0.13
<b>Statistics can be pretty misleading sometimes.,Highly disagree,15/150,Highly agree,4,1698241419225,1698241421291,\Highly agree\,\Highly agree\,\4\,1698241420639,1698241420639,1414,1414,2066,buq,qns-item-noham,15,76850,0.0-1.0-0.14
<b>Figuring out what?s true and what?s false takes a lot of time and effort.,Highly disagree,16/150,Highly agree,4,1698241421294,1698241429309,\Highly agree\,\Highly agree\,\4\,1698241426697,1698241426697,5403,5403,8015,buq,qns-item-noham,16,84868,0.0-1.0-0.15
"<b>If a friend does something bad to me, it was likely an error on their part.",Highly disagree,17/150,Highly disagree,1,1698241429311,1698241433525,\Highly disagree\,\Highly disagree\,\1\,1698241432795,1698241432795,3484,3484,4214,buq,qns-item-noham,17,89084,0.0-1.0-0.16
<b>I have lots of beliefs that I?m only sort of sure about.,Highly disagree,18/150,Highly agree,4,1698241433527,1698241438657,\Somewhat disagree\,\Highly agree\,\2\,1698241435203,1698241438043,1676,4516,5130,buq,qns-item-noham,18,94216,0.0-1.0-0.17
"<b>If I go to my favorite restaurant and the food is surprisingly bad, it reminds me there are many disappointments in life.",Highly disagree,19/150,Highly disagree,1,1698241438659,1698241444021,\Highly disagree\,\Highly disagree\,\1\,1698241442959,1698241442959,4300,4300,5362,buq,qns-item-noham,19,99580,0.0-1.0-0.18
<b>Sometimes my beliefs are inconvenient for me.,Highly disagree,20/150,Somewhat agree,3,1698241444023,1698241447287,\Highly agree\,\Somewhat agree\,\4\,1698241445903,1698241446928,1880,2905,3264,buq,qns-item-noham,20,102846,0.0-1.0-0.19
<b>Paying attention to multiple news sources is important.,Highly disagree,21/150,Highly agree,4,1698241447289,1698241449116,\Highly agree\,\Highly agree\,\4\,1698241448643,1698241448643,1354,1354,1827,buq,qns-item-noham,21,104675,0.0-1.0-0.20
"<b>If you are paying attention, please select ?Somewhat agree?",Highly disagree,22/150,Somewhat agree,3,1698241449118,1698241451280,\Somewhat agree\,\Somewhat agree\,\3\,1698241450587,1698241450587,1469,1469,2162,buq,qns-item-noham,22,106839,0.0-1.0-0.21
"<b>When I talk to others, I often worry I?ll convince them of something I didn?t mean to.",Highly disagree,23/150,Somewhat disagree,2,1698241451281,1698241454715,\Somewhat disagree\,\Somewhat disagree\,\2\,1698241454259,1698241454259,2978,2978,3434,buq,qns-item-noham,23,110274,0.0-1.0-0.22
<b>I would need to learn something utterly shocking about my party in order to change my political views.,Highly disagree,24/150,Somewhat disagree,2,1698241454718,1698241461873,\Somewhat disagree\,\Somewhat disagree\,\2\,1698241457941,1698241457941,3223,3223,7155,buq,qns-item-noham,24,117432,0.0-1.0-0.23
"<b>When I have new experiences, I tend to think of them as unique.",Highly disagree,25/150,Somewhat agree,3,1698241461875,1698241465383,\Highly agree\,\Somewhat agree\,\4\,1698241464431,1698241464978,2556,3103,3508,buq,qns-item-noham,25,120942,0.0-1.0-0.24
<b>Reading lots of things is important for understanding the world.,Highly disagree,26/150,Highly agree,4,1698241465385,1698241468052,\Highly agree\,\Highly agree\,\4\,1698241467209,1698241467507,1824,2122,2667,buq,qns-item-noham,26,123611,0.0-1.0-0.25
<b>The world is complicated.,Highly disagree,27/150,Highly agree,4,1698241468053,1698241469377,\Highly agree\,\Highly agree\,\4\,1698241468975,1698241468975,922,922,1324,buq,qns-item-noham,27,124936,0.0-1.0-0.26
<b>I change my mind about specific policies pretty frequently.,Highly disagree,28/150,Somewhat disagree,2,1698241469379,1698241472737,\Somewhat agree\,\Somewhat disagree\,\3\,1698241471877,1698241472321,2498,2942,3358,buq,qns-item-noham,28,128296,0.0-1.0-0.27
"<b>If a politician in my political party supports something I disagree with, I give them the benefit of the doubt, as such issues often involve hidden complexities that aren?t obvious.   ",Highly disagree,29/150,Somewhat disagree,2,1698241472739,1698241478893,\Somewhat disagree\,\Somewhat disagree\,\2\,1698241476867,1698241478453,4128,5714,6154,buq,qns-item-noham,29,134452,0.0-1.0-0.28
<b>People?s bad politics are usually motivated by hatefulness.,Highly disagree,30/150,Somewhat agree,3,1698241478895,1698241481924,\Somewhat agree\,\Somewhat agree\,\3\,1698241481451,1698241481451,2556,2556,3029,buq,qns-item-noham,30,137483,0.0-1.0-0.29
"<b>Most new experiences are just like old ones, but a little bit different.",Highly disagree,31/150,Somewhat disagree,2,1698241481926,1698241487243,\Somewhat disagree\,\Somewhat disagree\,\2\,1698241484079,1698241484079,2153,2153,5317,buq,qns-item-noham,31,142802,0.0-1.0-0.30
<b>I think a lot about how to reconcile my beliefs with one another.,Highly disagree,32/150,Highly agree,4,1698241487245,1698241491229,\Somewhat agree\,\Highly agree\,\3\,1698241490007,1698241490799,2762,3554,3984,buq,qns-item-noham,32,146788,0.0-1.0-0.31
<b>Personal experience rarely leads people astray.,Highly disagree,33/150,Somewhat disagree,2,1698241491231,1698241495083,\Somewhat agree\,\Somewhat disagree\,\3\,1698241493895,1698241494645,2664,3414,3852,buq,qns-item-noham,33,150642,0.0-1.0-0.32
<b>I might have false beliefs about important topics.,Highly disagree,34/150,Highly agree,4,1698241495085,1698241497219,\Highly agree\,\Highly agree\,\4\,1698241496391,1698241496391,1306,1306,2134,buq,qns-item-noham,34,152778,0.0-1.0-0.33
"<b>If a good friend of mine does something unexpected that upsets me, I feel like I don?t know them anymore.",Highly disagree,35/150,Somewhat disagree,2,1698241497221,1698241500665,\Highly disagree\,\Somewhat disagree\,\1\,1698241499849,1698241500313,2628,3092,3444,buq,qns-item-noham,35,156224,0.0-1.0-0.34
<b>Other people?s beliefs are often incoherent.,Highly disagree,36/150,Highly agree,4,1698241500667,1698241502679,\Highly agree\,\Highly agree\,\4\,1698241502261,1698241502261,1594,1594,2012,buq,qns-item-noham,36,158238,0.0-1.0-0.35
<b>It?s important to have friends who think about things differently than I do.,Highly disagree,37/150,Highly agree,4,1698241502681,1698241505590,\Highly agree\,\Highly agree\,\4\,1698241505094,1698241505094,2413,2413,2909,buq,qns-item-noham,37,161149,0.0-1.0-0.36
"<b>Every now and then, a new experience will unsettle beliefs I?ve had for a while.",Highly disagree,38/150,Highly agree,4,1698241505592,1698241508546,\Somewhat agree\,\Highly agree\,\3\,1698241507615,1698241507981,2023,2389,2954,buq,qns-item-noham,38,164105,0.0-1.0-0.37
<b>Some policies I agree with in principle are so bad I don?t support them. ,Highly disagree,39/150,Highly agree,4,1698241508547,1698241514366,\Highly agree\,\Highly agree\,\4\,1698241512237,1698241513828,3690,5281,5819,buq,qns-item-noham,39,169925,0.0-1.0-0.38
<b>I?m pretty sure I?ve accidentally spread false information.,Highly disagree,40/150,Highly agree,4,1698241514367,1698241516426,\Highly agree\,\Highly agree\,\4\,1698241515815,1698241515815,1448,1448,2059,buq,qns-item-noham,40,171985,0.0-1.0-0.39
"<b>If I go to my favorite restaurant and the food is unexpectedly bad, then they have changed owners.",Highly disagree,41/150,Highly agree,4,1698241516428,1698241520584,\Somewhat agree\,\Highly agree\,\3\,1698241519255,1698241519756,2827,3328,4156,buq,qns-item-noham,41,176143,0.0-1.0-0.40
"<b>In politics, it?s important to trust your friends and family.",Highly disagree,42/150,Somewhat agree,3,1698241520585,1698241524556,\Somewhat agree\,\Somewhat agree\,\3\,1698241523111,1698241524100,2526,3515,3971,buq,qns-item-noham,42,180115,0.0-1.0-0.41
<b>It?s OK to have some conflicting beliefs.,Highly disagree,43/150,Highly agree,4,1698241524557,1698241526282,\Highly agree\,\Highly agree\,\4\,1698241525754,1698241525754,1197,1197,1725,buq,qns-item-noham,43,181841,0.0-1.0-0.42
<b>Sometimes the details of a matter seem to conflict with the big picture.,Highly disagree,44/150,Somewhat disagree,2,1698241526283,1698241532796,\Highly agree\,\Somewhat disagree\,\4\,1698241529045,1698241530183,2762,3900,6513,buq,qns-item-noham,44,188355,0.0-1.0-0.43
<b>Listening to people I disagree with makes my opinions better.,Highly disagree,45/150,Highly agree,4,1698241532797,1698241536440,\Highly agree\,\Highly agree\,\4\,1698241534859,1698241535782,2062,2985,3643,buq,qns-item-noham,45,191999,0.0-1.0-0.44
<b>Policies that sound bad are sometimes fine when you find out about their details.,Highly disagree,46/150,Highly agree,4,1698241536441,1698241541566,\Highly agree\,\Highly agree\,\4\,1698241540723,1698241540723,4282,4282,5125,buq,qns-item-noham,46,197125,0.0-1.0-0.45
"<b>The world is always changing, so my beliefs are sometimes out-dated.",Highly disagree,47/150,Somewhat agree,3,1698241541567,1698241544166,\Somewhat agree\,\Somewhat agree\,\3\,1698241543381,1698241543381,1814,1814,2599,buq,qns-item-noham,47,199725,0.0-1.0-0.46
"<b>If I receive a bad meal at my favorite restaurant and the food is surprisingly bad, I do not think much of it, and assume the chef is just having an ?off? day.",Highly disagree,48/150,Somewhat disagree,2,1698241544168,1698241549058,\Somewhat disagree\,\Somewhat disagree\,\2\,1698241548491,1698241548491,4323,4323,4890,buq,qns-item-noham,48,204617,0.0-1.0-0.47
"<b>False information is unavoidable, to some extent.",Highly disagree,49/150,Highly agree,4,1698241549059,1698241550984,\Highly agree\,\Highly agree\,\4\,1698241550514,1698241550514,1455,1455,1925,buq,qns-item-noham,49,206543,0.0-1.0-0.48
<b>My moral compass sometimes makes it harder to determine what?s true.,Highly disagree,50/150,Somewhat disagree,2,1698241550986,1698241554144,\Highly agree\,\Somewhat disagree\,\4\,1698241553109,1698241553615,2123,2629,3158,buq,qns-item-noham,50,209703,0.0-1.0-0.49
"<b>When you disagree with someone, it?s important to listen to them carefully.",Highly disagree,51/150,Somewhat agree,3,1698241554146,1698241556516,\Somewhat agree\,\Somewhat agree\,\3\,1698241556095,1698241556095,1949,1949,2370,buq,qns-item-noham,51,212075,0.0-1.0-0.50
<b>Evidence pointing in the wrong direction isn?t really evidence at all.,Highly disagree,52/150,Highly agree,4,1698241556518,1698241560894,\Highly agree\,\Highly agree\,\4\,1698241558592,1698241558592,2074,2074,4376,buq,qns-item-noham,52,216453,0.0-1.0-0.51
"<b>If the political party I support messes up, it makes me think politics is rotten.",Highly disagree,53/150,Somewhat agree,3,1698241560896,1698241564140,\Somewhat agree\,\Somewhat agree\,\3\,1698241563526,1698241563526,2630,2630,3244,buq,qns-item-noham,53,219699,0.0-1.0-0.52
<b>Lots of important topics can only really be understood by some groups of people.,Highly disagree,54/150,Somewhat disagree,2,1698241564141,1698241567569,\Somewhat disagree\,\Somewhat disagree\,\2\,1698241566893,1698241566893,2752,2752,3428,buq,qns-item-noham,54,223128,0.0-1.0-0.53
<b>Details almost always matter for being right about something.,Highly disagree,55/150,Highly agree,4,1698241567571,1698241570849,\Highly agree\,\Highly agree\,\4\,1698241570131,1698241570131,2560,2560,3278,buq,qns-item-noham,55,226408,0.0-1.0-0.54
"<b>The most important thing in politics is winning, not convincing people.",Highly disagree,56/150,Highly disagree,1,1698241570851,1698241574552,\Highly disagree\,\Highly disagree\,\1\,1698241573289,1698241573289,2438,2438,3701,buq,qns-item-noham,56,230111,0.0-1.0-0.55
<b>Having conflicting beliefs means you haven?t thought about them enough.,Highly disagree,57/150,Somewhat disagree,2,1698241574553,1698241581635,\Somewhat disagree\,\Somewhat disagree\,\2\,1698241577639,1698241580309,3086,5756,7082,buq,qns-item-noham,57,237195,0.0-1.0-0.56
<b>Other people have sometimes convinced me to change my mind on important topics.,Highly disagree,58/150,Highly agree,4,1698241581638,1698241585225,\Highly agree\,\Highly agree\,\4\,1698241584723,1698241584723,3085,3085,3587,buq,qns-item-noham,58,240784,0.0-1.0-0.57
<b>I do not often change my political opinions.,Highly disagree,59/150,Somewhat disagree,2,1698241585227,1698241588481,\Somewhat disagree\,\Somewhat disagree\,\2\,1698241587241,1698241587241,2014,2014,3254,buq,qns-item-noham,59,244041,0.0-1.0-0.58
<b>Thinking about how different things relate to one another is critical in life.,Highly disagree,60/150,Highly agree,4,1698241588483,1698241591627,\Highly agree\,\Highly agree\,\4\,1698241591267,1698241591267,2784,2784,3144,buq,qns-item-noham,60,247186,0.0-1.0-0.59
<b>True beliefs can have unfortunate implications.,Highly disagree,61/150,Highly agree,4,1698241591629,1698241593710,\Highly agree\,\Highly agree\,\4\,1698241593239,1698241593239,1610,1610,2081,buq,qns-item-noham,61,249269,0.0-1.0-0.60
<b>It?s difficult to not have at least some conflicting beliefs.,Highly disagree,62/150,Highly agree,4,1698241593712,1698241596117,\Highly agree\,\Highly agree\,\4\,1698241595507,1698241595507,1795,1795,2405,buq,qns-item-noham,62,251676,0.0-1.0-0.61
"<b>When I learn new things, I think deeply about how my opinions should change.",Highly disagree,63/150,Highly agree,4,1698241596120,1698241598913,\Highly agree\,\Highly agree\,\4\,1698241597689,1698241597689,1569,1569,2793,buq,qns-item-noham,63,254472,0.0-1.0-0.62
<b>I think a lot about how to interpret different sorts of evidence.,Highly disagree,64/150,Highly agree,4,1698241598915,1698241601094,\Highly agree\,\Highly agree\,\4\,1698241600673,1698241600673,1758,1758,2179,buq,qns-item-noham,64,256653,0.0-1.0-0.63
<b>Politics is about thinking together and finding compromises.,Highly disagree,65/150,Highly agree,4,1698241601096,1698241603125,\Highly agree\,\Highly agree\,\4\,1698241602707,1698241602707,1611,1611,2029,buq,qns-item-noham,65,258684,0.0-1.0-0.64
<b>Wishful thinking causes a lot of problems.,Highly disagree,66/150,Somewhat agree,3,1698241603127,1698241606722,\Highly agree\,\Somewhat agree\,\4\,1698241604515,1698241605907,1388,2780,3595,buq,qns-item-noham,66,262281,0.0-1.0-0.65
<b>I judge a food item only once I try it many times.,Highly disagree,67/150,Somewhat disagree,2,1698241606723,1698241611528,\Highly agree\,\Somewhat disagree\,\4\,1698241609867,1698241611075,3144,4352,4805,buq,qns-item-noham,67,267087,0.0-1.0-0.66
"<b>When a person holds conflicting beliefs, they should really try to figure out what?s wrong.",Highly disagree,68/150,Somewhat disagree,2,1698241611529,1698241614533,\Somewhat disagree\,\Somewhat disagree\,\2\,1698241614031,1698241614031,2502,2502,3004,buq,qns-item-noham,68,270092,0.0-1.0-0.67
<b>Knowing what?s important in life is easy.,Highly disagree,69/150,Somewhat agree,3,1698241614535,1698241617307,\Somewhat disagree\,\Somewhat agree\,\2\,1698241616701,1698241616943,2166,2408,2772,buq,qns-item-noham,69,272866,0.0-1.0-0.68
<b>Lots of smart people disagree about basic political questions.,Highly disagree,70/150,Highly agree,4,1698241617309,1698241619301,\Highly agree\,\Highly agree\,\4\,1698241618481,1698241618481,1172,1172,1992,buq,qns-item-noham,70,274860,0.0-1.0-0.69
<b>I swim across the Atlantic Ocean to get to work every day.,Highly disagree,71/150,Highly disagree,1,1698241619303,1698241622193,\Highly disagree\,\Highly disagree\,\1\,1698241620587,1698241620587,1284,1284,2890,buq,qns-item-noham,71,277752,0.0-1.0-0.70
"<b>Sometimes, you just have to ignore evidence that you know is wrong.",Highly disagree,72/150,Highly disagree,1,1698241622195,1698241625266,\Highly disagree\,\Highly disagree\,\1\,1698241624713,1698241624713,2518,2518,3071,buq,qns-item-noham,72,280825,0.0-1.0-0.71
<b>I have had some false beliefs.,Highly disagree,73/150,Highly agree,4,1698241625268,1698241627069,\Highly agree\,\Highly agree\,\4\,1698241626501,1698241626501,1233,1233,1801,buq,qns-item-noham,73,282628,0.0-1.0-0.72
"<b>If one friend does something that upsets me, I sometimes start to distrust people in general.",Highly disagree,74/150,Somewhat agree,3,1698241627071,1698241630929,\Somewhat agree\,\Somewhat agree\,\3\,1698241630489,1698241630489,3418,3418,3858,buq,qns-item-noham,74,286488,0.0-1.0-0.73
<b>I easily apply what I learn in one situation to another.,Highly disagree,75/150,Somewhat disagree,2,1698241630931,1698241633973,\Somewhat disagree\,\Somewhat disagree\,\2\,1698241633471,1698241633471,2540,2540,3042,buq,qns-item-noham,75,289532,0.0-1.0-0.74
<b>The facts about most important matters are easy to find.,Highly disagree,76/150,Highly disagree,1,1698241633975,1698241638803,\Highly disagree\,\Highly disagree\,\1\,1698241638401,1698241638401,4426,4426,4828,buq,qns-item-noham,76,294362,0.0-1.0-0.75
<b>It?s better to know what?s true than to know what?s moral.,Highly disagree,77/150,Somewhat disagree,2,1698241638805,1698241643497,\Somewhat disagree\,\Somewhat disagree\,\2\,1698241643073,1698241643073,4268,4268,4692,buq,qns-item-noham,77,299056,0.0-1.0-0.76
<b>It?s good to be skeptical of people you agree with.,Highly disagree,78/150,Highly agree,4,1698241643499,1698241645983,\Highly agree\,\Highly agree\,\4\,1698241645085,1698241645085,1586,1586,2484,buq,qns-item-noham,78,301542,0.0-1.0-0.77
<b>Sometimes reasonable beliefs are wrong.,Highly disagree,79/150,Highly agree,4,1698241645986,1698241647841,\Highly agree\,\Highly agree\,\4\,1698241647223,1698241647223,1237,1237,1855,buq,qns-item-noham,79,303400,0.0-1.0-0.78
<b>I used to think the world was less complicated than I do now.,Highly disagree,80/150,Highly agree,4,1698241647844,1698241649881,\Highly agree\,\Highly agree\,\4\,1698241649487,1698241649487,1643,1643,2037,buq,qns-item-noham,80,305440,0.0-1.0-0.79
<b>People are usually completely right or completely wrong.,Highly disagree,81/150,Highly disagree,1,1698241649883,1698241652323,\Highly disagree\,\Highly disagree\,\1\,1698241651925,1698241651925,2042,2042,2440,buq,qns-item-noham,81,307882,0.0-1.0-0.80
<b>I spend a lot of time considering alternatives to my beliefs.,Highly disagree,82/150,Highly agree,4,1698241652325,1698241656707,\Somewhat agree\,\Highly agree\,\3\,1698241654981,1698241656251,2656,3926,4382,buq,qns-item-noham,82,312266,0.0-1.0-0.81
"<b>Political enemies need to be defeated, not convinced.",Highly disagree,83/150,Highly disagree,1,1698241656709,1698241658785,\Highly disagree\,\Highly disagree\,\1\,1698241658187,1698241658187,1478,1478,2076,buq,qns-item-noham,83,314344,0.0-1.0-0.82
"<b>When forming an opinion about a restaurant, I am more swayed by my  latest meal there than  previous meals I?ve had there.",Highly disagree,84/150,Somewhat disagree,2,1698241658787,1698241663289,\Somewhat disagree\,\Somewhat disagree\,\2\,1698241662745,1698241662745,3958,3958,4502,buq,qns-item-noham,84,318848,0.0-1.0-0.83
<b>I try to remain skeptical about most topics.,Highly disagree,85/150,Highly agree,4,1698241663292,1698241665399,\Highly agree\,\Highly agree\,\4\,1698241664603,1698241664603,1311,1311,2107,buq,qns-item-noham,85,320958,0.0-1.0-0.84
<b>Being wrong is usually obvious in retrospect.,Highly disagree,86/150,Highly agree,4,1698241665401,1698241671219,\Highly disagree\,\Highly agree\,\1\,1698241668813,1698241670679,3412,5278,5818,buq,qns-item-noham,86,326778,0.0-1.0-0.85
<b>It can be hard to realize that my beliefs are in conflict.,Highly disagree,87/150,Highly disagree,1,1698241671221,1698241675117,\Highly agree\,\Highly disagree\,\4\,1698241673151,1698241674441,1930,3220,3896,buq,qns-item-noham,87,330676,0.0-1.0-0.86
<b>I form my political views only after meticulously gathering historical and present information about their policies.,Highly disagree,88/150,Somewhat disagree,2,1698241675119,1698241679923,\Highly agree\,\Somewhat disagree\,\4\,1698241677663,1698241679267,2544,4148,4804,buq,qns-item-noham,88,335482,0.0-1.0-0.87
<b>Skeptical people are usually just bad-tempered.,Highly disagree,89/150,Highly disagree,1,1698241679926,1698241682305,\Highly disagree\,\Highly disagree\,\1\,1698241681417,1698241681417,1491,1491,2379,buq,qns-item-noham,89,337864,0.0-1.0-0.88
<b>It is difficult for me to remember the last time I was surprised by politics.,Highly disagree,90/150,Somewhat agree,3,1698241682307,1698241689218,\Somewhat agree\,\Somewhat agree\,\3\,1698241685515,1698241685515,3208,3208,6911,buq,qns-item-noham,90,344777,0.0-1.0-0.89
"<b>When I find out I?m wrong, I think a lot about my related beliefs.",Highly disagree,91/150,Highly agree,4,1698241689219,1698241694223,\Highly agree\,\Highly agree\,\4\,1698241693349,1698241693349,4130,4130,5004,buq,qns-item-noham,91,349782,0.0-1.0-0.90
"<b>If the political party I support messes up, it makes me think you can?t trust anyone these days",Highly disagree,92/150,Somewhat disagree,2,1698241694225,1698241698023,\Somewhat disagree\,\Somewhat disagree\,\2\,1698241696683,1698241696683,2458,2458,3798,buq,qns-item-noham,92,353583,0.0-1.0-0.91
<b>People?s brains turn off when they talk about politics.,Highly disagree,93/150,Highly agree,4,1698241698025,1698241700145,\Highly agree\,\Highly agree\,\4\,1698241699735,1698241699735,1710,1710,2120,buq,qns-item-noham,93,355704,0.0-1.0-0.92
<b>People who are wrong are usually just ignoring the obvious.,Highly disagree,94/150,Highly disagree,1,1698241700148,1698241702933,\Highly agree\,\Highly disagree\,\4\,1698241701767,1698241702490,1619,2342,2785,buq,qns-item-noham,94,358493,0.0-1.0-0.93
"<b>The world isn?t that complicated, but it?s still hard to figure out how it works.",Highly disagree,95/150,Somewhat agree,3,1698241702935,1698241706352,\Highly agree\,\Somewhat agree\,\4\,1698241704945,1698241706032,2010,3097,3417,buq,qns-item-noham,95,361911,0.0-1.0-0.94
"<b>When forming my views on people, I rely more on what they are like now rather than rely on my past experience with them.",Highly disagree,96/150,Somewhat disagree,2,1698241706353,1698241711776,\Somewhat agree\,\Somewhat disagree\,\3\,1698241710449,1698241711191,4096,4838,5423,buq,qns-item-noham,96,367335,0.0-1.0-0.95
"<b>When people contradict my beliefs, I usually know about their evidence already.",Highly disagree,97/150,Somewhat agree,3,1698241711777,1698241715889,\Highly agree\,\Somewhat agree\,\4\,1698241715007,1698241715464,3230,3687,4112,buq,qns-item-noham,97,371448,0.0-1.0-0.96
<b>Being wrong is a matter of degree.,Highly disagree,98/150,Somewhat agree,3,1698241715893,1698241718159,\Somewhat agree\,\Somewhat agree\,\3\,1698241717691,1698241717691,1798,1798,2266,buq,qns-item-noham,98,373718,0.0-1.0-0.97
<b>Figuring out what?s true and what?s false mainly requires a strong moral compass.,Highly disagree,99/150,Highly disagree,1,1698241718161,1698241722312,\Somewhat disagree\,\Highly disagree\,\2\,1698241720431,1698241721950,2270,3789,4151,buq,qns-item-noham,99,377871,0.0-1.0-0.98
<b>Most of the beliefs people have are at least somewhat understandable.,Highly disagree,100/150,Highly agree,4,1698241722313,1698241726878,\Highly agree\,\Highly agree\,\4\,1698241724485,1698241724485,2172,2172,4565,buq,qns-item-noham,100,382437,0.0-1.0-0.99
"<b>Usually I?m wrong about simple things, not complicated ones.",Highly disagree,101/150,Somewhat agree,3,1698241726879,1698241731916,\Somewhat agree\,\Somewhat agree\,\3\,1698241729247,1698241731619,2368,4740,5037,buq,qns-item-noham,101,387475,0.0-1.0-0.100
<b>Getting all the information I want about important things is hard.,Highly disagree,102/150,Highly agree,4,1698241731917,1698241735610,\Highly agree\,\Highly agree\,\4\,1698241735005,1698241735005,3088,3088,3693,buq,qns-item-noham,102,391169,0.0-1.0-0.101
<b>Most false beliefs spread because people try to deceive one another.,Highly disagree,103/150,Somewhat disagree,2,1698241735612,1698241742232,\Highly agree\,\Somewhat disagree\,\4\,1698241737273,1698241741883,1661,6271,6620,buq,qns-item-noham,103,397791,0.0-1.0-0.102
<b>I can usually find something to agree with in most people?s beliefs.,Highly disagree,104/150,Highly agree,4,1698241742233,1698241744649,\Highly agree\,\Highly agree\,\4\,1698241744048,1698241744048,1815,1815,2416,buq,qns-item-noham,104,400208,0.0-1.0-0.103
<b>I only form my views of people once I get to know them very well.,Highly disagree,105/150,Highly agree,4,1698241744651,1698241748538,\Highly agree\,\Highly agree\,\4\,1698241747297,1698241747297,2646,2646,3887,buq,qns-item-noham,105,404097,0.0-1.0-0.104
"<b>When people tell me important things about the world, I usually believe them.",Highly disagree,106/150,Somewhat disagree,2,1698241748540,1698241753200,\Somewhat disagree\,\Somewhat disagree\,\2\,1698241751299,1698241752903,2759,4363,4660,buq,qns-item-noham,106,408759,0.0-1.0-0.105
"<b>If a friend does something that upsets me, it reminds me what an unpredictable place the world is.",Highly disagree,107/150,Somewhat disagree,2,1698241753202,1698241757406,\Somewhat agree\,\Somewhat disagree\,\3\,1698241756445,1698241756901,3243,3699,4204,buq,qns-item-noham,107,412965,0.0-1.0-0.106
<b>Having some conflicting beliefs is inevitable.,Highly disagree,108/150,Highly agree,4,1698241757407,1698241760159,\Highly agree\,\Highly agree\,\4\,1698241759101,1698241759101,1694,1694,2752,buq,qns-item-noham,108,415718,0.0-1.0-0.107
<b>People are wrong because they haven?t thought much about things.,Highly disagree,109/150,Highly agree,4,1698241760161,1698241763829,\Somewhat agree\,\Highly agree\,\3\,1698241761875,1698241763443,1714,3282,3668,buq,qns-item-noham,109,419388,0.0-1.0-0.108
<b>People tend to believe whatever is good for their friends.,Highly disagree,110/150,Highly agree,4,1698241763831,1698241765945,\Highly agree\,\Highly agree\,\4\,1698241765189,1698241765189,1358,1358,2114,buq,qns-item-noham,110,421504,0.0-1.0-0.109
"<b>When I talk about important topics, I try to make sure people know I?m not always right.",Highly disagree,111/150,Somewhat disagree,2,1698241765947,1698241769692,\Somewhat disagree\,\Somewhat disagree\,\2\,1698241769205,1698241769205,3258,3258,3745,buq,qns-item-noham,111,425251,0.0-1.0-0.110
<b>I used to be more certain my beliefs were true.,Highly disagree,112/150,Highly agree,4,1698241769694,1698241772397,\Highly agree\,\Highly agree\,\4\,1698241771705,1698241771705,2011,2011,2703,buq,qns-item-noham,112,427956,0.0-1.0-0.111
<b>It?s often pretty easy to figure out whether something is true based on who said it.,Highly disagree,113/150,Highly disagree,1,1698241772399,1698241776658,\Highly disagree\,\Highly disagree\,\1\,1698241774869,1698241774869,2470,2470,4259,buq,qns-item-noham,113,432217,0.0-1.0-0.112
<b>Having bad food in my favorite restaurant will make me think the restaurant is no longer good.,Highly disagree,114/150,Somewhat disagree,2,1698241776660,1698241780889,\Somewhat disagree\,\Somewhat disagree\,\2\,1698241779075,1698241779075,2415,2415,4229,buq,qns-item-noham,114,436448,0.0-1.0-0.113
<b>I transform into a hummingbird every day.,Highly disagree,115/150,Highly disagree,1,1698241780891,1698241783618,\Highly disagree\,\Highly disagree\,\1\,1698241782365,1698241782365,1474,1474,2727,buq,qns-item-noham,115,439177,0.0-1.0-0.114
"<b>Unfortunately, when people are wrong, it?s usually because they?re bad.",Highly disagree,116/150,Highly disagree,1,1698241783619,1698241786206,\Highly disagree\,\Highly disagree\,\1\,1698241785571,1698241785571,1952,1952,2587,buq,qns-item-noham,116,441765,0.0-1.0-0.115
<b>I think a lot about arguments against my views.,Highly disagree,117/150,Somewhat agree,3,1698241786208,1698241790371,\Somewhat disagree\,\Somewhat agree\,\2\,1698241789585,1698241789939,3377,3731,4163,buq,qns-item-noham,117,445930,0.0-1.0-0.116
<b>Details tend to matter a lot for knowing whether a policy is good.,Highly disagree,118/150,Highly agree,4,1698241790373,1698241792926,\Highly agree\,\Highly agree\,\4\,1698241792427,1698241792427,2054,2054,2553,buq,qns-item-noham,118,448485,0.0-1.0-0.117
<b>Personal experience is usually more important than facts and figures.,Highly disagree,119/150,Somewhat disagree,2,1698241792929,1698241795605,\Somewhat disagree\,\Somewhat disagree\,\2\,1698241795193,1698241795193,2264,2264,2676,buq,qns-item-noham,119,451164,0.0-1.0-0.118
<b>I?ve been tricked before about important matters.,Highly disagree,120/150,Highly agree,4,1698241795607,1698241797658,\Highly agree\,\Highly agree\,\4\,1698241797283,1698241797283,1676,1676,2051,buq,qns-item-noham,120,453217,0.0-1.0-0.119
<b>I would need to be totally wowed if I were to change my opinion of a restaurant I don?t like.,Highly disagree,121/150,Somewhat disagree,2,1698241797660,1698241804103,\Somewhat agree\,\Somewhat disagree\,\3\,1698241801895,1698241803037,4235,5377,6443,buq,qns-item-noham,121,459663,0.0-1.0-0.120
<b>I care a lot about politics.,Highly disagree,122/150,Somewhat agree,3,1698241804105,1698241806952,\Highly agree\,\Somewhat agree\,\4\,1698241805127,1698241806127,1022,2022,2847,buq,qns-item-noham,122,462511,0.0-1.0-0.121
<b>People with conflicting beliefs usually have some facts they disagree on.,Highly disagree,123/150,Somewhat agree,3,1698241806954,1698241812394,\Highly agree\,\Somewhat agree\,\4\,1698241808902,1698241811582,1948,4628,5440,buq,qns-item-noham,123,467953,0.0-1.0-0.122
<b>There are some topics I?ve been really wrong about.,Highly disagree,124/150,Highly agree,4,1698241812396,1698241814038,\Highly agree\,\Highly agree\,\4\,1698241813544,1698241813544,1148,1148,1642,buq,qns-item-noham,124,469597,0.0-1.0-0.123
<b>Most beliefs can be supported with at least some evidence.,Highly disagree,125/150,Highly agree,4,1698241814041,1698241816658,\Highly agree\,\Highly agree\,\4\,1698241815668,1698241815668,1627,1627,2617,buq,qns-item-noham,125,472217,0.0-1.0-0.124
<b>Other people make life out to be more complicated than it really is.,Highly disagree,126/150,Somewhat disagree,2,1698241816660,1698241819072,\Somewhat disagree\,\Somewhat disagree\,\2\,1698241818474,1698241818474,1814,1814,2412,buq,qns-item-noham,126,474631,0.0-1.0-0.125
"<b>My political views are being shaped continuously as I gather more information, rather than relying on what I?ve known to be true of my party in the past. ",Highly disagree,127/150,Somewhat agree,3,1698241819075,1698241822506,\Somewhat agree\,\Somewhat agree\,\3\,1698241821292,1698241821292,2217,2217,3431,buq,qns-item-noham,127,478065,0.0-1.0-0.126
<b>It?s pretty unusual for true things to seem false.,Highly disagree,128/150,Highly disagree,1,1698241822508,1698241826136,\Highly disagree\,\Highly disagree\,\1\,1698241825534,1698241825534,3026,3026,3628,buq,qns-item-noham,128,481695,0.0-1.0-0.127
"<b>Policy details don?t matter much, just the big picture.",Highly disagree,129/150,Highly disagree,1,1698241826139,1698241828720,\Highly disagree\,\Highly disagree\,\1\,1698241827816,1698241827816,1677,1677,2581,buq,qns-item-noham,129,484279,0.0-1.0-0.128
<b>I know my friends so well they can hardly ever surprise me.,Highly disagree,130/150,Somewhat disagree,2,1698241828722,1698241831010,\Somewhat disagree\,\Somewhat disagree\,\2\,1698241830478,1698241830478,1756,1756,2288,buq,qns-item-noham,130,486569,0.0-1.0-0.129
"<b>When I talk to people, I often think about why they have the beliefs they do.",Highly disagree,131/150,Somewhat agree,3,1698241831012,1698241834364,\Somewhat agree\,\Somewhat agree\,\3\,1698241833518,1698241833518,2506,2506,3352,buq,qns-item-noham,131,489923,0.0-1.0-0.130
<b>I do not often change my views on people.,Highly disagree,132/150,Somewhat disagree,2,1698241834366,1698241838930,\Somewhat disagree\,\Somewhat disagree\,\2\,1698241836948,1698241838312,2582,3946,4564,buq,qns-item-noham,132,494489,0.0-1.0-0.131
<b>I often wish I had more time to spend figuring out what?s true and what?s false in life.,Highly disagree,133/150,Highly agree,4,1698241838932,1698241841378,\Highly agree\,\Highly agree\,\4\,1698241840984,1698241840984,2052,2052,2446,buq,qns-item-noham,133,496937,0.0-1.0-0.132
<b>I?m more certain about my beliefs than I used to be.,Highly disagree,134/150,Somewhat agree,3,1698241841380,1698241844662,\Highly agree\,\Somewhat agree\,\4\,1698241842660,1698241843866,1280,2486,3282,buq,qns-item-noham,134,500221,0.0-1.0-0.133
"<b>Whenever I find out new information, I update my views on politics accordingly.",Highly disagree,135/150,Highly agree,4,1698241844664,1698241846852,\Highly agree\,\Highly agree\,\4\,1698241846388,1698241846388,1724,1724,2188,buq,qns-item-noham,135,502411,0.0-1.0-0.134
<b>People often tell falsehoods unintentionally.,Highly disagree,136/150,Highly agree,4,1698241846854,1698241848988,\Somewhat agree\,\Highly agree\,\3\,1698241848350,1698241848656,1496,1802,2134,buq,qns-item-noham,136,504547,0.0-1.0-0.135
<b>Most people don?t know much about most things.,Highly disagree,137/150,Highly agree,4,1698241848990,1698241851158,\Highly agree\,\Highly agree\,\4\,1698241850576,1698241850576,1586,1586,2168,buq,qns-item-noham,137,506717,0.0-1.0-0.136
"<b>If I find out something new about someone, I easily change my views about them.",Highly disagree,138/150,Somewhat agree,3,1698241851160,1698241855764,\Somewhat agree\,\Somewhat agree\,\3\,1698241853910,1698241855430,2750,4270,4604,buq,qns-item-noham,138,511323,0.0-1.0-0.137
<b>Having true beliefs is difficult.,Highly disagree,139/150,Highly agree,4,1698241855766,1698241859921,\Highly agree\,\Highly agree\,\4\,1698241857342,1698241857342,1576,1576,4155,buq,qns-item-noham,139,515480,0.0-1.0-0.138
<b>I don?t try new foods since I know I won?t like them.,Highly disagree,140/150,Somewhat agree,3,1698241859923,1698241863134,\Somewhat agree\,\Somewhat agree\,\3\,1698241861632,1698241861632,1709,1709,3211,buq,qns-item-noham,140,518693,0.0-1.0-0.139
<b>It?s easy to figure out what?s true or false based on who?s saying it.,Highly disagree,141/150,Highly disagree,1,1698241863136,1698241866488,\Highly disagree\,\Highly disagree\,\1\,1698241865974,1698241865974,2838,2838,3352,buq,qns-item-noham,141,522047,0.0-1.0-0.140
<b>False things have seemed true to me many times.,Highly disagree,142/150,Somewhat agree,3,1698241866490,1698241870217,\Highly agree\,\Somewhat agree\,\4\,1698241868811,1698241869719,2321,3229,3727,buq,qns-item-noham,142,525776,0.0-1.0-0.141
<b>It?s pretty easy to sort out what?s true and what?s false in life.,Highly disagree,143/150,Highly disagree,1,1698241870219,1698241872543,\Highly disagree\,\Highly disagree\,\1\,1698241872161,1698241872161,1942,1942,2324,buq,qns-item-noham,143,528103,0.0-1.0-0.142
<b>Knowing lots of statistics about something is usually important for understanding it.,Highly disagree,144/150,Somewhat agree,3,1698241872545,1698241875429,\Somewhat agree\,\Somewhat agree\,\3\,1698241874555,1698241874555,2010,2010,2884,buq,qns-item-noham,144,530988,0.0-1.0-0.143
<b>Other people trick each other a lot.,Highly disagree,145/150,Somewhat disagree,2,1698241875431,1698241877625,\Somewhat disagree\,\Somewhat disagree\,\2\,1698241876795,1698241876795,1364,1364,2194,buq,qns-item-noham,145,533184,0.0-1.0-0.144
<b>I would need to learn a lot about a person for my opinion of them to be swayed.,Highly disagree,146/150,Somewhat disagree,2,1698241877628,1698241882245,\Somewhat disagree\,\Somewhat disagree\,\2\,1698241880743,1698241881913,3115,4285,4617,buq,qns-item-noham,146,537804,0.0-1.0-0.145
<b>People can?t usually trick me when it comes to topics I care about.,Highly disagree,147/150,Somewhat agree,3,1698241882247,1698241884837,\Somewhat agree\,\Somewhat agree\,\3\,1698241884315,1698241884315,2068,2068,2590,buq,qns-item-noham,147,540396,0.0-1.0-0.146
<b>I do not often change my views on food.,Highly disagree,148/150,Somewhat agree,3,1698241884839,1698241887339,\Somewhat disagree\,\Somewhat agree\,\2\,1698241886263,1698241886733,1424,1894,2500,buq,qns-item-noham,148,542899,0.0-1.0-0.147
<b>Specific policies are often very important to me.,Highly disagree,149/150,Somewhat agree,3,1698241887341,1698241889683,\Somewhat agree\,\Somewhat agree\,\3\,1698241889209,1698241889209,1868,1868,2342,buq,qns-item-noham,149,545242,0.0-1.0-0.148
<b>Most people are woefully under-informed.,Highly disagree,150/150,Highly agree,4,1698241889685,1698241891419,\Highly agree\,\Highly agree\,\4\,1698241890897,1698241890897,1212,1212,1734,buq,qns-item-noham,150,546978,0.0-1.0-0.149
