Question,qns_options,quest_num,answer,answer_num,question_load_timestamp,next_btn_timestamp,text_selected,final_text_selected,option_num_selected,preview_timestamps,final_text_selected_time_stamp,rt_first_option_click,rt_final_option_click,rt_submit_click,questionnaire,trial_type,trial_index,time_elapsed,internal_node_id
<b>Considering other people?s perspectives can help us figure out what?s true or false.,Highly disagree,1/150,Somewhat agree,3,1698242093393,1698242116208,\Somewhat agree\,\Somewhat agree\,\3\,1698242109216,1698242109216,15823,15823,22815,buq,qns-item-noham,1,40057,0.0-1.0-0.0
<b>Knowing what?s true and knowing what to do about it are usually basically the same.,Highly disagree,2/150,Somewhat disagree,2,1698242116210,1698242129927,\Somewhat disagree\,\Somewhat disagree\,\2\,1698242128975,1698242128975,12765,12765,13717,buq,qns-item-noham,2,53776,0.0-1.0-0.1
<b>Most people just believe whatever is convenient for them.,Highly disagree,3/150,Somewhat disagree,2,1698242129933,1698242137775,\Somewhat disagree\,\Somewhat disagree\,\2\,1698242136615,1698242136615,6682,6682,7842,buq,qns-item-noham,3,61624,0.0-1.0-0.2
<b>Even people who are wrong about most things can be right sometimes.,Highly disagree,4/150,Highly agree,4,1698242137777,1698242144455,\Highly agree\,\Highly agree\,\4\,1698242143087,1698242143087,5310,5310,6678,buq,qns-item-noham,4,68304,0.0-1.0-0.3
"<b>If the political party I support does something that upsets me, then the party may have changed, and I need to re-evaluate my support.",Highly disagree,5/150,Somewhat disagree,2,1698242144457,1698242158647,\Somewhat disagree\,\Somewhat disagree\,\2\,1698242157575,1698242157575,13118,13118,14190,buq,qns-item-noham,5,82496,0.0-1.0-0.4
"<b>When people disagree, one side is usually completely right.",Highly disagree,6/150,Highly disagree,1,1698242158650,1698242166479,\Highly disagree\,\Highly disagree\,\1\,1698242164863,1698242164863,6213,6213,7829,buq,qns-item-noham,6,90328,0.0-1.0-0.5
<b>People have lots of false beliefs.,Highly disagree,7/150,Somewhat agree,3,1698242166481,1698242179807,\Somewhat agree\,\Somewhat agree\,\3\,1698242175280,1698242175280,8799,8799,13326,buq,qns-item-noham,7,103657,0.0-1.0-0.6
<b>Having some big beliefs helps me sort out minor ones.,Highly disagree,8/150,Highly disagree,1,1698242179810,1698242186623,\Highly disagree\,\Highly disagree\,\1\,1698242185487,1698242185487,5677,5677,6813,buq,qns-item-noham,8,110472,0.0-1.0-0.7
<b>Political questions are usually pretty complicated.,Highly disagree,9/150,Somewhat disagree,2,1698242186626,1698242197839,\Somewhat disagree\,\Somewhat disagree\,\2\,1698242196719,1698242196719,10093,10093,11213,buq,qns-item-noham,9,121688,0.0-1.0-0.8
<b>Figuring out what?s important in life requires learning a lot of facts.,Highly disagree,10/150,Somewhat disagree,2,1698242197841,1698242205543,\Somewhat disagree\,\Somewhat disagree\,\2\,1698242203871,1698242203871,6030,6030,7702,buq,qns-item-noham,10,129392,0.0-1.0-0.9
<b>It is difficult for me to remember the last time I was surprised by politics.,Highly disagree,11/150,Somewhat disagree,2,1698242205545,1698242210711,\Somewhat disagree\,\Somewhat disagree\,\2\,1698242210071,1698242210071,4526,4526,5166,buq,qns-item-noham,11,134560,0.0-1.0-0.10
<b>People?s false beliefs are understandable.,Highly disagree,12/150,Somewhat agree,3,1698242210713,1698242214519,\Somewhat agree\,\Somewhat agree\,\3\,1698242213479,1698242213479,2766,2766,3806,buq,qns-item-noham,12,138368,0.0-1.0-0.11
<b>I spend a lot of time trying to be informed about politics.,Highly disagree,13/150,Highly disagree,1,1698242214521,1698242221543,\Highly disagree\,\Highly disagree\,\1\,1698242220127,1698242220127,5606,5606,7022,buq,qns-item-noham,13,145392,0.0-1.0-0.12
<b>I think a lot about whether my beliefs are right.,Highly disagree,14/150,Somewhat agree,3,1698242221545,1698242226143,\Somewhat agree\,\Somewhat agree\,\3\,1698242225655,1698242225655,4110,4110,4598,buq,qns-item-noham,14,149992,0.0-1.0-0.13
<b>Statistics can be pretty misleading sometimes.,Highly disagree,15/150,Highly agree,4,1698242226145,1698242231055,\Highly agree\,\Highly agree\,\4\,1698242230335,1698242230335,4190,4190,4910,buq,qns-item-noham,15,154904,0.0-1.0-0.14
<b>Figuring out what?s true and what?s false takes a lot of time and effort.,Highly disagree,16/150,Somewhat agree,3,1698242231057,1698242237815,\Somewhat agree\,\Somewhat agree\,\3\,1698242237255,1698242237255,6198,6198,6758,buq,qns-item-noham,16,161664,0.0-1.0-0.15
"<b>If a friend does something bad to me, it was likely an error on their part.",Highly disagree,17/150,Somewhat disagree,2,1698242237817,1698242244271,\Somewhat disagree\,\Somewhat disagree\,\2\,1698242243343,1698242243343,5526,5526,6454,buq,qns-item-noham,17,168120,0.0-1.0-0.16
<b>I have lots of beliefs that I?m only sort of sure about.,Highly disagree,18/150,Somewhat disagree,2,1698242244273,1698242266358,\Somewhat disagree\,\Somewhat disagree\,\2\,1698242265422,1698242265422,21149,21149,22085,buq,qns-item-noham,18,190207,0.0-1.0-0.17
"<b>If I go to my favorite restaurant and the food is surprisingly bad, it reminds me there are many disappointments in life.",Highly disagree,19/150,Highly disagree,1,1698242266360,1698242272710,\Highly disagree\,\Highly disagree\,\1\,1698242271694,1698242271694,5334,5334,6350,buq,qns-item-noham,19,196559,0.0-1.0-0.18
<b>Sometimes my beliefs are inconvenient for me.,Highly disagree,20/150,Somewhat disagree,2,1698242272712,1698242278406,\Somewhat disagree\,\Somewhat disagree\,\2\,1698242277638,1698242277638,4926,4926,5694,buq,qns-item-noham,20,202255,0.0-1.0-0.19
<b>Paying attention to multiple news sources is important.,Highly disagree,21/150,Somewhat agree,3,1698242278408,1698242283246,\Somewhat agree\,\Somewhat agree\,\3\,1698242282094,1698242282094,3686,3686,4838,buq,qns-item-noham,21,207095,0.0-1.0-0.20
"<b>If you are paying attention, please select ?Somewhat agree?",Highly disagree,22/150,Somewhat agree,3,1698242283248,1698242286734,\Somewhat agree\,\Somewhat agree\,\3\,1698242285374,1698242285374,2126,2126,3486,buq,qns-item-noham,22,210583,0.0-1.0-0.21
"<b>When I talk to others, I often worry I?ll convince them of something I didn?t mean to.",Highly disagree,23/150,Highly disagree,1,1698242286737,1698242306326,\Highly disagree\,\Highly disagree\,\1\,1698242305598,1698242305598,18861,18861,19589,buq,qns-item-noham,23,230175,0.0-1.0-0.22
<b>I would need to learn something utterly shocking about my party in order to change my political views.,Highly disagree,24/150,Somewhat disagree,2,1698242306328,1698242314598,\Somewhat disagree\,\Somewhat disagree\,\2\,1698242313518,1698242313518,7190,7190,8270,buq,qns-item-noham,24,238447,0.0-1.0-0.23
"<b>When I have new experiences, I tend to think of them as unique.",Highly disagree,25/150,Somewhat disagree,2,1698242314600,1698242322806,\Somewhat disagree\,\Somewhat disagree\,\2\,1698242321646,1698242321646,7046,7046,8206,buq,qns-item-noham,25,246655,0.0-1.0-0.24
<b>Reading lots of things is important for understanding the world.,Highly disagree,26/150,Somewhat agree,3,1698242322808,1698242330022,\Somewhat agree\,\Somewhat agree\,\3\,1698242328950,1698242328950,6142,6142,7214,buq,qns-item-noham,26,253871,0.0-1.0-0.25
<b>The world is complicated.,Highly disagree,27/150,Somewhat agree,3,1698242330024,1698242348703,\Somewhat agree\,\Somewhat agree\,\3\,1698242347862,1698242347862,17838,17838,18679,buq,qns-item-noham,27,272552,0.0-1.0-0.26
<b>I change my mind about specific policies pretty frequently.,Highly disagree,28/150,Somewhat disagree,2,1698242348705,1698242372407,\Somewhat disagree\,\Somewhat disagree\,\2\,1698242371263,1698242371263,22558,22558,23702,buq,qns-item-noham,28,296256,0.0-1.0-0.27
"<b>If a politician in my political party supports something I disagree with, I give them the benefit of the doubt, as such issues often involve hidden complexities that aren?t obvious.   ",Highly disagree,29/150,Somewhat agree,3,1698242372409,1698242421015,\Somewhat agree\,\Somewhat agree\,\3\,1698242420327,1698242420327,47918,47918,48606,buq,qns-item-noham,29,344864,0.0-1.0-0.28
<b>People?s bad politics are usually motivated by hatefulness.,Highly disagree,30/150,Highly disagree,1,1698242421017,1698242456167,\Highly disagree\,\Highly disagree\,\1\,1698242455287,1698242455287,34270,34270,35150,buq,qns-item-noham,30,380016,0.0-1.0-0.29
"<b>Most new experiences are just like old ones, but a little bit different.",Highly disagree,31/150,Somewhat disagree,2,1698242456169,1698242471095,\Somewhat disagree\,\Somewhat disagree\,\2\,1698242470375,1698242470375,14206,14206,14926,buq,qns-item-noham,31,394944,0.0-1.0-0.30
<b>I think a lot about how to reconcile my beliefs with one another.,Highly disagree,32/150,Somewhat disagree,2,1698242471097,1698242496823,\Somewhat disagree\,\Somewhat disagree\,\2\,1698242494671,1698242494671,23574,23574,25726,buq,qns-item-noham,32,420672,0.0-1.0-0.31
<b>Personal experience rarely leads people astray.,Highly disagree,33/150,Somewhat disagree,2,1698242496825,1698242523079,\Somewhat disagree\,\Somewhat disagree\,\2\,1698242518199,1698242518199,21374,21374,26254,buq,qns-item-noham,33,446928,0.0-1.0-0.32
<b>I might have false beliefs about important topics.,Highly disagree,34/150,Somewhat agree,3,1698242523081,1698242528815,\Somewhat agree\,\Somewhat agree\,\3\,1698242527671,1698242527671,4590,4590,5734,buq,qns-item-noham,34,452664,0.0-1.0-0.33
"<b>If a good friend of mine does something unexpected that upsets me, I feel like I don?t know them anymore.",Highly disagree,35/150,Highly disagree,1,1698242528817,1698242533383,\Highly disagree\,\Highly disagree\,\1\,1698242532439,1698242532439,3622,3622,4566,buq,qns-item-noham,35,457232,0.0-1.0-0.34
<b>Other people?s beliefs are often incoherent.,Highly disagree,36/150,Somewhat disagree,2,1698242533385,1698242538215,\Somewhat disagree\,\Somewhat disagree\,\2\,1698242537567,1698242537567,4182,4182,4830,buq,qns-item-noham,36,462064,0.0-1.0-0.35
<b>It?s important to have friends who think about things differently than I do.,Highly disagree,37/150,Somewhat disagree,2,1698242538217,1698242543879,\Somewhat disagree\,\Somewhat disagree\,\2\,1698242543207,1698242543207,4990,4990,5662,buq,qns-item-noham,37,467728,0.0-1.0-0.36
"<b>Every now and then, a new experience will unsettle beliefs I?ve had for a while.",Highly disagree,38/150,Somewhat disagree,2,1698242543881,1698242552071,\Somewhat disagree\,\Somewhat disagree\,\2\,1698242551135,1698242551135,7254,7254,8190,buq,qns-item-noham,38,475920,0.0-1.0-0.37
<b>Some policies I agree with in principle are so bad I don?t support them. ,Highly disagree,39/150,Somewhat disagree,2,1698242552073,1698242570759,\Somewhat disagree\,\Somewhat disagree\,\2\,1698242570246,1698242570246,18173,18173,18686,buq,qns-item-noham,39,494608,0.0-1.0-0.38
<b>I?m pretty sure I?ve accidentally spread false information.,Highly disagree,40/150,Highly agree,4,1698242570760,1698242575615,\Somewhat agree\,\Highly agree\,\3\,1698242573598,1698242574719,2838,3959,4855,buq,qns-item-noham,40,499464,0.0-1.0-0.39
"<b>If I go to my favorite restaurant and the food is unexpectedly bad, then they have changed owners.",Highly disagree,41/150,Highly disagree,1,1698242575617,1698242582911,\Highly disagree\,\Highly disagree\,\1\,1698242581358,1698242581358,5741,5741,7294,buq,qns-item-noham,41,506760,0.0-1.0-0.40
"<b>In politics, it?s important to trust your friends and family.",Highly disagree,42/150,Highly disagree,1,1698242582913,1698242620927,\Highly disagree\,\Highly disagree\,\1\,1698242597407,1698242597407,14494,14494,38014,buq,qns-item-noham,42,544776,0.0-1.0-0.41
<b>It?s OK to have some conflicting beliefs.,Highly disagree,43/150,Somewhat agree,3,1698242620929,1698242625583,\Somewhat agree\,\Somewhat agree\,\3\,1698242624847,1698242624847,3918,3918,4654,buq,qns-item-noham,43,549432,0.0-1.0-0.42
<b>Sometimes the details of a matter seem to conflict with the big picture.,Highly disagree,44/150,Highly agree,4,1698242625585,1698242632863,\Highly agree\,\Highly agree\,\4\,1698242631863,1698242631863,6278,6278,7278,buq,qns-item-noham,44,556712,0.0-1.0-0.43
<b>Listening to people I disagree with makes my opinions better.,Highly disagree,45/150,Somewhat disagree,2,1698242632865,1698242641415,\Somewhat disagree\,\Somewhat disagree\,\2\,1698242640487,1698242640487,7622,7622,8550,buq,qns-item-noham,45,565264,0.0-1.0-0.44
<b>Policies that sound bad are sometimes fine when you find out about their details.,Highly disagree,46/150,Somewhat agree,3,1698242641417,1698242649351,\Somewhat agree\,\Somewhat agree\,\3\,1698242648703,1698242648703,7286,7286,7934,buq,qns-item-noham,46,573200,0.0-1.0-0.45
"<b>The world is always changing, so my beliefs are sometimes out-dated.",Highly disagree,47/150,Somewhat agree,3,1698242649353,1698242656007,\Somewhat agree\,\Somewhat agree\,\3\,1698242655327,1698242655327,5974,5974,6654,buq,qns-item-noham,47,579856,0.0-1.0-0.46
"<b>If I receive a bad meal at my favorite restaurant and the food is surprisingly bad, I do not think much of it, and assume the chef is just having an ?off? day.",Highly disagree,48/150,Highly agree,4,1698242656009,1698242664551,\Highly agree\,\Highly agree\,\4\,1698242663151,1698242663151,7142,7142,8542,buq,qns-item-noham,48,588400,0.0-1.0-0.47
"<b>False information is unavoidable, to some extent.",Highly disagree,49/150,Somewhat agree,3,1698242664553,1698242672735,\Somewhat agree\,\Somewhat agree\,\3\,1698242671871,1698242671871,7318,7318,8182,buq,qns-item-noham,49,596584,0.0-1.0-0.48
<b>My moral compass sometimes makes it harder to determine what?s true.,Highly disagree,50/150,Somewhat disagree,2,1698242672737,1698242677470,\Somewhat disagree\,\Somewhat disagree\,\2\,1698242676878,1698242676878,4141,4141,4733,buq,qns-item-noham,50,601320,0.0-1.0-0.49
"<b>When you disagree with someone, it?s important to listen to them carefully.",Highly disagree,51/150,Somewhat agree,3,1698242677472,1698242685575,\Somewhat agree\,\Somewhat agree\,\3\,1698242684838,1698242684838,7366,7366,8103,buq,qns-item-noham,51,609424,0.0-1.0-0.50
<b>Evidence pointing in the wrong direction isn?t really evidence at all.,Highly disagree,52/150,Somewhat agree,3,1698242685577,1698242716022,\Somewhat agree\,\Somewhat agree\,\3\,1698242715222,1698242715222,29645,29645,30445,buq,qns-item-noham,52,639871,0.0-1.0-0.51
"<b>If the political party I support messes up, it makes me think politics is rotten.",Highly disagree,53/150,Somewhat disagree,2,1698242716024,1698242722870,\Somewhat disagree\,\Somewhat disagree\,\2\,1698242722182,1698242722182,6158,6158,6846,buq,qns-item-noham,53,646719,0.0-1.0-0.52
<b>Lots of important topics can only really be understood by some groups of people.,Highly disagree,54/150,Somewhat disagree,2,1698242722872,1698242785175,\Somewhat disagree\,\Somewhat disagree\,\2\,1698242780311,1698242780311,57439,57439,62303,buq,qns-item-noham,54,709024,0.0-1.0-0.53
<b>Details almost always matter for being right about something.,Highly disagree,55/150,Highly agree,4,1698242785178,1698242793999,\Highly agree\,\Highly agree\,\4\,1698242793199,1698242793199,8021,8021,8821,buq,qns-item-noham,55,717848,0.0-1.0-0.54
"<b>The most important thing in politics is winning, not convincing people.",Highly disagree,56/150,Somewhat disagree,2,1698242794001,1698242803207,\Somewhat disagree\,\Somewhat disagree\,\2\,1698242802559,1698242802559,8558,8558,9206,buq,qns-item-noham,56,727056,0.0-1.0-0.55
<b>Having conflicting beliefs means you haven?t thought about them enough.,Highly disagree,57/150,Somewhat disagree,2,1698242803209,1698242810151,\Somewhat disagree\,\Somewhat disagree\,\2\,1698242809591,1698242809591,6382,6382,6942,buq,qns-item-noham,57,734000,0.0-1.0-0.56
<b>Other people have sometimes convinced me to change my mind on important topics.,Highly disagree,58/150,Somewhat agree,3,1698242810153,1698242815951,\Somewhat agree\,\Somewhat agree\,\3\,1698242815439,1698242815439,5286,5286,5798,buq,qns-item-noham,58,739800,0.0-1.0-0.57
<b>I do not often change my political opinions.,Highly disagree,59/150,Somewhat disagree,2,1698242815953,1698242824303,\Somewhat disagree\,\Somewhat disagree\,\2\,1698242823151,1698242823151,7198,7198,8350,buq,qns-item-noham,59,748152,0.0-1.0-0.58
<b>Thinking about how different things relate to one another is critical in life.,Highly disagree,60/150,Somewhat disagree,2,1698242824305,1698242848719,\Somewhat disagree\,\Somewhat disagree\,\2\,1698242848151,1698242848151,23846,23846,24414,buq,qns-item-noham,60,772568,0.0-1.0-0.59
<b>True beliefs can have unfortunate implications.,Highly disagree,61/150,Highly agree,4,1698242848721,1698242853511,\Highly agree\,\Highly agree\,\4\,1698242852927,1698242852927,4206,4206,4790,buq,qns-item-noham,61,777360,0.0-1.0-0.60
<b>It?s difficult to not have at least some conflicting beliefs.,Highly disagree,62/150,Somewhat agree,3,1698242853514,1698242859015,\Somewhat agree\,\Somewhat agree\,\3\,1698242858455,1698242858455,4941,4941,5501,buq,qns-item-noham,62,782864,0.0-1.0-0.61
"<b>When I learn new things, I think deeply about how my opinions should change.",Highly disagree,63/150,Somewhat disagree,2,1698242859017,1698242867463,\Somewhat disagree\,\Somewhat disagree\,\2\,1698242866479,1698242866479,7462,7462,8446,buq,qns-item-noham,63,791312,0.0-1.0-0.62
<b>I think a lot about how to interpret different sorts of evidence.,Highly disagree,64/150,Somewhat disagree,2,1698242867465,1698242875175,\Somewhat disagree\,\Somewhat disagree\,\2\,1698242874527,1698242874527,7062,7062,7710,buq,qns-item-noham,64,799024,0.0-1.0-0.63
<b>Politics is about thinking together and finding compromises.,Highly disagree,65/150,Somewhat disagree,2,1698242875177,1698242881087,\Somewhat disagree\,\Somewhat disagree\,\2\,1698242880119,1698242880119,4942,4942,5910,buq,qns-item-noham,65,804936,0.0-1.0-0.64
<b>Wishful thinking causes a lot of problems.,Highly disagree,66/150,Somewhat agree,3,1698242881089,1698242887343,\Somewhat agree\,\Somewhat agree\,\3\,1698242885695,1698242885695,4606,4606,6254,buq,qns-item-noham,66,811192,0.0-1.0-0.65
<b>I judge a food item only once I try it many times.,Highly disagree,67/150,Somewhat disagree,2,1698242887346,1698242903367,\Somewhat disagree\,\Somewhat disagree\,\2\,1698242900711,1698242900711,13365,13365,16021,buq,qns-item-noham,67,827216,0.0-1.0-0.66
"<b>When a person holds conflicting beliefs, they should really try to figure out what?s wrong.",Highly disagree,68/150,Somewhat disagree,2,1698242903369,1698242909863,\Somewhat disagree\,\Somewhat disagree\,\2\,1698242909207,1698242909207,5838,5838,6494,buq,qns-item-noham,68,833712,0.0-1.0-0.67
<b>Knowing what?s important in life is easy.,Highly disagree,69/150,Somewhat disagree,2,1698242909865,1698242916303,\Somewhat disagree\,\Somewhat disagree\,\2\,1698242914310,1698242914310,4445,4445,6438,buq,qns-item-noham,69,840152,0.0-1.0-0.68
<b>Lots of smart people disagree about basic political questions.,Highly disagree,70/150,Highly agree,4,1698242916305,1698242920830,\Highly agree\,\Highly agree\,\4\,1698242920094,1698242920094,3789,3789,4525,buq,qns-item-noham,70,844679,0.0-1.0-0.69
<b>I swim across the Atlantic Ocean to get to work every day.,Highly disagree,71/150,Highly disagree,1,1698242920832,1698242926774,\Highly disagree\,\Highly disagree\,\1\,1698242925598,1698242925598,4766,4766,5942,buq,qns-item-noham,71,850623,0.0-1.0-0.70
"<b>Sometimes, you just have to ignore evidence that you know is wrong.",Highly disagree,72/150,Highly agree,4,1698242926776,1698242936622,\Highly agree\,\Highly agree\,\4\,1698242935870,1698242935870,9094,9094,9846,buq,qns-item-noham,72,860471,0.0-1.0-0.71
<b>I have had some false beliefs.,Highly disagree,73/150,Somewhat agree,3,1698242936624,1698242939943,\Somewhat agree\,\Somewhat agree\,\3\,1698242939310,1698242939310,2686,2686,3319,buq,qns-item-noham,73,863792,0.0-1.0-0.72
"<b>If one friend does something that upsets me, I sometimes start to distrust people in general.",Highly disagree,74/150,Highly disagree,1,1698242939945,1698242946079,\Highly disagree\,\Highly disagree\,\1\,1698242944670,1698242944670,4725,4725,6134,buq,qns-item-noham,74,869928,0.0-1.0-0.73
<b>I easily apply what I learn in one situation to another.,Highly disagree,75/150,Somewhat agree,3,1698242946081,1698242959575,\Somewhat agree\,\Somewhat agree\,\3\,1698242954838,1698242954838,8757,8757,13494,buq,qns-item-noham,75,883424,0.0-1.0-0.74
<b>The facts about most important matters are easy to find.,Highly disagree,76/150,Somewhat disagree,2,1698242959577,1698242964614,\Somewhat disagree\,\Somewhat disagree\,\2\,1698242964070,1698242964070,4493,4493,5037,buq,qns-item-noham,76,888463,0.0-1.0-0.75
<b>It?s better to know what?s true than to know what?s moral.,Highly disagree,77/150,Somewhat agree,3,1698242964616,1698242970567,\Somewhat agree\,\Somewhat agree\,\3\,1698242969999,1698242969999,5383,5383,5951,buq,qns-item-noham,77,894416,0.0-1.0-0.76
<b>It?s good to be skeptical of people you agree with.,Highly disagree,78/150,Somewhat agree,3,1698242970569,1698242976880,\Somewhat agree\,\Somewhat agree\,\3\,1698242976319,1698242976319,5750,5750,6311,buq,qns-item-noham,78,900729,0.0-1.0-0.77
<b>Sometimes reasonable beliefs are wrong.,Highly disagree,79/150,Somewhat agree,3,1698242976883,1698242981879,\Somewhat agree\,\Somewhat agree\,\3\,1698242981208,1698242981208,4325,4325,4996,buq,qns-item-noham,79,905728,0.0-1.0-0.78
<b>I used to think the world was less complicated than I do now.,Highly disagree,80/150,Somewhat agree,3,1698242981882,1698242991583,\Somewhat agree\,\Somewhat agree\,\3\,1698242991127,1698242991127,9245,9245,9701,buq,qns-item-noham,80,915432,0.0-1.0-0.79
<b>People are usually completely right or completely wrong.,Highly disagree,81/150,Highly disagree,1,1698242991585,1698242995967,\Highly disagree\,\Highly disagree\,\1\,1698242995087,1698242995087,3502,3502,4382,buq,qns-item-noham,81,919816,0.0-1.0-0.80
<b>I spend a lot of time considering alternatives to my beliefs.,Highly disagree,82/150,Highly disagree,1,1698242995969,1698243000015,\Highly disagree\,\Highly disagree\,\1\,1698242999271,1698242999271,3302,3302,4046,buq,qns-item-noham,82,923864,0.0-1.0-0.81
"<b>Political enemies need to be defeated, not convinced.",Highly disagree,83/150,Somewhat agree,3,1698243000017,1698243010663,\Somewhat agree\,\Somewhat agree\,\3\,1698243009807,1698243009807,9790,9790,10646,buq,qns-item-noham,83,934513,0.0-1.0-0.82
"<b>When forming an opinion about a restaurant, I am more swayed by my  latest meal there than  previous meals I?ve had there.",Highly disagree,84/150,Somewhat disagree,2,1698243010666,1698243018448,\Somewhat disagree\,\Somewhat disagree\,\2\,1698243016751,1698243016751,6085,6085,7782,buq,qns-item-noham,84,942297,0.0-1.0-0.83
<b>I try to remain skeptical about most topics.,Highly disagree,85/150,Somewhat agree,3,1698243018450,1698243021519,\Somewhat agree\,\Somewhat agree\,\3\,1698243021095,1698243021095,2645,2645,3069,buq,qns-item-noham,85,945368,0.0-1.0-0.84
<b>Being wrong is usually obvious in retrospect.,Highly disagree,86/150,Somewhat agree,3,1698243021521,1698243027103,\Somewhat agree\,\Somewhat agree\,\3\,1698243026527,1698243026527,5006,5006,5582,buq,qns-item-noham,86,950952,0.0-1.0-0.85
<b>It can be hard to realize that my beliefs are in conflict.,Highly disagree,87/150,Highly disagree,1,1698243027105,1698243037175,\Somewhat disagree\,\Highly disagree\,\2\,1698243035550,1698243036574,8445,9469,10070,buq,qns-item-noham,87,961024,0.0-1.0-0.86
<b>I form my political views only after meticulously gathering historical and present information about their policies.,Highly disagree,88/150,Somewhat disagree,2,1698243037177,1698243044927,\Somewhat disagree\,\Somewhat disagree\,\2\,1698243044367,1698243044367,7190,7190,7750,buq,qns-item-noham,88,968776,0.0-1.0-0.87
<b>Skeptical people are usually just bad-tempered.,Highly disagree,89/150,Highly disagree,1,1698243044928,1698243049047,\Highly disagree\,\Highly disagree\,\1\,1698243047414,1698243047414,2486,2486,4119,buq,qns-item-noham,89,972896,0.0-1.0-0.88
<b>It is difficult for me to remember the last time I was surprised by politics.,Highly disagree,90/150,Somewhat disagree,2,1698243049049,1698243057959,\Somewhat disagree\,\Somewhat disagree\,\2\,1698243055446,1698243055446,6397,6397,8910,buq,qns-item-noham,90,981808,0.0-1.0-0.89
"<b>When I find out I?m wrong, I think a lot about my related beliefs.",Highly disagree,91/150,Somewhat disagree,2,1698243057961,1698243064983,\Somewhat disagree\,\Somewhat disagree\,\2\,1698243063462,1698243063462,5501,5501,7022,buq,qns-item-noham,91,988832,0.0-1.0-0.90
"<b>If the political party I support messes up, it makes me think you can?t trust anyone these days",Highly disagree,92/150,Somewhat disagree,2,1698243064985,1698243070047,\Somewhat disagree\,\Somewhat disagree\,\2\,1698243068222,1698243068222,3237,3237,5062,buq,qns-item-noham,92,993896,0.0-1.0-0.91
<b>People?s brains turn off when they talk about politics.,Highly disagree,93/150,Somewhat disagree,2,1698243070049,1698243074639,\Somewhat disagree\,\Somewhat disagree\,\2\,1698243073959,1698243073959,3910,3910,4590,buq,qns-item-noham,93,998488,0.0-1.0-0.92
<b>People who are wrong are usually just ignoring the obvious.,Highly disagree,94/150,Highly disagree,1,1698243074641,1698243079703,\Highly disagree\,\Highly disagree\,\1\,1698243078127,1698243078127,3486,3486,5062,buq,qns-item-noham,94,1003552,0.0-1.0-0.93
"<b>The world isn?t that complicated, but it?s still hard to figure out how it works.",Highly disagree,95/150,Somewhat disagree,2,1698243079705,1698243086119,\Somewhat disagree\,\Somewhat disagree\,\2\,1698243085375,1698243085375,5670,5670,6414,buq,qns-item-noham,95,1009968,0.0-1.0-0.94
"<b>When forming my views on people, I rely more on what they are like now rather than rely on my past experience with them.",Highly disagree,96/150,Somewhat agree,3,1698243086121,1698243095800,\Somewhat agree\,\Somewhat agree\,\3\,1698243095031,1698243095031,8910,8910,9679,buq,qns-item-noham,96,1019649,0.0-1.0-0.95
"<b>When people contradict my beliefs, I usually know about their evidence already.",Highly disagree,97/150,Somewhat disagree,2,1698243095802,1698243101295,\Somewhat disagree\,\Somewhat disagree\,\2\,1698243099663,1698243099663,3861,3861,5493,buq,qns-item-noham,97,1025144,0.0-1.0-0.96
<b>Being wrong is a matter of degree.,Highly disagree,98/150,Somewhat agree,3,1698243101297,1698243107175,\Somewhat agree\,\Somewhat agree\,\3\,1698243106647,1698243106647,5350,5350,5878,buq,qns-item-noham,98,1031024,0.0-1.0-0.97
<b>Figuring out what?s true and what?s false mainly requires a strong moral compass.,Highly disagree,99/150,Somewhat disagree,2,1698243107177,1698243111351,\Somewhat disagree\,\Somewhat disagree\,\2\,1698243110815,1698243110815,3638,3638,4174,buq,qns-item-noham,99,1035200,0.0-1.0-0.98
<b>Most of the beliefs people have are at least somewhat understandable.,Highly disagree,100/150,Somewhat disagree,2,1698243111353,1698243117239,\Somewhat disagree\,\Somewhat disagree\,\2\,1698243116535,1698243116535,5182,5182,5886,buq,qns-item-noham,100,1041088,0.0-1.0-0.99
"<b>Usually I?m wrong about simple things, not complicated ones.",Highly disagree,101/150,Somewhat disagree,2,1698243117242,1698243123439,\Somewhat disagree\,\Somewhat disagree\,\2\,1698243121311,1698243121311,4069,4069,6197,buq,qns-item-noham,101,1047288,0.0-1.0-0.100
<b>Getting all the information I want about important things is hard.,Highly disagree,102/150,Somewhat disagree,2,1698243123441,1698243131079,\Somewhat disagree\,\Somewhat disagree\,\2\,1698243129999,1698243129999,6558,6558,7638,buq,qns-item-noham,102,1054928,0.0-1.0-0.101
<b>Most false beliefs spread because people try to deceive one another.,Highly disagree,103/150,Somewhat disagree,2,1698243131081,1698243135935,\Somewhat disagree\,\Somewhat disagree\,\2\,1698243135367,1698243135367,4286,4286,4854,buq,qns-item-noham,103,1059784,0.0-1.0-0.102
<b>I can usually find something to agree with in most people?s beliefs.,Highly disagree,104/150,Somewhat agree,3,1698243135937,1698243144911,\Somewhat agree\,\Somewhat agree\,\3\,1698243144527,1698243144527,8590,8590,8974,buq,qns-item-noham,104,1068760,0.0-1.0-0.103
<b>I only form my views of people once I get to know them very well.,Highly disagree,105/150,Somewhat disagree,2,1698243144913,1698243149768,\Somewhat disagree\,\Somewhat disagree\,\2\,1698243148887,1698243148887,3974,3974,4855,buq,qns-item-noham,105,1073617,0.0-1.0-0.104
"<b>When people tell me important things about the world, I usually believe them.",Highly disagree,106/150,Somewhat disagree,2,1698243149769,1698243154975,\Somewhat disagree\,\Somewhat disagree\,\2\,1698243154374,1698243154374,4605,4605,5206,buq,qns-item-noham,106,1078824,0.0-1.0-0.105
"<b>If a friend does something that upsets me, it reminds me what an unpredictable place the world is.",Highly disagree,107/150,Highly disagree,1,1698243154977,1698243161950,\Highly disagree\,\Highly disagree\,\1\,1698243160910,1698243160910,5933,5933,6973,buq,qns-item-noham,107,1085799,0.0-1.0-0.106
<b>Having some conflicting beliefs is inevitable.,Highly disagree,108/150,Somewhat agree,3,1698243161952,1698243166119,\Somewhat agree\,\Somewhat agree\,\3\,1698243165175,1698243165175,3223,3223,4167,buq,qns-item-noham,108,1089968,0.0-1.0-0.107
<b>People are wrong because they haven?t thought much about things.,Highly disagree,109/150,Highly disagree,1,1698243166120,1698243170111,\Highly disagree\,\Highly disagree\,\1\,1698243169406,1698243169406,3286,3286,3991,buq,qns-item-noham,109,1093960,0.0-1.0-0.108
<b>People tend to believe whatever is good for their friends.,Highly disagree,110/150,Highly disagree,1,1698243170112,1698243174807,\Highly disagree\,\Highly disagree\,\1\,1698243173919,1698243173919,3807,3807,4695,buq,qns-item-noham,110,1098656,0.0-1.0-0.109
"<b>When I talk about important topics, I try to make sure people know I?m not always right.",Highly disagree,111/150,Somewhat disagree,2,1698243174809,1698243184127,\Somewhat disagree\,\Somewhat disagree\,\2\,1698243182990,1698243182990,8181,8181,9318,buq,qns-item-noham,111,1107976,0.0-1.0-0.110
<b>I used to be more certain my beliefs were true.,Highly disagree,112/150,Somewhat disagree,2,1698243184129,1698243189815,\Somewhat disagree\,\Somewhat disagree\,\2\,1698243189295,1698243189295,5166,5166,5686,buq,qns-item-noham,112,1113664,0.0-1.0-0.111
<b>It?s often pretty easy to figure out whether something is true based on who said it.,Highly disagree,113/150,Highly disagree,1,1698243189817,1698243195103,\Highly disagree\,\Highly disagree\,\1\,1698243194358,1698243194358,4541,4541,5286,buq,qns-item-noham,113,1118952,0.0-1.0-0.112
<b>Having bad food in my favorite restaurant will make me think the restaurant is no longer good.,Highly disagree,114/150,Highly disagree,1,1698243195104,1698243200319,\Highly disagree\,\Highly disagree\,\1\,1698243199422,1698243199422,4318,4318,5215,buq,qns-item-noham,114,1124168,0.0-1.0-0.113
<b>I transform into a hummingbird every day.,Highly disagree,115/150,Highly disagree,1,1698243200321,1698243204079,\Highly disagree\,\Highly disagree\,\1\,1698243203070,1698243203070,2749,2749,3758,buq,qns-item-noham,115,1127928,0.0-1.0-0.114
"<b>Unfortunately, when people are wrong, it?s usually because they?re bad.",Highly disagree,116/150,Highly disagree,1,1698243204081,1698243212558,\Highly disagree\,\Highly disagree\,\1\,1698243212006,1698243212006,7925,7925,8477,buq,qns-item-noham,116,1136407,0.0-1.0-0.115
<b>I think a lot about arguments against my views.,Highly disagree,117/150,Somewhat disagree,2,1698243212560,1698243220727,\Somewhat disagree\,\Somewhat disagree\,\2\,1698243220151,1698243220151,7591,7591,8167,buq,qns-item-noham,117,1144576,0.0-1.0-0.116
<b>Details tend to matter a lot for knowing whether a policy is good.,Highly disagree,118/150,Somewhat agree,3,1698243220729,1698243224199,\Somewhat agree\,\Somewhat agree\,\3\,1698243223566,1698243223566,2837,2837,3470,buq,qns-item-noham,118,1148048,0.0-1.0-0.117
<b>Personal experience is usually more important than facts and figures.,Highly disagree,119/150,Somewhat agree,3,1698243224201,1698243232711,\Somewhat agree\,\Somewhat agree\,\3\,1698243232142,1698243232142,7941,7941,8510,buq,qns-item-noham,119,1156560,0.0-1.0-0.118
<b>I?ve been tricked before about important matters.,Highly disagree,120/150,Somewhat agree,3,1698243232712,1698243235823,\Somewhat agree\,\Somewhat agree\,\3\,1698243235327,1698243235327,2615,2615,3111,buq,qns-item-noham,120,1159672,0.0-1.0-0.119
<b>I would need to be totally wowed if I were to change my opinion of a restaurant I don?t like.,Highly disagree,121/150,Highly disagree,1,1698243235825,1698243246855,\Highly disagree\,\Highly disagree\,\1\,1698243246199,1698243246199,10374,10374,11030,buq,qns-item-noham,121,1170704,0.0-1.0-0.120
<b>I care a lot about politics.,Highly disagree,122/150,Highly disagree,1,1698243246857,1698243254079,\Somewhat disagree\,\Highly disagree\,\2\,1698243249943,1698243253166,3086,6309,7222,buq,qns-item-noham,122,1177928,0.0-1.0-0.121
<b>People with conflicting beliefs usually have some facts they disagree on.,Highly disagree,123/150,Somewhat agree,3,1698243254081,1698243259127,\Somewhat agree\,\Somewhat agree\,\3\,1698243258159,1698243258159,4078,4078,5046,buq,qns-item-noham,123,1182976,0.0-1.0-0.122
<b>There are some topics I?ve been really wrong about.,Highly disagree,124/150,Highly agree,4,1698243259129,1698243264359,\Somewhat agree\,\Highly agree\,\3\,1698243262022,1698243263606,2893,4477,5230,buq,qns-item-noham,124,1188208,0.0-1.0-0.123
<b>Most beliefs can be supported with at least some evidence.,Highly disagree,125/150,Highly agree,4,1698243264361,1698243269855,\Highly agree\,\Highly agree\,\4\,1698243269231,1698243269231,4870,4870,5494,buq,qns-item-noham,125,1193704,0.0-1.0-0.124
<b>Other people make life out to be more complicated than it really is.,Highly disagree,126/150,Somewhat disagree,2,1698243269857,1698243274287,\Somewhat disagree\,\Somewhat disagree\,\2\,1698243273703,1698243273703,3846,3846,4430,buq,qns-item-noham,126,1198136,0.0-1.0-0.125
"<b>My political views are being shaped continuously as I gather more information, rather than relying on what I?ve known to be true of my party in the past. ",Highly disagree,127/150,Highly agree,4,1698243274289,1698243284399,\Somewhat agree\,\Highly agree\,\3\,1698243281327,1698243282598,7038,8309,10110,buq,qns-item-noham,127,1208248,0.0-1.0-0.126
<b>It?s pretty unusual for true things to seem false.,Highly disagree,128/150,Somewhat disagree,2,1698243284401,1698243291920,\Somewhat disagree\,\Somewhat disagree\,\2\,1698243291199,1698243291199,6798,6798,7519,buq,qns-item-noham,128,1215769,0.0-1.0-0.127
"<b>Policy details don?t matter much, just the big picture.",Highly disagree,129/150,Somewhat agree,3,1698243291922,1698243296671,\Somewhat agree\,\Somewhat agree\,\3\,1698243296103,1698243296103,4181,4181,4749,buq,qns-item-noham,129,1220520,0.0-1.0-0.128
<b>I know my friends so well they can hardly ever surprise me.,Highly disagree,130/150,Somewhat disagree,2,1698243296673,1698243300695,\Somewhat disagree\,\Somewhat disagree\,\2\,1698243299855,1698243299855,3182,3182,4022,buq,qns-item-noham,130,1224544,0.0-1.0-0.129
"<b>When I talk to people, I often think about why they have the beliefs they do.",Highly disagree,131/150,Somewhat disagree,2,1698243300697,1698243307103,\Somewhat disagree\,\Somewhat disagree\,\2\,1698243306375,1698243306375,5678,5678,6406,buq,qns-item-noham,131,1230952,0.0-1.0-0.130
<b>I do not often change my views on people.,Highly disagree,132/150,Highly disagree,1,1698243307105,1698243311271,\Highly disagree\,\Highly disagree\,\1\,1698243310335,1698243310335,3230,3230,4166,buq,qns-item-noham,132,1235120,0.0-1.0-0.131
<b>I often wish I had more time to spend figuring out what?s true and what?s false in life.,Highly disagree,133/150,Somewhat disagree,2,1698243311273,1698243316407,\Somewhat disagree\,\Somewhat disagree\,\2\,1698243315551,1698243315551,4278,4278,5134,buq,qns-item-noham,133,1240256,0.0-1.0-0.132
<b>I?m more certain about my beliefs than I used to be.,Highly disagree,134/150,Somewhat agree,3,1698243316409,1698243320199,\Somewhat agree\,\Somewhat agree\,\3\,1698243318791,1698243318791,2382,2382,3790,buq,qns-item-noham,134,1244048,0.0-1.0-0.133
"<b>Whenever I find out new information, I update my views on politics accordingly.",Highly disagree,135/150,Somewhat disagree,2,1698243320201,1698243325855,\Somewhat disagree\,\Somewhat disagree\,\2\,1698243325391,1698243325391,5190,5190,5654,buq,qns-item-noham,135,1249704,0.0-1.0-0.134
<b>People often tell falsehoods unintentionally.,Highly disagree,136/150,Somewhat agree,3,1698243325857,1698243331031,\Somewhat agree\,\Somewhat agree\,\3\,1698243330247,1698243330247,4390,4390,5174,buq,qns-item-noham,136,1254880,0.0-1.0-0.135
<b>Most people don?t know much about most things.,Highly disagree,137/150,Somewhat agree,3,1698243331033,1698243341015,\Somewhat agree\,\Somewhat agree\,\3\,1698243340439,1698243340439,9406,9406,9982,buq,qns-item-noham,137,1264864,0.0-1.0-0.136
"<b>If I find out something new about someone, I easily change my views about them.",Highly disagree,138/150,Highly disagree,1,1698243341017,1698243350191,\Highly disagree\,\Highly disagree\,\1\,1698243348647,1698243348647,7630,7630,9174,buq,qns-item-noham,138,1274040,0.0-1.0-0.137
<b>Having true beliefs is difficult.,Highly disagree,139/150,Somewhat disagree,2,1698243350193,1698243354624,\Somewhat disagree\,\Somewhat disagree\,\2\,1698243353447,1698243353447,3254,3254,4431,buq,qns-item-noham,139,1278473,0.0-1.0-0.138
<b>I don?t try new foods since I know I won?t like them.,Highly disagree,140/150,Highly disagree,1,1698243354626,1698243360927,\Highly disagree\,\Highly disagree\,\1\,1698243360239,1698243360239,5613,5613,6301,buq,qns-item-noham,140,1284776,0.0-1.0-0.139
<b>It?s easy to figure out what?s true or false based on who?s saying it.,Highly disagree,141/150,Highly disagree,1,1698243360930,1698243368167,\Highly disagree\,\Highly disagree\,\1\,1698243367239,1698243367239,6309,6309,7237,buq,qns-item-noham,141,1292016,0.0-1.0-0.140
<b>False things have seemed true to me many times.,Highly disagree,142/150,Somewhat agree,3,1698243368169,1698243372415,\Somewhat agree\,\Somewhat agree\,\3\,1698243371783,1698243371783,3614,3614,4246,buq,qns-item-noham,142,1296264,0.0-1.0-0.141
<b>It?s pretty easy to sort out what?s true and what?s false in life.,Highly disagree,143/150,Somewhat disagree,2,1698243372417,1698243377207,\Somewhat disagree\,\Somewhat disagree\,\2\,1698243375527,1698243375527,3110,3110,4790,buq,qns-item-noham,143,1301056,0.0-1.0-0.142
<b>Knowing lots of statistics about something is usually important for understanding it.,Highly disagree,144/150,Somewhat agree,3,1698243377209,1698243394176,\Somewhat agree\,\Somewhat agree\,\3\,1698243393503,1698243393503,16294,16294,16967,buq,qns-item-noham,144,1318025,0.0-1.0-0.143
<b>Other people trick each other a lot.,Highly disagree,145/150,Somewhat agree,3,1698243394177,1698243400982,\Somewhat agree\,\Somewhat agree\,\3\,1698243400367,1698243400367,6190,6190,6805,buq,qns-item-noham,145,1324831,0.0-1.0-0.144
<b>I would need to learn a lot about a person for my opinion of them to be swayed.,Highly disagree,146/150,Somewhat disagree,2,1698243400984,1698243429631,\Somewhat disagree\,\Somewhat disagree\,\2\,1698243429022,1698243429022,28038,28038,28647,buq,qns-item-noham,146,1353480,0.0-1.0-0.145
<b>People can?t usually trick me when it comes to topics I care about.,Highly disagree,147/150,Somewhat agree,3,1698243429632,1698243435791,\Somewhat agree\,\Somewhat agree\,\3\,1698243434678,1698243434967,5046,5335,6159,buq,qns-item-noham,147,1359640,0.0-1.0-0.146
<b>I do not often change my views on food.,Highly disagree,148/150,Highly disagree,1,1698243435793,1698243441903,\Highly disagree\,\Highly disagree\,\1\,1698243440022,1698243440022,4229,4229,6110,buq,qns-item-noham,148,1365752,0.0-1.0-0.147
<b>Specific policies are often very important to me.,Highly disagree,149/150,Somewhat disagree,2,1698243441905,1698243447039,\Somewhat disagree\,\Somewhat disagree\,\2\,1698243446078,1698243446078,4173,4173,5134,buq,qns-item-noham,149,1370888,0.0-1.0-0.148
<b>Most people are woefully under-informed.,Highly disagree,150/150,Somewhat agree,3,1698243447041,1698243452158,\Somewhat agree\,\Somewhat agree\,\3\,1698243450775,1698243450775,3734,3734,5117,buq,qns-item-noham,150,1376007,0.0-1.0-0.149
