Question,qns_options,quest_num,answer,answer_num,question_load_timestamp,next_btn_timestamp,text_selected,final_text_selected,option_num_selected,preview_timestamps,final_text_selected_time_stamp,rt_first_option_click,rt_final_option_click,rt_submit_click,questionnaire,trial_type,trial_index,time_elapsed,internal_node_id
<b>Considering other people?s perspectives can help us figure out what?s true or false.,Highly disagree,1/150,Somewhat agree,3,1698242037466,1698242045638,\Somewhat agree\,\Somewhat agree\,\3\,1698242044117,1698242044117,6651,6651,8172,buq,qns-item-noham,1,16233,0.0-1.0-0.0
<b>Knowing what?s true and knowing what to do about it are usually basically the same.,Highly disagree,2/150,Highly disagree,1,1698242045645,1698242052152,\Highly disagree\,\Highly disagree\,\1\,1698242051351,1698242051351,5706,5706,6507,buq,qns-item-noham,2,22746,0.0-1.0-0.1
<b>Most people just believe whatever is convenient for them.,Highly disagree,3/150,Somewhat disagree,2,1698242052156,1698242060122,\Somewhat disagree\,\Somewhat disagree\,\2\,1698242059186,1698242059186,7030,7030,7966,buq,qns-item-noham,3,30716,0.0-1.0-0.2
<b>Even people who are wrong about most things can be right sometimes.,Highly disagree,4/150,Highly agree,4,1698242060127,1698242064492,\Highly agree\,\Highly agree\,\4\,1698242063778,1698242063778,3651,3651,4365,buq,qns-item-noham,4,35086,0.0-1.0-0.3
"<b>If the political party I support does something that upsets me, then the party may have changed, and I need to re-evaluate my support.",Highly disagree,5/150,Somewhat disagree,2,1698242064495,1698242073092,\Somewhat disagree\,\Somewhat disagree\,\2\,1698242072391,1698242072391,7896,7896,8597,buq,qns-item-noham,5,43686,0.0-1.0-0.4
"<b>When people disagree, one side is usually completely right.",Highly disagree,6/150,Highly disagree,1,1698242073095,1698242077584,\Highly disagree\,\Highly disagree\,\1\,1698242076763,1698242076763,3668,3668,4489,buq,qns-item-noham,6,48178,0.0-1.0-0.5
<b>People have lots of false beliefs.,Highly disagree,7/150,Somewhat agree,3,1698242077587,1698242083448,\Somewhat agree\,\Somewhat agree\,\3\,1698242082853,1698242082853,5266,5266,5861,buq,qns-item-noham,7,54042,0.0-1.0-0.6
<b>Having some big beliefs helps me sort out minor ones.,Highly disagree,8/150,Somewhat agree,3,1698242083454,1698242089043,\Somewhat agree\,\Somewhat agree\,\3\,1698242088275,1698242088275,4821,4821,5589,buq,qns-item-noham,8,59637,0.0-1.0-0.7
<b>Political questions are usually pretty complicated.,Highly disagree,9/150,Somewhat agree,3,1698242089045,1698242093614,\Somewhat agree\,\Somewhat agree\,\3\,1698242092720,1698242092720,3675,3675,4569,buq,qns-item-noham,9,64208,0.0-1.0-0.8
<b>Figuring out what?s important in life requires learning a lot of facts.,Highly disagree,10/150,Somewhat disagree,2,1698242093617,1698242099734,\Somewhat disagree\,\Somewhat disagree\,\2\,1698242098843,1698242098843,5226,5226,6117,buq,qns-item-noham,10,70328,0.0-1.0-0.9
<b>It is difficult for me to remember the last time I was surprised by politics.,Highly disagree,11/150,Highly disagree,1,1698242099738,1698242105246,\Highly disagree\,\Highly disagree\,\1\,1698242104500,1698242104500,4762,4762,5508,buq,qns-item-noham,11,75840,0.0-1.0-0.10
<b>People?s false beliefs are understandable.,Highly disagree,12/150,Somewhat agree,3,1698242105248,1698242110228,\Somewhat agree\,\Somewhat agree\,\3\,1698242109325,1698242109325,4077,4077,4980,buq,qns-item-noham,12,80822,0.0-1.0-0.11
<b>I spend a lot of time trying to be informed about politics.,Highly disagree,13/150,Highly disagree,1,1698242110231,1698242113624,\Highly disagree\,\Highly disagree\,\1\,1698242112953,1698242112953,2722,2722,3393,buq,qns-item-noham,13,84218,0.0-1.0-0.12
<b>I think a lot about whether my beliefs are right.,Highly disagree,14/150,Somewhat agree,3,1698242113626,1698242117591,\Somewhat agree\,\Somewhat agree\,\3\,1698242117033,1698242117033,3407,3407,3965,buq,qns-item-noham,14,88185,0.0-1.0-0.13
<b>Statistics can be pretty misleading sometimes.,Highly disagree,15/150,Highly agree,4,1698242117596,1698242121354,\Highly agree\,\Highly agree\,\4\,1698242120555,1698242120555,2959,2959,3758,buq,qns-item-noham,15,91948,0.0-1.0-0.14
<b>Figuring out what?s true and what?s false takes a lot of time and effort.,Highly disagree,16/150,Somewhat agree,3,1698242121356,1698242128639,\Somewhat agree\,\Somewhat agree\,\3\,1698242126177,1698242126177,4821,4821,7283,buq,qns-item-noham,16,99233,0.0-1.0-0.15
"<b>If a friend does something bad to me, it was likely an error on their part.",Highly disagree,17/150,Highly agree,4,1698242128644,1698242133525,\Highly agree\,\Highly agree\,\4\,1698242132481,1698242132481,3837,3837,4881,buq,qns-item-noham,17,104119,0.0-1.0-0.16
<b>I have lots of beliefs that I?m only sort of sure about.,Highly disagree,18/150,Somewhat agree,3,1698242133530,1698242138772,\Somewhat agree\,\Somewhat agree\,\3\,1698242138009,1698242138009,4479,4479,5242,buq,qns-item-noham,18,109366,0.0-1.0-0.17
"<b>If I go to my favorite restaurant and the food is surprisingly bad, it reminds me there are many disappointments in life.",Highly disagree,19/150,Highly agree,4,1698242138777,1698242145970,\Highly agree\,\Highly agree\,\4\,1698242145142,1698242145142,6365,6365,7193,buq,qns-item-noham,19,116564,0.0-1.0-0.18
<b>Sometimes my beliefs are inconvenient for me.,Highly disagree,20/150,Somewhat agree,3,1698242145972,1698242149140,\Somewhat agree\,\Somewhat agree\,\3\,1698242148433,1698242148433,2461,2461,3168,buq,qns-item-noham,20,119735,0.0-1.0-0.19
<b>Paying attention to multiple news sources is important.,Highly disagree,21/150,Somewhat disagree,2,1698242149146,1698242155548,\Somewhat disagree\,\Somewhat disagree\,\2\,1698242154889,1698242154889,5743,5743,6402,buq,qns-item-noham,21,126142,0.0-1.0-0.20
"<b>If you are paying attention, please select ?Somewhat agree?",Highly disagree,22/150,Somewhat agree,3,1698242155554,1698242159385,\Somewhat agree\,\Somewhat agree\,\3\,1698242158637,1698242158637,3083,3083,3831,buq,qns-item-noham,22,129979,0.0-1.0-0.21
"<b>When I talk to others, I often worry I?ll convince them of something I didn?t mean to.",Highly disagree,23/150,Highly disagree,1,1698242159388,1698242164212,\Highly disagree\,\Highly disagree\,\1\,1698242163479,1698242163479,4091,4091,4824,buq,qns-item-noham,23,134806,0.0-1.0-0.22
<b>I would need to learn something utterly shocking about my party in order to change my political views.,Highly disagree,24/150,Highly disagree,1,1698242164219,1698242170648,\Highly disagree\,\Highly disagree\,\1\,1698242169867,1698242169867,5648,5648,6429,buq,qns-item-noham,24,141242,0.0-1.0-0.23
"<b>When I have new experiences, I tend to think of them as unique.",Highly disagree,25/150,Highly agree,4,1698242170653,1698242176391,\Highly agree\,\Highly agree\,\4\,1698242175190,1698242175190,4537,4537,5738,buq,qns-item-noham,25,146985,0.0-1.0-0.24
<b>Reading lots of things is important for understanding the world.,Highly disagree,26/150,Highly agree,4,1698242176397,1698242180840,\Highly agree\,\Highly agree\,\4\,1698242180042,1698242180042,3645,3645,4443,buq,qns-item-noham,26,151434,0.0-1.0-0.25
<b>The world is complicated.,Highly disagree,27/150,Highly agree,4,1698242180842,1698242183337,\Highly agree\,\Highly agree\,\4\,1698242182643,1698242182643,1801,1801,2495,buq,qns-item-noham,27,153932,0.0-1.0-0.26
<b>I change my mind about specific policies pretty frequently.,Highly disagree,28/150,Somewhat agree,3,1698242183344,1698242187185,\Somewhat agree\,\Somewhat agree\,\3\,1698242186631,1698242186631,3287,3287,3841,buq,qns-item-noham,28,157779,0.0-1.0-0.27
"<b>If a politician in my political party supports something I disagree with, I give them the benefit of the doubt, as such issues often involve hidden complexities that aren?t obvious.   ",Highly disagree,29/150,Somewhat agree,3,1698242187192,1698242196994,\Somewhat agree\,\Somewhat agree\,\3\,1698242196039,1698242196039,8847,8847,9802,buq,qns-item-noham,29,167588,0.0-1.0-0.28
<b>People?s bad politics are usually motivated by hatefulness.,Highly disagree,30/150,Somewhat disagree,2,1698242196997,1698242203502,\Somewhat disagree\,\Somewhat disagree\,\2\,1698242202639,1698242202639,5642,5642,6505,buq,qns-item-noham,30,174096,0.0-1.0-0.29
"<b>Most new experiences are just like old ones, but a little bit different.",Highly disagree,31/150,Highly disagree,1,1698242203504,1698242209211,\Highly disagree\,\Highly disagree\,\1\,1698242208519,1698242208519,5015,5015,5707,buq,qns-item-noham,31,179805,0.0-1.0-0.30
<b>I think a lot about how to reconcile my beliefs with one another.,Highly disagree,32/150,Somewhat agree,3,1698242209216,1698242213268,\Somewhat agree\,\Somewhat agree\,\3\,1698242212611,1698242212611,3395,3395,4052,buq,qns-item-noham,32,183862,0.0-1.0-0.31
<b>Personal experience rarely leads people astray.,Highly disagree,33/150,Highly disagree,1,1698242213273,1698242218313,\Highly disagree\,\Highly disagree\,\1\,1698242217609,1698242217609,4336,4336,5040,buq,qns-item-noham,33,188907,0.0-1.0-0.32
<b>I might have false beliefs about important topics.,Highly disagree,34/150,Somewhat agree,3,1698242218326,1698242221859,\Somewhat agree\,\Somewhat agree\,\3\,1698242221103,1698242221103,2777,2777,3533,buq,qns-item-noham,34,192453,0.0-1.0-0.33
"<b>If a good friend of mine does something unexpected that upsets me, I feel like I don?t know them anymore.",Highly disagree,35/150,Somewhat disagree,2,1698242221863,1698242228169,\Somewhat disagree\,\Somewhat disagree\,\2\,1698242227524,1698242227524,5661,5661,6306,buq,qns-item-noham,35,198763,0.0-1.0-0.34
<b>Other people?s beliefs are often incoherent.,Highly disagree,36/150,Somewhat disagree,2,1698242228176,1698242232230,\Somewhat disagree\,\Somewhat disagree\,\2\,1698242231531,1698242231531,3355,3355,4054,buq,qns-item-noham,36,202824,0.0-1.0-0.35
<b>It?s important to have friends who think about things differently than I do.,Highly disagree,37/150,Highly agree,4,1698242232235,1698242236166,\Highly agree\,\Highly agree\,\4\,1698242235295,1698242235295,3060,3060,3931,buq,qns-item-noham,37,206760,0.0-1.0-0.36
"<b>Every now and then, a new experience will unsettle beliefs I?ve had for a while.",Highly disagree,38/150,Highly agree,4,1698242236173,1698242240489,\Highly agree\,\Highly agree\,\4\,1698242239483,1698242239483,3310,3310,4316,buq,qns-item-noham,38,211083,0.0-1.0-0.37
<b>Some policies I agree with in principle are so bad I don?t support them. ,Highly disagree,39/150,Somewhat agree,3,1698242240492,1698242246796,\Somewhat agree\,\Somewhat agree\,\3\,1698242245941,1698242245941,5449,5449,6304,buq,qns-item-noham,39,217390,0.0-1.0-0.38
<b>I?m pretty sure I?ve accidentally spread false information.,Highly disagree,40/150,Somewhat agree,3,1698242246798,1698242250790,\Somewhat agree\,\Somewhat agree\,\3\,1698242250045,1698242250045,3247,3247,3992,buq,qns-item-noham,40,221385,0.0-1.0-0.39
"<b>If I go to my favorite restaurant and the food is unexpectedly bad, then they have changed owners.",Highly disagree,41/150,Highly disagree,1,1698242250798,1698242256874,\Highly disagree\,\Highly disagree\,\1\,1698242256202,1698242256202,5404,5404,6076,buq,qns-item-noham,41,227468,0.0-1.0-0.40
"<b>In politics, it?s important to trust your friends and family.",Highly disagree,42/150,Somewhat agree,3,1698242256877,1698242262494,\Somewhat agree\,\Somewhat agree\,\3\,1698242261565,1698242261565,4688,4688,5617,buq,qns-item-noham,42,233088,0.0-1.0-0.41
<b>It?s OK to have some conflicting beliefs.,Highly disagree,43/150,Highly agree,4,1698242262499,1698242265462,\Highly agree\,\Highly agree\,\4\,1698242264655,1698242264655,2156,2156,2963,buq,qns-item-noham,43,236056,0.0-1.0-0.42
<b>Sometimes the details of a matter seem to conflict with the big picture.,Highly disagree,44/150,Highly agree,4,1698242265464,1698242269384,\Highly agree\,\Highly agree\,\4\,1698242268471,1698242268471,3007,3007,3920,buq,qns-item-noham,44,239978,0.0-1.0-0.43
<b>Listening to people I disagree with makes my opinions better.,Highly disagree,45/150,Highly agree,4,1698242269387,1698242273038,\Highly agree\,\Highly agree\,\4\,1698242272312,1698242272312,2925,2925,3651,buq,qns-item-noham,45,243632,0.0-1.0-0.44
<b>Policies that sound bad are sometimes fine when you find out about their details.,Highly disagree,46/150,Somewhat agree,3,1698242273043,1698242277904,\Somewhat agree\,\Somewhat agree\,\3\,1698242277236,1698242277236,4193,4193,4861,buq,qns-item-noham,46,248498,0.0-1.0-0.45
"<b>The world is always changing, so my beliefs are sometimes out-dated.",Highly disagree,47/150,Highly agree,4,1698242277909,1698242281349,\Highly agree\,\Highly agree\,\4\,1698242280317,1698242280317,2408,2408,3440,buq,qns-item-noham,47,251943,0.0-1.0-0.46
"<b>If I receive a bad meal at my favorite restaurant and the food is surprisingly bad, I do not think much of it, and assume the chef is just having an ?off? day.",Highly disagree,48/150,Somewhat agree,3,1698242281354,1698242289428,\Somewhat agree\,\Somewhat agree\,\3\,1698242288711,1698242288711,7357,7357,8074,buq,qns-item-noham,48,260022,0.0-1.0-0.47
"<b>False information is unavoidable, to some extent.",Highly disagree,49/150,Somewhat agree,3,1698242289431,1698242293244,\Somewhat agree\,\Somewhat agree\,\3\,1698242292587,1698242292587,3156,3156,3813,buq,qns-item-noham,49,263838,0.0-1.0-0.48
<b>My moral compass sometimes makes it harder to determine what?s true.,Highly disagree,50/150,Highly agree,4,1698242293249,1698242298410,\Highly agree\,\Highly agree\,\4\,1698242297488,1698242297488,4239,4239,5161,buq,qns-item-noham,50,269004,0.0-1.0-0.49
"<b>When you disagree with someone, it?s important to listen to them carefully.",Highly disagree,51/150,Highly agree,4,1698242298415,1698242302430,\Highly agree\,\Highly agree\,\4\,1698242301543,1698242301543,3128,3128,4015,buq,qns-item-noham,51,273024,0.0-1.0-0.50
<b>Evidence pointing in the wrong direction isn?t really evidence at all.,Highly disagree,52/150,Somewhat disagree,2,1698242302434,1698242308559,\Somewhat disagree\,\Somewhat disagree\,\2\,1698242307653,1698242307653,5219,5219,6125,buq,qns-item-noham,52,279153,0.0-1.0-0.51
"<b>If the political party I support messes up, it makes me think politics is rotten.",Highly disagree,53/150,Somewhat disagree,2,1698242308568,1698242313794,\Somewhat disagree\,\Somewhat disagree\,\2\,1698242313175,1698242313175,4607,4607,5226,buq,qns-item-noham,53,284388,0.0-1.0-0.52
<b>Lots of important topics can only really be understood by some groups of people.,Highly disagree,54/150,Somewhat agree,3,1698242313796,1698242319938,\Somewhat agree\,\Somewhat agree\,\3\,1698242319205,1698242319205,5409,5409,6142,buq,qns-item-noham,54,290532,0.0-1.0-0.53
<b>Details almost always matter for being right about something.,Highly disagree,55/150,Highly disagree,1,1698242319940,1698242326114,\Highly disagree\,\Highly disagree\,\1\,1698242325425,1698242325425,5485,5485,6174,buq,qns-item-noham,55,296708,0.0-1.0-0.54
"<b>The most important thing in politics is winning, not convincing people.",Highly disagree,56/150,Highly disagree,1,1698242326117,1698242329618,\Highly disagree\,\Highly disagree\,\1\,1698242328863,1698242328863,2746,2746,3501,buq,qns-item-noham,56,300212,0.0-1.0-0.55
<b>Having conflicting beliefs means you haven?t thought about them enough.,Highly disagree,57/150,Highly disagree,1,1698242329620,1698242334062,\Highly disagree\,\Highly disagree\,\1\,1698242333430,1698242333430,3810,3810,4442,buq,qns-item-noham,57,304656,0.0-1.0-0.56
<b>Other people have sometimes convinced me to change my mind on important topics.,Highly disagree,58/150,Highly agree,4,1698242334067,1698242337706,\Highly agree\,\Highly agree\,\4\,1698242337027,1698242337027,2960,2960,3639,buq,qns-item-noham,58,308300,0.0-1.0-0.57
<b>I do not often change my political opinions.,Highly disagree,59/150,Somewhat disagree,2,1698242337710,1698242342474,\Somewhat disagree\,\Somewhat disagree\,\2\,1698242341838,1698242341838,4128,4128,4764,buq,qns-item-noham,59,313068,0.0-1.0-0.58
<b>Thinking about how different things relate to one another is critical in life.,Highly disagree,60/150,Highly agree,4,1698242342476,1698242346568,\Highly agree\,\Highly agree\,\4\,1698242345909,1698242345909,3433,3433,4092,buq,qns-item-noham,60,317162,0.0-1.0-0.59
<b>True beliefs can have unfortunate implications.,Highly disagree,61/150,Somewhat agree,3,1698242346574,1698242350128,\Somewhat agree\,\Somewhat agree\,\3\,1698242349429,1698242349429,2855,2855,3554,buq,qns-item-noham,61,320722,0.0-1.0-0.60
<b>It?s difficult to not have at least some conflicting beliefs.,Highly disagree,62/150,Highly agree,4,1698242350134,1698242355125,\Highly agree\,\Highly agree\,\4\,1698242354445,1698242354445,4311,4311,4991,buq,qns-item-noham,62,325719,0.0-1.0-0.61
"<b>When I learn new things, I think deeply about how my opinions should change.",Highly disagree,63/150,Highly agree,4,1698242355131,1698242359714,\Highly agree\,\Highly agree\,\4\,1698242358952,1698242358952,3821,3821,4583,buq,qns-item-noham,63,330308,0.0-1.0-0.62
<b>I think a lot about how to interpret different sorts of evidence.,Highly disagree,64/150,Highly agree,4,1698242359721,1698242366062,\Highly agree\,\Highly agree\,\4\,1698242365270,1698242365270,5549,5549,6341,buq,qns-item-noham,64,336656,0.0-1.0-0.63
<b>Politics is about thinking together and finding compromises.,Highly disagree,65/150,Highly agree,4,1698242366066,1698242371672,\Highly agree\,\Highly agree\,\4\,1698242370999,1698242370999,4933,4933,5606,buq,qns-item-noham,65,342266,0.0-1.0-0.64
<b>Wishful thinking causes a lot of problems.,Highly disagree,66/150,Somewhat disagree,2,1698242371675,1698242376094,\Somewhat disagree\,\Somewhat disagree\,\2\,1698242375243,1698242375243,3568,3568,4419,buq,qns-item-noham,66,346688,0.0-1.0-0.65
<b>I judge a food item only once I try it many times.,Highly disagree,67/150,Somewhat agree,3,1698242376096,1698242383835,\Highly agree\,\Somewhat agree\,\4\,1698242381153,1698242383134,5057,7038,7739,buq,qns-item-noham,67,354429,0.0-1.0-0.66
"<b>When a person holds conflicting beliefs, they should really try to figure out what?s wrong.",Highly disagree,68/150,Highly disagree,1,1698242383841,1698242388622,\Highly disagree\,\Highly disagree\,\1\,1698242387827,1698242387827,3986,3986,4781,buq,qns-item-noham,68,359216,0.0-1.0-0.67
<b>Knowing what?s important in life is easy.,Highly disagree,69/150,Highly disagree,1,1698242388624,1698242392140,\Highly disagree\,\Highly disagree\,\1\,1698242391455,1698242391455,2831,2831,3516,buq,qns-item-noham,69,362734,0.0-1.0-0.68
<b>Lots of smart people disagree about basic political questions.,Highly disagree,70/150,Highly agree,4,1698242392144,1698242396694,\Highly agree\,\Highly agree\,\4\,1698242395975,1698242395975,3831,3831,4550,buq,qns-item-noham,70,367288,0.0-1.0-0.69
<b>I swim across the Atlantic Ocean to get to work every day.,Highly disagree,71/150,Highly disagree,1,1698242396696,1698242402008,\Highly disagree\,\Highly disagree\,\1\,1698242401043,1698242401043,4347,4347,5312,buq,qns-item-noham,71,372602,0.0-1.0-0.70
"<b>Sometimes, you just have to ignore evidence that you know is wrong.",Highly disagree,72/150,Highly agree,4,1698242402012,1698242406615,\Highly agree\,\Highly agree\,\4\,1698242405773,1698242405773,3761,3761,4603,buq,qns-item-noham,72,377209,0.0-1.0-0.71
<b>I have had some false beliefs.,Highly disagree,73/150,Highly agree,4,1698242406619,1698242409401,\Highly agree\,\Highly agree\,\4\,1698242408635,1698242408635,2016,2016,2782,buq,qns-item-noham,73,379995,0.0-1.0-0.72
"<b>If one friend does something that upsets me, I sometimes start to distrust people in general.",Highly disagree,74/150,Somewhat disagree,2,1698242409403,1698242414981,\Somewhat disagree\,\Somewhat disagree\,\2\,1698242414035,1698242414035,4632,4632,5578,buq,qns-item-noham,74,385575,0.0-1.0-0.73
<b>I easily apply what I learn in one situation to another.,Highly disagree,75/150,Somewhat agree,3,1698242414984,1698242418638,\Somewhat agree\,\Somewhat agree\,\3\,1698242417965,1698242417965,2981,2981,3654,buq,qns-item-noham,75,389232,0.0-1.0-0.74
<b>The facts about most important matters are easy to find.,Highly disagree,76/150,Somewhat disagree,2,1698242418643,1698242422882,\Somewhat disagree\,\Somewhat disagree\,\2\,1698242422141,1698242422141,3498,3498,4239,buq,qns-item-noham,76,393476,0.0-1.0-0.75
<b>It?s better to know what?s true than to know what?s moral.,Highly disagree,77/150,Somewhat agree,3,1698242422886,1698242430594,\Somewhat agree\,\Somewhat agree\,\3\,1698242429885,1698242429885,6999,6999,7708,buq,qns-item-noham,77,401188,0.0-1.0-0.76
<b>It?s good to be skeptical of people you agree with.,Highly disagree,78/150,Somewhat agree,3,1698242430599,1698242434714,\Somewhat agree\,\Somewhat agree\,\3\,1698242434057,1698242434057,3458,3458,4115,buq,qns-item-noham,78,405308,0.0-1.0-0.77
<b>Sometimes reasonable beliefs are wrong.,Highly disagree,79/150,Highly agree,4,1698242434716,1698242438039,\Highly agree\,\Highly agree\,\4\,1698242437417,1698242437417,2701,2701,3323,buq,qns-item-noham,79,408633,0.0-1.0-0.78
<b>I used to think the world was less complicated than I do now.,Highly disagree,80/150,Highly agree,4,1698242438044,1698242441922,\Highly agree\,\Highly agree\,\4\,1698242441219,1698242441219,3175,3175,3878,buq,qns-item-noham,80,412516,0.0-1.0-0.79
<b>People are usually completely right or completely wrong.,Highly disagree,81/150,Highly disagree,1,1698242441927,1698242445234,\Highly disagree\,\Highly disagree\,\1\,1698242444493,1698242444493,2566,2566,3307,buq,qns-item-noham,81,415828,0.0-1.0-0.80
<b>I spend a lot of time considering alternatives to my beliefs.,Highly disagree,82/150,Somewhat agree,3,1698242445236,1698242449259,\Somewhat agree\,\Somewhat agree\,\3\,1698242448279,1698242448279,3043,3043,4023,buq,qns-item-noham,82,419853,0.0-1.0-0.81
"<b>Political enemies need to be defeated, not convinced.",Highly disagree,83/150,Highly disagree,1,1698242449263,1698242452916,\Highly disagree\,\Highly disagree\,\1\,1698242452025,1698242452025,2762,2762,3653,buq,qns-item-noham,83,423510,0.0-1.0-0.82
"<b>When forming an opinion about a restaurant, I am more swayed by my  latest meal there than  previous meals I?ve had there.",Highly disagree,84/150,Somewhat disagree,2,1698242452919,1698242460470,\Somewhat disagree\,\Somewhat disagree\,\2\,1698242459523,1698242459523,6604,6604,7551,buq,qns-item-noham,84,431064,0.0-1.0-0.83
<b>I try to remain skeptical about most topics.,Highly disagree,85/150,Somewhat agree,3,1698242460475,1698242464849,\Somewhat agree\,\Somewhat agree\,\3\,1698242463989,1698242463989,3514,3514,4374,buq,qns-item-noham,85,435443,0.0-1.0-0.84
<b>Being wrong is usually obvious in retrospect.,Highly disagree,86/150,Highly disagree,1,1698242464854,1698242469446,\Highly disagree\,\Highly disagree\,\1\,1698242468437,1698242468437,3583,3583,4592,buq,qns-item-noham,86,440040,0.0-1.0-0.85
<b>It can be hard to realize that my beliefs are in conflict.,Highly disagree,87/150,Somewhat agree,3,1698242469448,1698242473139,\Somewhat agree\,\Somewhat agree\,\3\,1698242472362,1698242472362,2914,2914,3691,buq,qns-item-noham,87,443733,0.0-1.0-0.86
<b>I form my political views only after meticulously gathering historical and present information about their policies.,Highly disagree,88/150,Somewhat disagree,2,1698242473144,1698242479835,\Somewhat disagree\,\Somewhat disagree\,\2\,1698242478810,1698242478810,5666,5666,6691,buq,qns-item-noham,88,450429,0.0-1.0-0.87
<b>Skeptical people are usually just bad-tempered.,Highly disagree,89/150,Highly disagree,1,1698242479840,1698242482988,\Highly disagree\,\Highly disagree\,\1\,1698242482207,1698242482207,2367,2367,3148,buq,qns-item-noham,89,453582,0.0-1.0-0.88
<b>It is difficult for me to remember the last time I was surprised by politics.,Highly disagree,90/150,Highly disagree,1,1698242482991,1698242486806,\Highly disagree\,\Highly disagree\,\1\,1698242486006,1698242486006,3015,3015,3815,buq,qns-item-noham,90,457401,0.0-1.0-0.89
"<b>When I find out I?m wrong, I think a lot about my related beliefs.",Highly disagree,91/150,Highly agree,4,1698242486813,1698242491555,\Highly agree\,\Highly agree\,\4\,1698242490790,1698242490790,3977,3977,4742,buq,qns-item-noham,91,462149,0.0-1.0-0.90
"<b>If the political party I support messes up, it makes me think you can?t trust anyone these days",Highly disagree,92/150,Highly disagree,1,1698242491557,1698242495734,\Highly disagree\,\Highly disagree\,\1\,1698242494963,1698242494963,3406,3406,4177,buq,qns-item-noham,92,466328,0.0-1.0-0.91
<b>People?s brains turn off when they talk about politics.,Highly disagree,93/150,Somewhat agree,3,1698242495739,1698242502080,\Somewhat agree\,\Somewhat agree\,\3\,1698242501173,1698242501173,5434,5434,6341,buq,qns-item-noham,93,472674,0.0-1.0-0.92
<b>People who are wrong are usually just ignoring the obvious.,Highly disagree,94/150,Highly disagree,1,1698242502087,1698242505146,\Highly disagree\,\Highly disagree\,\1\,1698242504457,1698242504457,2370,2370,3059,buq,qns-item-noham,94,475741,0.0-1.0-0.93
"<b>The world isn?t that complicated, but it?s still hard to figure out how it works.",Highly disagree,95/150,Somewhat disagree,2,1698242505151,1698242511794,\Somewhat disagree\,\Somewhat disagree\,\2\,1698242511110,1698242511110,5959,5959,6643,buq,qns-item-noham,95,482388,0.0-1.0-0.94
"<b>When forming my views on people, I rely more on what they are like now rather than rely on my past experience with them.",Highly disagree,96/150,Somewhat agree,3,1698242511799,1698242519078,\Somewhat agree\,\Somewhat agree\,\3\,1698242518416,1698242518416,6617,6617,7279,buq,qns-item-noham,96,489672,0.0-1.0-0.95
"<b>When people contradict my beliefs, I usually know about their evidence already.",Highly disagree,97/150,Somewhat disagree,2,1698242519083,1698242523851,\Somewhat disagree\,\Somewhat disagree\,\2\,1698242523203,1698242523203,4120,4120,4768,buq,qns-item-noham,97,494445,0.0-1.0-0.96
<b>Being wrong is a matter of degree.,Highly disagree,98/150,Somewhat agree,3,1698242523856,1698242528219,\Somewhat agree\,\Somewhat agree\,\3\,1698242527419,1698242527419,3563,3563,4363,buq,qns-item-noham,98,498813,0.0-1.0-0.97
<b>Figuring out what?s true and what?s false mainly requires a strong moral compass.,Highly disagree,99/150,Highly disagree,1,1698242528223,1698242532512,\Highly disagree\,\Highly disagree\,\1\,1698242531761,1698242531761,3538,3538,4289,buq,qns-item-noham,99,503107,0.0-1.0-0.98
<b>Most of the beliefs people have are at least somewhat understandable.,Highly disagree,100/150,Somewhat agree,3,1698242532518,1698242537150,\Somewhat agree\,\Somewhat agree\,\3\,1698242536277,1698242536277,3759,3759,4632,buq,qns-item-noham,100,507744,0.0-1.0-0.99
"<b>Usually I?m wrong about simple things, not complicated ones.",Highly disagree,101/150,Somewhat disagree,2,1698242537152,1698242541379,\Somewhat disagree\,\Somewhat disagree\,\2\,1698242540729,1698242540729,3577,3577,4227,buq,qns-item-noham,101,511973,0.0-1.0-0.100
<b>Getting all the information I want about important things is hard.,Highly disagree,102/150,Somewhat disagree,2,1698242541384,1698242546600,\Somewhat disagree\,\Somewhat disagree\,\2\,1698242545613,1698242545613,4229,4229,5216,buq,qns-item-noham,102,517194,0.0-1.0-0.101
<b>Most false beliefs spread because people try to deceive one another.,Highly disagree,103/150,Somewhat disagree,2,1698242546605,1698242551118,\Somewhat disagree\,\Somewhat disagree\,\2\,1698242550258,1698242550258,3653,3653,4513,buq,qns-item-noham,103,521712,0.0-1.0-0.102
<b>I can usually find something to agree with in most people?s beliefs.,Highly disagree,104/150,Highly agree,4,1698242551120,1698242555664,\Highly agree\,\Highly agree\,\4\,1698242554965,1698242554965,3845,3845,4544,buq,qns-item-noham,104,526258,0.0-1.0-0.103
<b>I only form my views of people once I get to know them very well.,Highly disagree,105/150,Somewhat agree,3,1698242555666,1698242563246,\Somewhat agree\,\Somewhat agree\,\3\,1698242562486,1698242562486,6820,6820,7580,buq,qns-item-noham,105,533840,0.0-1.0-0.104
"<b>When people tell me important things about the world, I usually believe them.",Highly disagree,106/150,Somewhat disagree,2,1698242563253,1698242568634,\Somewhat disagree\,\Somewhat disagree\,\2\,1698242567819,1698242567819,4566,4566,5381,buq,qns-item-noham,106,539228,0.0-1.0-0.105
"<b>If a friend does something that upsets me, it reminds me what an unpredictable place the world is.",Highly disagree,107/150,Highly agree,4,1698242568638,1698242574671,\Highly agree\,\Highly agree\,\4\,1698242573961,1698242573961,5323,5323,6033,buq,qns-item-noham,107,545265,0.0-1.0-0.106
<b>Having some conflicting beliefs is inevitable.,Highly disagree,108/150,Highly agree,4,1698242574678,1698242577756,\Highly agree\,\Highly agree\,\4\,1698242577051,1698242577051,2373,2373,3078,buq,qns-item-noham,108,548350,0.0-1.0-0.107
<b>People are wrong because they haven?t thought much about things.,Highly disagree,109/150,Highly disagree,1,1698242577758,1698242580792,\Highly disagree\,\Highly disagree\,\1\,1698242579997,1698242579997,2239,2239,3034,buq,qns-item-noham,109,551386,0.0-1.0-0.108
<b>People tend to believe whatever is good for their friends.,Highly disagree,110/150,Somewhat disagree,2,1698242580794,1698242585012,\Somewhat disagree\,\Somewhat disagree\,\2\,1698242584320,1698242584320,3526,3526,4218,buq,qns-item-noham,110,555606,0.0-1.0-0.109
"<b>When I talk about important topics, I try to make sure people know I?m not always right.",Highly disagree,111/150,Somewhat agree,3,1698242585017,1698242590856,\Somewhat agree\,\Somewhat agree\,\3\,1698242590089,1698242590089,5072,5072,5839,buq,qns-item-noham,111,561450,0.0-1.0-0.110
<b>I used to be more certain my beliefs were true.,Highly disagree,112/150,Somewhat agree,3,1698242590862,1698242595188,\Somewhat agree\,\Somewhat agree\,\3\,1698242594492,1698242594492,3630,3630,4326,buq,qns-item-noham,112,565782,0.0-1.0-0.111
<b>It?s often pretty easy to figure out whether something is true based on who said it.,Highly disagree,113/150,Highly disagree,1,1698242595197,1698242600204,\Highly disagree\,\Highly disagree\,\1\,1698242599449,1698242599449,4252,4252,5007,buq,qns-item-noham,113,570798,0.0-1.0-0.112
<b>Having bad food in my favorite restaurant will make me think the restaurant is no longer good.,Highly disagree,114/150,Highly disagree,1,1698242600211,1698242605319,\Highly disagree\,\Highly disagree\,\1\,1698242604505,1698242604505,4294,4294,5108,buq,qns-item-noham,114,575913,0.0-1.0-0.113
<b>I transform into a hummingbird every day.,Highly disagree,115/150,Highly disagree,1,1698242605323,1698242608424,\Highly disagree\,\Highly disagree\,\1\,1698242607687,1698242607687,2364,2364,3101,buq,qns-item-noham,115,579018,0.0-1.0-0.114
"<b>Unfortunately, when people are wrong, it?s usually because they?re bad.",Highly disagree,116/150,Highly disagree,1,1698242608428,1698242612022,\Highly disagree\,\Highly disagree\,\1\,1698242611269,1698242611269,2841,2841,3594,buq,qns-item-noham,116,582616,0.0-1.0-0.115
<b>I think a lot about arguments against my views.,Highly disagree,117/150,Somewhat agree,3,1698242612027,1698242617440,\Somewhat agree\,\Somewhat agree\,\3\,1698242616728,1698242616728,4701,4701,5413,buq,qns-item-noham,117,588034,0.0-1.0-0.116
<b>Details tend to matter a lot for knowing whether a policy is good.,Highly disagree,118/150,Highly disagree,1,1698242617445,1698242621470,\Highly disagree\,\Highly disagree\,\1\,1698242620849,1698242620849,3404,3404,4025,buq,qns-item-noham,118,592064,0.0-1.0-0.117
<b>Personal experience is usually more important than facts and figures.,Highly disagree,119/150,Highly agree,4,1698242621473,1698242626294,\Highly agree\,\Highly agree\,\4\,1698242625444,1698242625444,3971,3971,4821,buq,qns-item-noham,119,596888,0.0-1.0-0.118
<b>I?ve been tricked before about important matters.,Highly disagree,120/150,Highly agree,4,1698242626296,1698242628979,\Highly agree\,\Highly agree\,\4\,1698242628117,1698242628117,1821,1821,2683,buq,qns-item-noham,120,599573,0.0-1.0-0.119
<b>I would need to be totally wowed if I were to change my opinion of a restaurant I don?t like.,Highly disagree,121/150,Somewhat agree,3,1698242628986,1698242635559,\Somewhat agree\,\Somewhat agree\,\3\,1698242634939,1698242634939,5953,5953,6573,buq,qns-item-noham,121,606153,0.0-1.0-0.120
<b>I care a lot about politics.,Highly disagree,122/150,Highly disagree,1,1698242635569,1698242638294,\Highly disagree\,\Highly disagree\,\1\,1698242637443,1698242637443,1874,1874,2725,buq,qns-item-noham,122,608888,0.0-1.0-0.121
<b>People with conflicting beliefs usually have some facts they disagree on.,Highly disagree,123/150,Highly agree,4,1698242638301,1698242644766,\Highly agree\,\Highly agree\,\4\,1698242643891,1698242643891,5590,5590,6465,buq,qns-item-noham,123,615360,0.0-1.0-0.122
<b>There are some topics I?ve been really wrong about.,Highly disagree,124/150,Highly agree,4,1698242644769,1698242647884,\Highly agree\,\Highly agree\,\4\,1698242647149,1698242647149,2380,2380,3115,buq,qns-item-noham,124,618478,0.0-1.0-0.123
<b>Most beliefs can be supported with at least some evidence.,Highly disagree,125/150,Somewhat agree,3,1698242647886,1698242652448,\Somewhat agree\,\Somewhat agree\,\3\,1698242651723,1698242651723,3837,3837,4562,buq,qns-item-noham,125,623042,0.0-1.0-0.124
<b>Other people make life out to be more complicated than it really is.,Highly disagree,126/150,Somewhat disagree,2,1698242652450,1698242658117,\Highly disagree\,\Somewhat disagree\,\1\,1698242655968,1698242657334,3518,4884,5667,buq,qns-item-noham,126,628711,0.0-1.0-0.125
"<b>My political views are being shaped continuously as I gather more information, rather than relying on what I?ve known to be true of my party in the past. ",Highly disagree,127/150,Somewhat agree,3,1698242658122,1698242664662,\Somewhat agree\,\Somewhat agree\,\3\,1698242663909,1698242663909,5787,5787,6540,buq,qns-item-noham,127,635256,0.0-1.0-0.126
<b>It?s pretty unusual for true things to seem false.,Highly disagree,128/150,Somewhat disagree,2,1698242664664,1698242669579,\Somewhat disagree\,\Somewhat disagree\,\2\,1698242668751,1698242668751,4087,4087,4915,buq,qns-item-noham,128,640173,0.0-1.0-0.127
"<b>Policy details don?t matter much, just the big picture.",Highly disagree,129/150,Highly disagree,1,1698242669584,1698242673038,\Highly disagree\,\Highly disagree\,\1\,1698242672360,1698242672360,2776,2776,3454,buq,qns-item-noham,129,643632,0.0-1.0-0.128
<b>I know my friends so well they can hardly ever surprise me.,Highly disagree,130/150,Highly disagree,1,1698242673043,1698242676275,\Highly disagree\,\Highly disagree\,\1\,1698242675538,1698242675538,2495,2495,3232,buq,qns-item-noham,130,646869,0.0-1.0-0.129
"<b>When I talk to people, I often think about why they have the beliefs they do.",Highly disagree,131/150,Somewhat agree,3,1698242676283,1698242682161,\Somewhat agree\,\Somewhat agree\,\3\,1698242681269,1698242681269,4986,4986,5878,buq,qns-item-noham,131,652755,0.0-1.0-0.130
<b>I do not often change my views on people.,Highly disagree,132/150,Somewhat disagree,2,1698242682168,1698242686000,\Somewhat disagree\,\Somewhat disagree\,\2\,1698242685359,1698242685359,3191,3191,3832,buq,qns-item-noham,132,656594,0.0-1.0-0.131
<b>I often wish I had more time to spend figuring out what?s true and what?s false in life.,Highly disagree,133/150,Somewhat agree,3,1698242686005,1698242691614,\Somewhat agree\,\Somewhat agree\,\3\,1698242690782,1698242690782,4777,4777,5609,buq,qns-item-noham,133,662208,0.0-1.0-0.132
<b>I?m more certain about my beliefs than I used to be.,Highly disagree,134/150,Somewhat disagree,2,1698242691616,1698242695550,\Somewhat disagree\,\Somewhat disagree\,\2\,1698242694876,1698242694876,3260,3260,3934,buq,qns-item-noham,134,666144,0.0-1.0-0.133
"<b>Whenever I find out new information, I update my views on politics accordingly.",Highly disagree,135/150,Somewhat agree,3,1698242695555,1698242699965,\Somewhat agree\,\Somewhat agree\,\3\,1698242699195,1698242699195,3640,3640,4410,buq,qns-item-noham,135,670559,0.0-1.0-0.134
<b>People often tell falsehoods unintentionally.,Highly disagree,136/150,Highly agree,4,1698242699971,1698242705416,\Highly agree\,\Highly agree\,\4\,1698242704595,1698242704595,4624,4624,5445,buq,qns-item-noham,136,676011,0.0-1.0-0.135
<b>Most people don?t know much about most things.,Highly disagree,137/150,Somewhat disagree,2,1698242705422,1698242710263,\Somewhat disagree\,\Somewhat disagree\,\2\,1698242709601,1698242709601,4179,4179,4841,buq,qns-item-noham,137,680857,0.0-1.0-0.136
"<b>If I find out something new about someone, I easily change my views about them.",Highly disagree,138/150,Somewhat agree,3,1698242710269,1698242716896,\Somewhat agree\,\Somewhat agree\,\3\,1698242715587,1698242715587,5318,5318,6627,buq,qns-item-noham,138,687490,0.0-1.0-0.137
<b>Having true beliefs is difficult.,Highly disagree,139/150,Somewhat disagree,2,1698242716903,1698242722990,\Somewhat disagree\,\Somewhat disagree\,\2\,1698242722361,1698242722361,5458,5458,6087,buq,qns-item-noham,139,693584,0.0-1.0-0.138
<b>I don?t try new foods since I know I won?t like them.,Highly disagree,140/150,Highly disagree,1,1698242722997,1698242726969,\Highly disagree\,\Highly disagree\,\1\,1698242726165,1698242726165,3168,3168,3972,buq,qns-item-noham,140,697563,0.0-1.0-0.139
<b>It?s easy to figure out what?s true or false based on who?s saying it.,Highly disagree,141/150,Highly disagree,1,1698242726974,1698242730812,\Highly disagree\,\Highly disagree\,\1\,1698242729809,1698242729809,2835,2835,3838,buq,qns-item-noham,141,701406,0.0-1.0-0.140
<b>False things have seemed true to me many times.,Highly disagree,142/150,Highly agree,4,1698242730817,1698242734376,\Highly agree\,\Highly agree\,\4\,1698242733628,1698242733628,2811,2811,3559,buq,qns-item-noham,142,704970,0.0-1.0-0.141
<b>It?s pretty easy to sort out what?s true and what?s false in life.,Highly disagree,143/150,Somewhat disagree,2,1698242734384,1698242738718,\Somewhat disagree\,\Somewhat disagree\,\2\,1698242738067,1698242738067,3683,3683,4334,buq,qns-item-noham,143,709312,0.0-1.0-0.142
<b>Knowing lots of statistics about something is usually important for understanding it.,Highly disagree,144/150,Highly disagree,1,1698242738724,1698242747128,\Highly disagree\,\Highly disagree\,\1\,1698242746409,1698242746409,7685,7685,8404,buq,qns-item-noham,144,717722,0.0-1.0-0.143
<b>Other people trick each other a lot.,Highly disagree,145/150,Somewhat agree,3,1698242747130,1698242751252,\Somewhat agree\,\Somewhat agree\,\3\,1698242750331,1698242750331,3201,3201,4122,buq,qns-item-noham,145,721846,0.0-1.0-0.144
<b>I would need to learn a lot about a person for my opinion of them to be swayed.,Highly disagree,146/150,Somewhat disagree,2,1698242751257,1698242756014,\Somewhat disagree\,\Somewhat disagree\,\2\,1698242755073,1698242755073,3816,3816,4757,buq,qns-item-noham,146,726608,0.0-1.0-0.145
<b>People can?t usually trick me when it comes to topics I care about.,Highly disagree,147/150,Somewhat disagree,2,1698242756016,1698242760504,\Somewhat disagree\,\Somewhat disagree\,\2\,1698242759519,1698242759519,3503,3503,4488,buq,qns-item-noham,147,731098,0.0-1.0-0.146
<b>I do not often change my views on food.,Highly disagree,148/150,Somewhat disagree,2,1698242760509,1698242765013,\Somewhat disagree\,\Somewhat disagree\,\2\,1698242763936,1698242763936,3427,3427,4504,buq,qns-item-noham,148,735607,0.0-1.0-0.147
<b>Specific policies are often very important to me.,Highly disagree,149/150,Somewhat disagree,2,1698242765018,1698242771712,\Somewhat disagree\,\Somewhat disagree\,\2\,1698242770825,1698242770825,5807,5807,6694,buq,qns-item-noham,149,742306,0.0-1.0-0.148
<b>Most people are woefully under-informed.,Highly disagree,150/150,Somewhat agree,3,1698242771714,1698242791742,\Somewhat agree\,\Somewhat agree\,\3\,1698242791007,1698242791007,19293,19293,20028,buq,qns-item-noham,150,762336,0.0-1.0-0.149
