Question,qns_options,quest_num,answer,answer_num,question_load_timestamp,next_btn_timestamp,text_selected,final_text_selected,option_num_selected,preview_timestamps,final_text_selected_time_stamp,rt_first_option_click,rt_final_option_click,rt_submit_click,questionnaire,trial_type,trial_index,time_elapsed,internal_node_id
<b>Considering other people?s perspectives can help us figure out what?s true or false.,Highly disagree,1/150,Somewhat agree,3,1698242135669,1698242143365,\Somewhat agree\,\Somewhat agree\,\3\,1698242142422,1698242142422,6753,6753,7696,buq,qns-item-noham,1,11858,0.0-1.0-0.0
<b>Knowing what?s true and knowing what to do about it are usually basically the same.,Highly disagree,2/150,Somewhat agree,3,1698242143369,1698242148259,\Somewhat agree\,\Somewhat agree\,\3\,1698242147650,1698242147650,4281,4281,4890,buq,qns-item-noham,2,16752,0.0-1.0-0.1
<b>Most people just believe whatever is convenient for them.,Highly disagree,3/150,Highly agree,4,1698242148260,1698242150740,\Highly agree\,\Highly agree\,\4\,1698242150142,1698242150142,1882,1882,2480,buq,qns-item-noham,3,19233,0.0-1.0-0.2
<b>Even people who are wrong about most things can be right sometimes.,Highly disagree,4/150,Highly agree,4,1698242150742,1698242155195,\Highly agree\,\Highly agree\,\4\,1698242154687,1698242154687,3945,3945,4453,buq,qns-item-noham,4,23688,0.0-1.0-0.3
"<b>If the political party I support does something that upsets me, then the party may have changed, and I need to re-evaluate my support.",Highly disagree,5/150,Highly agree,4,1698242155197,1698242160371,\Somewhat agree\,\Highly agree\,\3\,1698242159397,1698242159785,4200,4588,5174,buq,qns-item-noham,5,28864,0.0-1.0-0.4
"<b>When people disagree, one side is usually completely right.",Highly disagree,6/150,Somewhat disagree,2,1698242160372,1698242163569,\Somewhat disagree\,\Somewhat disagree\,\2\,1698242162712,1698242162712,2340,2340,3197,buq,qns-item-noham,6,32062,0.0-1.0-0.5
<b>People have lots of false beliefs.,Highly disagree,7/150,Highly agree,4,1698242163570,1698242166377,\Highly agree\,\Highly agree\,\4\,1698242165615,1698242165615,2045,2045,2807,buq,qns-item-noham,7,34870,0.0-1.0-0.6
<b>Having some big beliefs helps me sort out minor ones.,Highly disagree,8/150,Somewhat disagree,2,1698242166378,1698242170856,\Somewhat disagree\,\Somewhat disagree\,\2\,1698242170073,1698242170073,3695,3695,4478,buq,qns-item-noham,8,39349,0.0-1.0-0.7
<b>Political questions are usually pretty complicated.,Highly disagree,9/150,Somewhat agree,3,1698242170857,1698242173385,\Somewhat agree\,\Somewhat agree\,\3\,1698242172932,1698242172932,2075,2075,2528,buq,qns-item-noham,9,41878,0.0-1.0-0.8
<b>Figuring out what?s important in life requires learning a lot of facts.,Highly disagree,10/150,Somewhat agree,3,1698242173386,1698242179795,\Somewhat agree\,\Somewhat agree\,\3\,1698242179260,1698242179260,5874,5874,6409,buq,qns-item-noham,10,48288,0.0-1.0-0.9
<b>It is difficult for me to remember the last time I was surprised by politics.,Highly disagree,11/150,Somewhat agree,3,1698242179797,1698242189216,\Somewhat agree\,\Somewhat agree\,\3\,1698242188785,1698242188785,8988,8988,9419,buq,qns-item-noham,11,57709,0.0-1.0-0.10
<b>People?s false beliefs are understandable.,Highly disagree,12/150,Somewhat disagree,2,1698242189218,1698242192478,\Somewhat disagree\,\Somewhat disagree\,\2\,1698242191637,1698242191637,2419,2419,3260,buq,qns-item-noham,12,60971,0.0-1.0-0.11
<b>I spend a lot of time trying to be informed about politics.,Highly disagree,13/150,Somewhat agree,3,1698242192479,1698242195233,\Somewhat agree\,\Somewhat agree\,\3\,1698242194837,1698242194837,2358,2358,2754,buq,qns-item-noham,13,63726,0.0-1.0-0.12
<b>I think a lot about whether my beliefs are right.,Highly disagree,14/150,Somewhat agree,3,1698242195235,1698242199194,\Somewhat agree\,\Somewhat agree\,\3\,1698242198707,1698242198707,3472,3472,3959,buq,qns-item-noham,14,67687,0.0-1.0-0.13
<b>Statistics can be pretty misleading sometimes.,Highly disagree,15/150,Highly agree,4,1698242199195,1698242203113,\Somewhat disagree\,\Highly agree\,\2\,1698242201176,1698242202194,1981,2999,3918,buq,qns-item-noham,15,71606,0.0-1.0-0.14
<b>Figuring out what?s true and what?s false takes a lot of time and effort.,Highly disagree,16/150,Somewhat agree,3,1698242203114,1698242208146,\Somewhat agree\,\Somewhat agree\,\3\,1698242205779,1698242205779,2665,2665,5032,buq,qns-item-noham,16,76639,0.0-1.0-0.15
"<b>If a friend does something bad to me, it was likely an error on their part.",Highly disagree,17/150,Somewhat agree,3,1698242208147,1698242215436,\Somewhat disagree\,\Somewhat agree\,\2\,1698242214211,1698242215003,6064,6856,7289,buq,qns-item-noham,17,83929,0.0-1.0-0.16
<b>I have lots of beliefs that I?m only sort of sure about.,Highly disagree,18/150,Somewhat agree,3,1698242215437,1698242218318,\Somewhat agree\,\Somewhat agree\,\3\,1698242217941,1698242217941,2504,2504,2881,buq,qns-item-noham,18,86811,0.0-1.0-0.17
"<b>If I go to my favorite restaurant and the food is surprisingly bad, it reminds me there are many disappointments in life.",Highly disagree,19/150,Somewhat disagree,2,1698242218319,1698242222292,\Somewhat disagree\,\Somewhat disagree\,\2\,1698242221767,1698242221767,3448,3448,3973,buq,qns-item-noham,19,90785,0.0-1.0-0.18
<b>Sometimes my beliefs are inconvenient for me.,Highly disagree,20/150,Highly agree,4,1698242222294,1698242224917,\Highly agree\,\Highly agree\,\4\,1698242224527,1698242224527,2233,2233,2623,buq,qns-item-noham,20,93410,0.0-1.0-0.19
<b>Paying attention to multiple news sources is important.,Highly disagree,21/150,Highly agree,4,1698242224918,1698242227977,\Highly agree\,\Highly agree\,\4\,1698242226816,1698242226816,1898,1898,3059,buq,qns-item-noham,21,96470,0.0-1.0-0.20
"<b>If you are paying attention, please select ?Somewhat agree?",Highly disagree,22/150,Somewhat agree,3,1698242227979,1698242229912,\Somewhat agree\,\Somewhat agree\,\3\,1698242229337,1698242229337,1358,1358,1933,buq,qns-item-noham,22,98405,0.0-1.0-0.21
"<b>When I talk to others, I often worry I?ll convince them of something I didn?t mean to.",Highly disagree,23/150,Somewhat disagree,2,1698242229913,1698242234347,\Somewhat disagree\,\Somewhat disagree\,\2\,1698242232911,1698242232911,2998,2998,4434,buq,qns-item-noham,23,102840,0.0-1.0-0.22
<b>I would need to learn something utterly shocking about my party in order to change my political views.,Highly disagree,24/150,Somewhat disagree,2,1698242234349,1698242239100,\Somewhat disagree\,\Somewhat disagree\,\2\,1698242238616,1698242238616,4267,4267,4751,buq,qns-item-noham,24,107593,0.0-1.0-0.23
"<b>When I have new experiences, I tend to think of them as unique.",Highly disagree,25/150,Somewhat disagree,2,1698242239101,1698242242377,\Somewhat disagree\,\Somewhat disagree\,\2\,1698242241964,1698242241964,2863,2863,3276,buq,qns-item-noham,25,110870,0.0-1.0-0.24
<b>Reading lots of things is important for understanding the world.,Highly disagree,26/150,Highly agree,4,1698242242378,1698242244679,\Highly agree\,\Highly agree\,\4\,1698242244170,1698242244170,1792,1792,2301,buq,qns-item-noham,26,113172,0.0-1.0-0.25
<b>The world is complicated.,Highly disagree,27/150,Highly agree,4,1698242244681,1698242246506,\Highly agree\,\Highly agree\,\4\,1698242245877,1698242245877,1196,1196,1825,buq,qns-item-noham,27,114999,0.0-1.0-0.26
<b>I change my mind about specific policies pretty frequently.,Highly disagree,28/150,Somewhat disagree,2,1698242246508,1698242249229,\Somewhat disagree\,\Somewhat disagree\,\2\,1698242248762,1698242248762,2254,2254,2721,buq,qns-item-noham,28,117722,0.0-1.0-0.27
"<b>If a politician in my political party supports something I disagree with, I give them the benefit of the doubt, as such issues often involve hidden complexities that aren?t obvious.   ",Highly disagree,29/150,Somewhat agree,3,1698242249231,1698242255498,\Somewhat agree\,\Somewhat agree\,\3\,1698242255039,1698242255039,5808,5808,6267,buq,qns-item-noham,29,123992,0.0-1.0-0.28
<b>People?s bad politics are usually motivated by hatefulness.,Highly disagree,30/150,Highly agree,4,1698242255500,1698242262811,\Highly agree\,\Highly agree\,\4\,1698242257513,1698242262400,2013,6900,7311,buq,qns-item-noham,30,131304,0.0-1.0-0.29
"<b>Most new experiences are just like old ones, but a little bit different.",Highly disagree,31/150,Somewhat disagree,2,1698242262812,1698242266069,\Somewhat disagree\,\Somewhat disagree\,\2\,1698242265636,1698242265636,2824,2824,3257,buq,qns-item-noham,31,134562,0.0-1.0-0.30
<b>I think a lot about how to reconcile my beliefs with one another.,Highly disagree,32/150,Somewhat disagree,2,1698242266071,1698242269790,\Somewhat disagree\,\Somewhat disagree\,\2\,1698242269255,1698242269255,3184,3184,3719,buq,qns-item-noham,32,138283,0.0-1.0-0.31
<b>Personal experience rarely leads people astray.,Highly disagree,33/150,Somewhat disagree,2,1698242269791,1698242272489,\Somewhat disagree\,\Somewhat disagree\,\2\,1698242271875,1698242271875,2084,2084,2698,buq,qns-item-noham,33,140982,0.0-1.0-0.32
<b>I might have false beliefs about important topics.,Highly disagree,34/150,Somewhat agree,3,1698242272491,1698242276417,\Somewhat agree\,\Somewhat agree\,\3\,1698242275892,1698242275892,3401,3401,3926,buq,qns-item-noham,34,144910,0.0-1.0-0.33
"<b>If a good friend of mine does something unexpected that upsets me, I feel like I don?t know them anymore.",Highly disagree,35/150,Somewhat disagree,2,1698242276418,1698242280454,\Somewhat disagree\,\Somewhat disagree\,\2\,1698242279969,1698242279969,3551,3551,4036,buq,qns-item-noham,35,148947,0.0-1.0-0.34
<b>Other people?s beliefs are often incoherent.,Highly disagree,36/150,Somewhat agree,3,1698242280456,1698242287708,\Somewhat disagree\,\Somewhat agree\,\2\,1698242285884,1698242287215,5428,6759,7252,buq,qns-item-noham,36,156201,0.0-1.0-0.35
<b>It?s important to have friends who think about things differently than I do.,Highly disagree,37/150,Somewhat agree,3,1698242287709,1698242292158,\Somewhat agree\,\Somewhat agree\,\3\,1698242291291,1698242291291,3582,3582,4449,buq,qns-item-noham,37,160651,0.0-1.0-0.36
"<b>Every now and then, a new experience will unsettle beliefs I?ve had for a while.",Highly disagree,38/150,Somewhat agree,3,1698242292160,1698242295532,\Somewhat agree\,\Somewhat agree\,\3\,1698242295055,1698242295055,2895,2895,3372,buq,qns-item-noham,38,164025,0.0-1.0-0.37
<b>Some policies I agree with in principle are so bad I don?t support them. ,Highly disagree,39/150,Somewhat agree,3,1698242295534,1698242310439,\Somewhat disagree\,\Somewhat agree\,\2\,1698242299834,1698242309976,4300,14442,14905,buq,qns-item-noham,39,178932,0.0-1.0-0.38
<b>I?m pretty sure I?ve accidentally spread false information.,Highly disagree,40/150,Highly disagree,1,1698242310440,1698242316953,\Highly disagree\,\Highly disagree\,\1\,1698242316432,1698242316432,5992,5992,6513,buq,qns-item-noham,40,185446,0.0-1.0-0.39
"<b>If I go to my favorite restaurant and the food is unexpectedly bad, then they have changed owners.",Highly disagree,41/150,Somewhat disagree,2,1698242316954,1698242323014,\Somewhat disagree\,\Somewhat disagree\,\2\,1698242322033,1698242322033,5079,5079,6060,buq,qns-item-noham,41,191507,0.0-1.0-0.40
"<b>In politics, it?s important to trust your friends and family.",Highly disagree,42/150,Somewhat disagree,2,1698242323016,1698242329140,\Somewhat disagree\,\Somewhat disagree\,\2\,1698242328545,1698242328545,5529,5529,6124,buq,qns-item-noham,42,197633,0.0-1.0-0.41
<b>It?s OK to have some conflicting beliefs.,Highly disagree,43/150,Somewhat agree,3,1698242329142,1698242331321,\Somewhat agree\,\Somewhat agree\,\3\,1698242330757,1698242330757,1615,1615,2179,buq,qns-item-noham,43,199814,0.0-1.0-0.42
<b>Sometimes the details of a matter seem to conflict with the big picture.,Highly disagree,44/150,Somewhat agree,3,1698242331322,1698242337371,\Somewhat agree\,\Somewhat agree\,\3\,1698242336843,1698242336843,5521,5521,6049,buq,qns-item-noham,44,205864,0.0-1.0-0.43
<b>Listening to people I disagree with makes my opinions better.,Highly disagree,45/150,Somewhat disagree,2,1698242337373,1698242339898,\Somewhat disagree\,\Somewhat disagree\,\2\,1698242339425,1698242339425,2052,2052,2525,buq,qns-item-noham,45,208391,0.0-1.0-0.44
<b>Policies that sound bad are sometimes fine when you find out about their details.,Highly disagree,46/150,Somewhat disagree,2,1698242339899,1698242345588,\Somewhat disagree\,\Somewhat disagree\,\2\,1698242343459,1698242345144,3560,5245,5689,buq,qns-item-noham,46,214081,0.0-1.0-0.45
"<b>The world is always changing, so my beliefs are sometimes out-dated.",Highly disagree,47/150,Somewhat agree,3,1698242345589,1698242348437,\Somewhat agree\,\Somewhat agree\,\3\,1698242348023,1698242348023,2434,2434,2848,buq,qns-item-noham,47,216930,0.0-1.0-0.46
"<b>If I receive a bad meal at my favorite restaurant and the food is surprisingly bad, I do not think much of it, and assume the chef is just having an ?off? day.",Highly disagree,48/150,Somewhat agree,3,1698242348438,1698242352981,\Somewhat agree\,\Somewhat agree\,\3\,1698242352374,1698242352374,3936,3936,4543,buq,qns-item-noham,48,221474,0.0-1.0-0.47
"<b>False information is unavoidable, to some extent.",Highly disagree,49/150,Somewhat disagree,2,1698242352982,1698242357746,\Highly disagree\,\Somewhat disagree\,\1\,1698242356235,1698242356846,3253,3864,4764,buq,qns-item-noham,49,226239,0.0-1.0-0.48
<b>My moral compass sometimes makes it harder to determine what?s true.,Highly disagree,50/150,Somewhat disagree,2,1698242357748,1698242362613,\Somewhat disagree\,\Somewhat disagree\,\2\,1698242361575,1698242361575,3827,3827,4865,buq,qns-item-noham,50,231106,0.0-1.0-0.49
"<b>When you disagree with someone, it?s important to listen to them carefully.",Highly disagree,51/150,Somewhat agree,3,1698242362614,1698242366970,\Somewhat agree\,\Somewhat agree\,\3\,1698242365945,1698242365945,3331,3331,4356,buq,qns-item-noham,51,235463,0.0-1.0-0.50
<b>Evidence pointing in the wrong direction isn?t really evidence at all.,Highly disagree,52/150,Highly agree,4,1698242366971,1698242370053,\Highly agree\,\Highly agree\,\4\,1698242369538,1698242369538,2567,2567,3082,buq,qns-item-noham,52,238546,0.0-1.0-0.51
"<b>If the political party I support messes up, it makes me think politics is rotten.",Highly disagree,53/150,Somewhat disagree,2,1698242370055,1698242373043,\Somewhat disagree\,\Somewhat disagree\,\2\,1698242372576,1698242372576,2521,2521,2988,buq,qns-item-noham,53,241536,0.0-1.0-0.52
<b>Lots of important topics can only really be understood by some groups of people.,Highly disagree,54/150,Somewhat disagree,2,1698242373045,1698242377610,\Somewhat disagree\,\Somewhat disagree\,\2\,1698242377004,1698242377004,3959,3959,4565,buq,qns-item-noham,54,246103,0.0-1.0-0.53
<b>Details almost always matter for being right about something.,Highly disagree,55/150,Somewhat agree,3,1698242377611,1698242382927,\Somewhat agree\,\Somewhat agree\,\3\,1698242381677,1698242381677,4066,4066,5316,buq,qns-item-noham,55,251420,0.0-1.0-0.54
"<b>The most important thing in politics is winning, not convincing people.",Highly disagree,56/150,Highly disagree,1,1698242382928,1698242386654,\Highly disagree\,\Highly disagree\,\1\,1698242385937,1698242385937,3009,3009,3726,buq,qns-item-noham,56,255147,0.0-1.0-0.55
<b>Having conflicting beliefs means you haven?t thought about them enough.,Highly disagree,57/150,Somewhat disagree,2,1698242386655,1698242392982,\Somewhat disagree\,\Somewhat disagree\,\2\,1698242392551,1698242392551,5896,5896,6327,buq,qns-item-noham,57,261475,0.0-1.0-0.56
<b>Other people have sometimes convinced me to change my mind on important topics.,Highly disagree,58/150,Somewhat agree,3,1698242392983,1698242399260,\Somewhat agree\,\Somewhat agree\,\3\,1698242398776,1698242398776,5793,5793,6277,buq,qns-item-noham,58,267753,0.0-1.0-0.57
<b>I do not often change my political opinions.,Highly disagree,59/150,Somewhat agree,3,1698242399261,1698242401681,\Somewhat agree\,\Somewhat agree\,\3\,1698242400920,1698242400920,1659,1659,2420,buq,qns-item-noham,59,270174,0.0-1.0-0.58
<b>Thinking about how different things relate to one another is critical in life.,Highly disagree,60/150,Somewhat agree,3,1698242401682,1698242405091,\Somewhat agree\,\Somewhat agree\,\3\,1698242404243,1698242404243,2561,2561,3409,buq,qns-item-noham,60,273584,0.0-1.0-0.59
<b>True beliefs can have unfortunate implications.,Highly disagree,61/150,Highly agree,4,1698242405092,1698242408217,\Highly agree\,\Highly agree\,\4\,1698242407319,1698242407319,2227,2227,3125,buq,qns-item-noham,61,276710,0.0-1.0-0.60
<b>It?s difficult to not have at least some conflicting beliefs.,Highly disagree,62/150,Somewhat agree,3,1698242408218,1698242413210,\Somewhat agree\,\Somewhat agree\,\3\,1698242412649,1698242412649,4431,4431,4992,buq,qns-item-noham,62,281703,0.0-1.0-0.61
"<b>When I learn new things, I think deeply about how my opinions should change.",Highly disagree,63/150,Somewhat agree,3,1698242413211,1698242417398,\Somewhat agree\,\Somewhat agree\,\3\,1698242416625,1698242416625,3414,3414,4187,buq,qns-item-noham,63,285891,0.0-1.0-0.62
<b>I think a lot about how to interpret different sorts of evidence.,Highly disagree,64/150,Highly agree,4,1698242417399,1698242420236,\Highly agree\,\Highly agree\,\4\,1698242419615,1698242419615,2216,2216,2837,buq,qns-item-noham,64,288730,0.0-1.0-0.63
<b>Politics is about thinking together and finding compromises.,Highly disagree,65/150,Highly agree,4,1698242420238,1698242423030,\Highly agree\,\Highly agree\,\4\,1698242422484,1698242422484,2246,2246,2792,buq,qns-item-noham,65,291523,0.0-1.0-0.64
<b>Wishful thinking causes a lot of problems.,Highly disagree,66/150,Highly agree,4,1698242423031,1698242426317,\Highly agree\,\Highly agree\,\4\,1698242425887,1698242425887,2856,2856,3286,buq,qns-item-noham,66,294810,0.0-1.0-0.65
<b>I judge a food item only once I try it many times.,Highly disagree,67/150,Highly agree,4,1698242426319,1698242429879,\Highly agree\,\Highly agree\,\4\,1698242429392,1698242429392,3073,3073,3560,buq,qns-item-noham,67,298372,0.0-1.0-0.66
"<b>When a person holds conflicting beliefs, they should really try to figure out what?s wrong.",Highly disagree,68/150,Somewhat disagree,2,1698242429880,1698242435173,\Somewhat disagree\,\Somewhat disagree\,\2\,1698242434644,1698242434644,4764,4764,5293,buq,qns-item-noham,68,303666,0.0-1.0-0.67
<b>Knowing what?s important in life is easy.,Highly disagree,69/150,Somewhat disagree,2,1698242435174,1698242439280,\Highly disagree\,\Somewhat disagree\,\1\,1698242437445,1698242438666,2271,3492,4106,buq,qns-item-noham,69,307773,0.0-1.0-0.68
<b>Lots of smart people disagree about basic political questions.,Highly disagree,70/150,Somewhat agree,3,1698242439282,1698242441709,\Somewhat agree\,\Somewhat agree\,\3\,1698242440996,1698242440996,1714,1714,2427,buq,qns-item-noham,70,310202,0.0-1.0-0.69
<b>I swim across the Atlantic Ocean to get to work every day.,Highly disagree,71/150,Highly disagree,1,1698242441710,1698242444560,\Highly disagree\,\Highly disagree\,\1\,1698242443483,1698242443483,1773,1773,2850,buq,qns-item-noham,71,313053,0.0-1.0-0.70
"<b>Sometimes, you just have to ignore evidence that you know is wrong.",Highly disagree,72/150,Highly disagree,1,1698242444562,1698242448886,\Highly disagree\,\Highly disagree\,\1\,1698242448428,1698242448428,3866,3866,4324,buq,qns-item-noham,72,317379,0.0-1.0-0.71
<b>I have had some false beliefs.,Highly disagree,73/150,Somewhat agree,3,1698242448888,1698242450674,\Somewhat agree\,\Somewhat agree\,\3\,1698242450299,1698242450299,1411,1411,1786,buq,qns-item-noham,73,319167,0.0-1.0-0.72
"<b>If one friend does something that upsets me, I sometimes start to distrust people in general.",Highly disagree,74/150,Highly disagree,1,1698242450675,1698242454187,\Somewhat disagree\,\Highly disagree\,\2\,1698242452865,1698242453621,2190,2946,3512,buq,qns-item-noham,74,322680,0.0-1.0-0.73
<b>I easily apply what I learn in one situation to another.,Highly disagree,75/150,Highly agree,4,1698242454189,1698242458338,\Somewhat agree\,\Highly agree\,\3\,1698242457212,1698242457947,3023,3758,4149,buq,qns-item-noham,75,326831,0.0-1.0-0.74
<b>The facts about most important matters are easy to find.,Highly disagree,76/150,Somewhat agree,3,1698242458340,1698242461761,\Somewhat agree\,\Somewhat agree\,\3\,1698242461383,1698242461383,3043,3043,3421,buq,qns-item-noham,76,330254,0.0-1.0-0.75
<b>It?s better to know what?s true than to know what?s moral.,Highly disagree,77/150,Somewhat agree,3,1698242461763,1698242466998,\Somewhat agree\,\Somewhat agree\,\3\,1698242465776,1698242465776,4013,4013,5235,buq,qns-item-noham,77,335492,0.0-1.0-0.76
<b>It?s good to be skeptical of people you agree with.,Highly disagree,78/150,Somewhat agree,3,1698242467000,1698242470748,\Somewhat agree\,\Somewhat agree\,\3\,1698242470195,1698242470195,3195,3195,3748,buq,qns-item-noham,78,339242,0.0-1.0-0.77
<b>Sometimes reasonable beliefs are wrong.,Highly disagree,79/150,Highly agree,4,1698242470750,1698242473375,\Highly agree\,\Highly agree\,\4\,1698242472961,1698242472961,2211,2211,2625,buq,qns-item-noham,79,341868,0.0-1.0-0.78
<b>I used to think the world was less complicated than I do now.,Highly disagree,80/150,Highly agree,4,1698242473376,1698242477401,\Highly agree\,\Highly agree\,\4\,1698242476997,1698242476997,3621,3621,4025,buq,qns-item-noham,80,345894,0.0-1.0-0.79
<b>People are usually completely right or completely wrong.,Highly disagree,81/150,Highly disagree,1,1698242477402,1698242479567,\Highly disagree\,\Highly disagree\,\1\,1698242479158,1698242479158,1756,1756,2165,buq,qns-item-noham,81,348060,0.0-1.0-0.80
<b>I spend a lot of time considering alternatives to my beliefs.,Highly disagree,82/150,Somewhat disagree,2,1698242479568,1698242487129,\Somewhat disagree\,\Somewhat disagree\,\2\,1698242486726,1698242486726,7158,7158,7561,buq,qns-item-noham,82,355622,0.0-1.0-0.81
"<b>Political enemies need to be defeated, not convinced.",Highly disagree,83/150,Somewhat disagree,2,1698242487131,1698242493152,\Somewhat disagree\,\Somewhat disagree\,\2\,1698242491094,1698242491094,3963,3963,6021,buq,qns-item-noham,83,361645,0.0-1.0-0.82
"<b>When forming an opinion about a restaurant, I am more swayed by my  latest meal there than  previous meals I?ve had there.",Highly disagree,84/150,Somewhat disagree,2,1698242493153,1698242498110,\Somewhat disagree\,\Somewhat disagree\,\2\,1698242497319,1698242497319,4166,4166,4957,buq,qns-item-noham,84,366603,0.0-1.0-0.83
<b>I try to remain skeptical about most topics.,Highly disagree,85/150,Somewhat agree,3,1698242498111,1698242500351,\Somewhat agree\,\Somewhat agree\,\3\,1698242499856,1698242499856,1745,1745,2240,buq,qns-item-noham,85,368844,0.0-1.0-0.84
<b>Being wrong is usually obvious in retrospect.,Highly disagree,86/150,Somewhat disagree,2,1698242500353,1698242503235,\Somewhat disagree\,\Somewhat disagree\,\2\,1698242502789,1698242502789,2436,2436,2882,buq,qns-item-noham,86,371728,0.0-1.0-0.85
<b>It can be hard to realize that my beliefs are in conflict.,Highly disagree,87/150,Somewhat agree,3,1698242503237,1698242506971,\Somewhat agree\,\Somewhat agree\,\3\,1698242506519,1698242506519,3282,3282,3734,buq,qns-item-noham,87,375464,0.0-1.0-0.86
<b>I form my political views only after meticulously gathering historical and present information about their policies.,Highly disagree,88/150,Highly agree,4,1698242506973,1698242511425,\Highly agree\,\Highly agree\,\4\,1698242509890,1698242509890,2917,2917,4452,buq,qns-item-noham,88,379918,0.0-1.0-0.87
<b>Skeptical people are usually just bad-tempered.,Highly disagree,89/150,Highly disagree,1,1698242511427,1698242513578,\Highly disagree\,\Highly disagree\,\1\,1698242513059,1698242513059,1632,1632,2151,buq,qns-item-noham,89,382071,0.0-1.0-0.88
<b>It is difficult for me to remember the last time I was surprised by politics.,Highly disagree,90/150,Somewhat disagree,2,1698242513579,1698242526475,\Somewhat disagree\,\Somewhat disagree\,\2\,1698242526005,1698242526005,12426,12426,12896,buq,qns-item-noham,90,394968,0.0-1.0-0.89
"<b>When I find out I?m wrong, I think a lot about my related beliefs.",Highly disagree,91/150,Somewhat agree,3,1698242526476,1698242529526,\Somewhat agree\,\Somewhat agree\,\3\,1698242529028,1698242529028,2552,2552,3050,buq,qns-item-noham,91,398019,0.0-1.0-0.90
"<b>If the political party I support messes up, it makes me think you can?t trust anyone these days",Highly disagree,92/150,Somewhat disagree,2,1698242529527,1698242533562,\Somewhat disagree\,\Somewhat disagree\,\2\,1698242533084,1698242533084,3557,3557,4035,buq,qns-item-noham,92,402055,0.0-1.0-0.91
<b>People?s brains turn off when they talk about politics.,Highly disagree,93/150,Somewhat agree,3,1698242533563,1698242535901,\Somewhat agree\,\Somewhat agree\,\3\,1698242535480,1698242535480,1917,1917,2338,buq,qns-item-noham,93,404394,0.0-1.0-0.92
<b>People who are wrong are usually just ignoring the obvious.,Highly disagree,94/150,Somewhat agree,3,1698242535903,1698242540997,\Somewhat agree\,\Somewhat agree\,\3\,1698242540533,1698242540533,4630,4630,5094,buq,qns-item-noham,94,409491,0.0-1.0-0.93
"<b>The world isn?t that complicated, but it?s still hard to figure out how it works.",Highly disagree,95/150,Highly agree,4,1698242540999,1698242543656,\Highly agree\,\Highly agree\,\4\,1698242543073,1698242543073,2074,2074,2657,buq,qns-item-noham,95,412149,0.0-1.0-0.94
"<b>When forming my views on people, I rely more on what they are like now rather than rely on my past experience with them.",Highly disagree,96/150,Somewhat disagree,2,1698242543657,1698242550061,\Somewhat disagree\,\Somewhat disagree\,\2\,1698242549528,1698242549528,5871,5871,6404,buq,qns-item-noham,96,418554,0.0-1.0-0.95
"<b>When people contradict my beliefs, I usually know about their evidence already.",Highly disagree,97/150,Somewhat disagree,2,1698242550063,1698242556818,\Somewhat agree\,\Somewhat disagree\,\3\,1698242554560,1698242556455,4497,6392,6755,buq,qns-item-noham,97,425311,0.0-1.0-0.96
<b>Being wrong is a matter of degree.,Highly disagree,98/150,Somewhat agree,3,1698242556819,1698242559897,\Highly disagree\,\Somewhat agree\,\1\,1698242558597,1698242559482,1778,2663,3078,buq,qns-item-noham,98,428390,0.0-1.0-0.97
<b>Figuring out what?s true and what?s false mainly requires a strong moral compass.,Highly disagree,99/150,Somewhat disagree,2,1698242559898,1698242563135,\Somewhat disagree\,\Somewhat disagree\,\2\,1698242562698,1698242562698,2800,2800,3237,buq,qns-item-noham,99,431628,0.0-1.0-0.98
<b>Most of the beliefs people have are at least somewhat understandable.,Highly disagree,100/150,Somewhat agree,3,1698242563136,1698242566479,\Somewhat agree\,\Somewhat agree\,\3\,1698242565949,1698242565949,2813,2813,3343,buq,qns-item-noham,100,434972,0.0-1.0-0.99
"<b>Usually I?m wrong about simple things, not complicated ones.",Highly disagree,101/150,Somewhat agree,3,1698242566480,1698242573244,\Somewhat agree\,\Somewhat agree\,\3\,1698242572515,1698242572515,6035,6035,6764,buq,qns-item-noham,101,441737,0.0-1.0-0.100
<b>Getting all the information I want about important things is hard.,Highly disagree,102/150,Highly disagree,1,1698242573246,1698242575808,\Highly disagree\,\Highly disagree\,\1\,1698242575335,1698242575335,2089,2089,2562,buq,qns-item-noham,102,444301,0.0-1.0-0.101
<b>Most false beliefs spread because people try to deceive one another.,Highly disagree,103/150,Highly agree,4,1698242575809,1698242578976,\Highly agree\,\Highly agree\,\4\,1698242578453,1698242578453,2644,2644,3167,buq,qns-item-noham,103,447470,0.0-1.0-0.102
<b>I can usually find something to agree with in most people?s beliefs.,Highly disagree,104/150,Somewhat agree,3,1698242578978,1698242582973,\Somewhat disagree\,\Somewhat agree\,\2\,1698242581663,1698242582558,2685,3580,3995,buq,qns-item-noham,104,451466,0.0-1.0-0.103
<b>I only form my views of people once I get to know them very well.,Highly disagree,105/150,Somewhat disagree,2,1698242582974,1698242586628,\Somewhat agree\,\Somewhat disagree\,\3\,1698242585007,1698242586155,2033,3181,3654,buq,qns-item-noham,105,455121,0.0-1.0-0.104
"<b>When people tell me important things about the world, I usually believe them.",Highly disagree,106/150,Somewhat disagree,2,1698242586629,1698242591433,\Somewhat disagree\,\Somewhat disagree\,\2\,1698242590885,1698242590885,4256,4256,4804,buq,qns-item-noham,106,459926,0.0-1.0-0.105
"<b>If a friend does something that upsets me, it reminds me what an unpredictable place the world is.",Highly disagree,107/150,Somewhat agree,3,1698242591434,1698242595677,\Somewhat agree\,\Somewhat agree\,\3\,1698242595027,1698242595027,3593,3593,4243,buq,qns-item-noham,107,464170,0.0-1.0-0.106
<b>Having some conflicting beliefs is inevitable.,Highly disagree,108/150,Somewhat agree,3,1698242595678,1698242597716,\Somewhat agree\,\Somewhat agree\,\3\,1698242597240,1698242597240,1562,1562,2038,buq,qns-item-noham,108,466209,0.0-1.0-0.107
<b>People are wrong because they haven?t thought much about things.,Highly disagree,109/150,Somewhat disagree,2,1698242597717,1698242601245,\Somewhat disagree\,\Somewhat disagree\,\2\,1698242600599,1698242600599,2882,2882,3528,buq,qns-item-noham,109,469738,0.0-1.0-0.108
<b>People tend to believe whatever is good for their friends.,Highly disagree,110/150,Somewhat agree,3,1698242601246,1698242605288,\Somewhat agree\,\Somewhat agree\,\3\,1698242604419,1698242604419,3173,3173,4042,buq,qns-item-noham,110,473781,0.0-1.0-0.109
"<b>When I talk about important topics, I try to make sure people know I?m not always right.",Highly disagree,111/150,Somewhat agree,3,1698242605291,1698242612671,\Somewhat agree\,\Somewhat agree\,\3\,1698242611998,1698242611998,6707,6707,7380,buq,qns-item-noham,111,481164,0.0-1.0-0.110
<b>I used to be more certain my beliefs were true.,Highly disagree,112/150,Somewhat agree,3,1698242612673,1698242615340,\Somewhat agree\,\Somewhat agree\,\3\,1698242614900,1698242614900,2227,2227,2667,buq,qns-item-noham,112,483833,0.0-1.0-0.111
<b>It?s often pretty easy to figure out whether something is true based on who said it.,Highly disagree,113/150,Somewhat disagree,2,1698242615341,1698242619434,\Somewhat disagree\,\Somewhat disagree\,\2\,1698242618875,1698242618875,3534,3534,4093,buq,qns-item-noham,113,487927,0.0-1.0-0.112
<b>Having bad food in my favorite restaurant will make me think the restaurant is no longer good.,Highly disagree,114/150,Somewhat disagree,2,1698242619435,1698242622170,\Somewhat disagree\,\Somewhat disagree\,\2\,1698242621693,1698242621693,2258,2258,2735,buq,qns-item-noham,114,490663,0.0-1.0-0.113
<b>I transform into a hummingbird every day.,Highly disagree,115/150,Highly disagree,1,1698242622171,1698242624113,\Highly disagree\,\Highly disagree\,\1\,1698242623556,1698242623556,1385,1385,1942,buq,qns-item-noham,115,492606,0.0-1.0-0.114
"<b>Unfortunately, when people are wrong, it?s usually because they?re bad.",Highly disagree,116/150,Somewhat disagree,2,1698242624114,1698242628308,\Somewhat disagree\,\Somewhat disagree\,\2\,1698242627701,1698242627701,3587,3587,4194,buq,qns-item-noham,116,496801,0.0-1.0-0.115
<b>I think a lot about arguments against my views.,Highly disagree,117/150,Somewhat agree,3,1698242628309,1698242635633,\Somewhat agree\,\Somewhat agree\,\3\,1698242635123,1698242635123,6814,6814,7324,buq,qns-item-noham,117,504126,0.0-1.0-0.116
<b>Details tend to matter a lot for knowing whether a policy is good.,Highly disagree,118/150,Highly agree,4,1698242635634,1698242640346,\Highly agree\,\Highly agree\,\4\,1698242639593,1698242639593,3959,3959,4712,buq,qns-item-noham,118,508839,0.0-1.0-0.117
<b>Personal experience is usually more important than facts and figures.,Highly disagree,119/150,Somewhat disagree,2,1698242640347,1698242644069,\Highly disagree\,\Somewhat disagree\,\1\,1698242642482,1698242643572,2135,3225,3722,buq,qns-item-noham,119,512562,0.0-1.0-0.118
<b>I?ve been tricked before about important matters.,Highly disagree,120/150,Somewhat agree,3,1698242644070,1698242645949,\Somewhat agree\,\Somewhat agree\,\3\,1698242645547,1698242645547,1477,1477,1879,buq,qns-item-noham,120,514443,0.0-1.0-0.119
<b>I would need to be totally wowed if I were to change my opinion of a restaurant I don?t like.,Highly disagree,121/150,Somewhat agree,3,1698242645951,1698242649908,\Somewhat agree\,\Somewhat agree\,\3\,1698242648488,1698242648488,2537,2537,3957,buq,qns-item-noham,121,518401,0.0-1.0-0.120
<b>I care a lot about politics.,Highly disagree,122/150,Somewhat agree,3,1698242649909,1698242651714,\Somewhat agree\,\Somewhat agree\,\3\,1698242651256,1698242651256,1347,1347,1805,buq,qns-item-noham,122,520207,0.0-1.0-0.121
<b>People with conflicting beliefs usually have some facts they disagree on.,Highly disagree,123/150,Somewhat agree,3,1698242651715,1698242654777,\Somewhat agree\,\Somewhat agree\,\3\,1698242654172,1698242654172,2457,2457,3062,buq,qns-item-noham,123,523270,0.0-1.0-0.122
<b>There are some topics I?ve been really wrong about.,Highly disagree,124/150,Somewhat agree,3,1698242654778,1698242664631,\Somewhat agree\,\Somewhat agree\,\3\,1698242664175,1698242664175,9397,9397,9853,buq,qns-item-noham,124,533124,0.0-1.0-0.123
<b>Most beliefs can be supported with at least some evidence.,Highly disagree,125/150,Somewhat agree,3,1698242664632,1698242669419,\Somewhat agree\,\Somewhat agree\,\3\,1698242669013,1698242669013,4381,4381,4787,buq,qns-item-noham,125,537912,0.0-1.0-0.124
<b>Other people make life out to be more complicated than it really is.,Highly disagree,126/150,Somewhat disagree,2,1698242669420,1698242677295,\Somewhat disagree\,\Somewhat disagree\,\2\,1698242676881,1698242676881,7461,7461,7875,buq,qns-item-noham,126,545788,0.0-1.0-0.125
"<b>My political views are being shaped continuously as I gather more information, rather than relying on what I?ve known to be true of my party in the past. ",Highly disagree,127/150,Somewhat agree,3,1698242677296,1698242695906,\Somewhat agree\,\Somewhat agree\,\3\,1698242695471,1698242695471,18175,18175,18610,buq,qns-item-noham,127,564399,0.0-1.0-0.126
<b>It?s pretty unusual for true things to seem false.,Highly disagree,128/150,Somewhat disagree,2,1698242695907,1698242700052,\Somewhat disagree\,\Somewhat disagree\,\2\,1698242699059,1698242699059,3152,3152,4145,buq,qns-item-noham,128,568545,0.0-1.0-0.127
"<b>Policy details don?t matter much, just the big picture.",Highly disagree,129/150,Highly disagree,1,1698242700053,1698242703323,\Highly disagree\,\Highly disagree\,\1\,1698242702499,1698242702499,2446,2446,3270,buq,qns-item-noham,129,571816,0.0-1.0-0.128
<b>I know my friends so well they can hardly ever surprise me.,Highly disagree,130/150,Somewhat agree,3,1698242703324,1698242705517,\Somewhat agree\,\Somewhat agree\,\3\,1698242705020,1698242705020,1696,1696,2193,buq,qns-item-noham,130,574010,0.0-1.0-0.129
"<b>When I talk to people, I often think about why they have the beliefs they do.",Highly disagree,131/150,Somewhat agree,3,1698242705518,1698242709445,\Somewhat agree\,\Somewhat agree\,\3\,1698242708883,1698242708883,3365,3365,3927,buq,qns-item-noham,131,577938,0.0-1.0-0.130
<b>I do not often change my views on people.,Highly disagree,132/150,Somewhat agree,3,1698242709447,1698242711670,\Somewhat agree\,\Somewhat agree\,\3\,1698242711207,1698242711207,1760,1760,2223,buq,qns-item-noham,132,580163,0.0-1.0-0.131
<b>I often wish I had more time to spend figuring out what?s true and what?s false in life.,Highly disagree,133/150,Somewhat agree,3,1698242711671,1698242715395,\Somewhat agree\,\Somewhat agree\,\3\,1698242714973,1698242714973,3302,3302,3724,buq,qns-item-noham,133,583888,0.0-1.0-0.132
<b>I?m more certain about my beliefs than I used to be.,Highly disagree,134/150,Somewhat disagree,2,1698242715397,1698242717500,\Somewhat disagree\,\Somewhat disagree\,\2\,1698242717125,1698242717125,1728,1728,2103,buq,qns-item-noham,134,585993,0.0-1.0-0.133
"<b>Whenever I find out new information, I update my views on politics accordingly.",Highly disagree,135/150,Somewhat agree,3,1698242717501,1698242721585,\Somewhat disagree\,\Somewhat agree\,\2\,1698242719714,1698242721186,2213,3685,4084,buq,qns-item-noham,135,590078,0.0-1.0-0.134
<b>People often tell falsehoods unintentionally.,Highly disagree,136/150,Somewhat agree,3,1698242721586,1698242725094,\Somewhat agree\,\Somewhat agree\,\3\,1698242724572,1698242724572,2986,2986,3508,buq,qns-item-noham,136,593587,0.0-1.0-0.135
<b>Most people don?t know much about most things.,Highly disagree,137/150,Somewhat agree,3,1698242725095,1698242728705,\Somewhat agree\,\Somewhat agree\,\3\,1698242728258,1698242728258,3163,3163,3610,buq,qns-item-noham,137,597198,0.0-1.0-0.136
"<b>If I find out something new about someone, I easily change my views about them.",Highly disagree,138/150,Somewhat disagree,2,1698242728706,1698242731513,\Somewhat disagree\,\Somewhat disagree\,\2\,1698242731077,1698242731077,2371,2371,2807,buq,qns-item-noham,138,600006,0.0-1.0-0.137
<b>Having true beliefs is difficult.,Highly disagree,139/150,Somewhat agree,3,1698242731515,1698242733383,\Somewhat agree\,\Somewhat agree\,\3\,1698242732752,1698242732752,1237,1237,1868,buq,qns-item-noham,139,601876,0.0-1.0-0.138
<b>I don?t try new foods since I know I won?t like them.,Highly disagree,140/150,Highly disagree,1,1698242733384,1698242736345,\Somewhat disagree\,\Highly disagree\,\2\,1698242735132,1698242735878,1748,2494,2961,buq,qns-item-noham,140,604838,0.0-1.0-0.139
<b>It?s easy to figure out what?s true or false based on who?s saying it.,Highly disagree,141/150,Somewhat disagree,2,1698242736347,1698242739181,\Somewhat disagree\,\Somewhat disagree\,\2\,1698242738742,1698242738742,2395,2395,2834,buq,qns-item-noham,141,607674,0.0-1.0-0.140
<b>False things have seemed true to me many times.,Highly disagree,142/150,Somewhat agree,3,1698242739183,1698242741650,\Somewhat agree\,\Somewhat agree\,\3\,1698242741207,1698242741207,2024,2024,2467,buq,qns-item-noham,142,610143,0.0-1.0-0.141
<b>It?s pretty easy to sort out what?s true and what?s false in life.,Highly disagree,143/150,Somewhat disagree,2,1698242741652,1698242744552,\Somewhat disagree\,\Somewhat disagree\,\2\,1698242743922,1698242743922,2270,2270,2900,buq,qns-item-noham,143,613045,0.0-1.0-0.142
<b>Knowing lots of statistics about something is usually important for understanding it.,Highly disagree,144/150,Somewhat disagree,2,1698242744554,1698242747993,\Somewhat agree\,\Somewhat disagree\,\3\,1698242746873,1698242747566,2319,3012,3439,buq,qns-item-noham,144,616487,0.0-1.0-0.143
<b>Other people trick each other a lot.,Highly disagree,145/150,Highly agree,4,1698242747995,1698242754326,\Highly agree\,\Highly agree\,\4\,1698242753792,1698242753792,5797,5797,6331,buq,qns-item-noham,145,622819,0.0-1.0-0.144
<b>I would need to learn a lot about a person for my opinion of them to be swayed.,Highly disagree,146/150,Somewhat agree,3,1698242754327,1698242756972,\Somewhat agree\,\Somewhat agree\,\3\,1698242756439,1698242756439,2112,2112,2645,buq,qns-item-noham,146,625465,0.0-1.0-0.145
<b>People can?t usually trick me when it comes to topics I care about.,Highly disagree,147/150,Somewhat agree,3,1698242756973,1698242759589,\Somewhat agree\,\Somewhat agree\,\3\,1698242759091,1698242759091,2118,2118,2616,buq,qns-item-noham,147,628082,0.0-1.0-0.146
<b>I do not often change my views on food.,Highly disagree,148/150,Somewhat agree,3,1698242759590,1698242761648,\Somewhat agree\,\Somewhat agree\,\3\,1698242761225,1698242761225,1635,1635,2058,buq,qns-item-noham,148,630141,0.0-1.0-0.147
<b>Specific policies are often very important to me.,Highly disagree,149/150,Somewhat agree,3,1698242761649,1698242765302,\Somewhat agree\,\Somewhat agree\,\3\,1698242764924,1698242764924,3275,3275,3653,buq,qns-item-noham,149,633795,0.0-1.0-0.148
<b>Most people are woefully under-informed.,Highly disagree,150/150,Highly agree,4,1698242765303,1698242768455,\Somewhat agree\,\Highly agree\,\3\,1698242767308,1698242768079,2005,2776,3152,buq,qns-item-noham,150,636948,0.0-1.0-0.149
